Timestamp,ACC X,ACC Y,ACC Z
2026/05/07 08:42:33.088,0.009,0.041,1.002
2026/05/07 08:42:33.107,0.01,0.038,1.002
2026/05/07 08:42:33.126,0.01,0.037,1.0
2026/05/07 08:42:33.146,0.01,0.034,1.003
2026/05/07 08:42:33.165,0.007,0.037,1.005
2026/05/07 08:42:33.184,0.007,0.038,1.0
2026/05/07 08:42:33.203,0.006,0.038,1.001
2026/05/07 08:42:33.223,0.008,0.037,1.008
2026/05/07 08:42:33.242,0.01,0.039,0.999
2026/05/07 08:42:33.261,0.008,0.036,1.0
2026/05/07 08:42:33.280,0.004,0.036,1.002
2026/05/07 08:42:33.300,0.008,0.037,1.0
2026/05/07 08:42:33.319,0.005,0.037,1.001
2026/05/07 08:42:33.338,0.011,0.041,1.007
2026/05/07 08:42:33.357,0.008,0.036,1.004
2026/05/07 08:42:33.376,0.008,0.04,1.003
2026/05/07 08:42:33.396,0.009,0.037,1.001
2026/05/07 08:42:33.415,0.008,0.033,1.002
2026/05/07 08:42:33.434,0.009,0.034,1.004
2026/05/07 08:42:33.453,0.008,0.036,1.006
2026/05/07 08:42:33.473,0.008,0.037,1.0
2026/05/07 08:42:33.492,0.006,0.033,1.002
2026/05/07 08:42:33.511,0.007,0.033,1.003
2026/05/07 08:42:33.530,0.009,0.034,1.003
2026/05/07 08:42:33.550,0.008,0.032,1.001
2026/05/07 08:42:33.569,0.01,0.035,1.006
2026/05/07 08:42:33.588,0.006,0.034,0.996
2026/05/07 08:42:33.607,0.01,0.038,1.005
2026/05/07 08:42:33.626,0.008,0.037,1.003
2026/05/07 08:42:33.646,0.006,0.034,1.002
2026/05/07 08:42:33.665,0.007,0.037,1.005
2026/05/07 08:42:33.684,0.01,0.035,1.004
2026/05/07 08:42:33.703,0.01,0.037,1.005
2026/05/07 08:42:33.723,0.007,0.035,0.999
2026/05/07 08:42:33.742,0.008,0.035,1.003
2026/05/07 08:42:33.761,0.01,0.038,1.0
2026/05/07 08:42:33.780,0.009,0.036,1.003
2026/05/07 08:42:33.800,0.009,0.035,1.001
2026/05/07 08:42:33.819,0.01,0.042,1.004
2026/05/07 08:42:33.838,0.009,0.037,1.005
2026/05/07 08:42:33.857,0.009,0.033,1.004
2026/05/07 08:42:33.876,0.005,0.037,1.0
2026/05/07 08:42:33.896,0.007,0.037,1.004
2026/05/07 08:42:33.915,0.004,0.034,1.003
2026/05/07 08:42:33.934,0.012,0.034,1.007
2026/05/07 08:42:33.953,0.01,0.034,1.004
2026/05/07 08:42:33.973,0.009,0.035,1.0
2026/05/07 08:42:33.992,0.007,0.036,1.004
2026/05/07 08:42:34.011,0.01,0.036,1.004
2026/05/07 08:42:34.030,0.007,0.036,1.006
2026/05/07 08:42:34.050,0.006,0.034,1.001
2026/05/07 08:42:34.069,0.009,0.036,1.004
2026/05/07 08:42:34.088,0.009,0.036,1.002
2026/05/07 08:42:34.107,0.005,0.031,1.002
2026/05/07 08:42:34.126,0.009,0.038,0.998
2026/05/07 08:42:34.146,0.005,0.039,1.002
2026/05/07 08:42:34.165,0.009,0.034,1.005
2026/05/07 08:42:34.184,0.009,0.034,1.002
2026/05/07 08:42:34.203,0.01,0.038,1.001
2026/05/07 08:42:34.223,0.014,0.036,1.002
2026/05/07 08:42:34.242,0.007,0.04,1.003
2026/05/07 08:42:34.261,0.005,0.037,0.999
2026/05/07 08:42:34.280,0.012,0.036,1.004
2026/05/07 08:42:34.300,0.006,0.036,0.999
2026/05/07 08:42:34.319,0.009,0.037,1.007
2026/05/07 08:42:34.338,0.008,0.036,1.004
2026/05/07 08:42:34.357,0.007,0.036,1.006
2026/05/07 08:42:34.376,0.007,0.035,1.007
2026/05/07 08:42:34.396,0.009,0.035,1.003
2026/05/07 08:42:34.415,0.01,0.034,1.006
2026/05/07 08:42:34.434,0.009,0.036,1.003
2026/05/07 08:42:34.453,0.008,0.038,1.005
2026/05/07 08:42:34.473,0.008,0.039,1.002
2026/05/07 08:42:34.492,0.011,0.035,1.004
2026/05/07 08:42:34.511,0.007,0.035,0.998
2026/05/07 08:42:34.530,0.006,0.033,1.003
2026/05/07 08:42:34.550,0.01,0.037,1.002
2026/05/07 08:42:34.569,0.007,0.038,1.0
2026/05/07 08:42:34.588,0.006,0.034,1.003
2026/05/07 08:42:34.607,0.009,0.037,1.006
2026/05/07 08:42:34.626,0.009,0.038,0.998
2026/05/07 08:42:34.646,0.008,0.037,1.002
2026/05/07 08:42:34.665,0.01,0.038,1.006
2026/05/07 08:42:34.684,0.005,0.034,1.0
2026/05/07 08:42:34.703,0.006,0.035,1.001
2026/05/07 08:42:34.723,0.008,0.035,1.0
2026/05/07 08:42:34.742,0.01,0.036,1.001
2026/05/07 08:42:34.761,0.007,0.038,1.003
2026/05/07 08:42:34.780,0.007,0.032,1.005
2026/05/07 08:42:34.800,0.007,0.037,1.003
2026/05/07 08:42:34.819,0.006,0.032,1.001
2026/05/07 08:42:34.838,0.007,0.039,1.005
2026/05/07 08:42:34.857,0.008,0.037,1.004
2026/05/07 08:42:34.876,0.008,0.039,1.005
2026/05/07 08:42:34.896,0.009,0.032,1.0
2026/05/07 08:42:34.915,0.006,0.037,0.999
2026/05/07 08:42:34.934,0.006,0.035,1.004
2026/05/07 08:42:34.953,0.007,0.039,1.004
2026/05/07 08:42:34.973,0.005,0.032,1.006
2026/05/07 08:42:34.992,0.008,0.038,1.004
2026/05/07 08:42:35.011,0.011,0.036,1.001
2026/05/07 08:42:35.030,0.008,0.034,1.004
2026/05/07 08:42:35.050,0.01,0.038,1.002
2026/05/07 08:42:35.069,0.009,0.032,1.001
2026/05/07 08:42:35.088,0.006,0.037,1.002
2026/05/07 08:42:35.107,0.01,0.037,1.008
2026/05/07 08:42:35.126,0.008,0.036,1.002
2026/05/07 08:42:35.146,0.011,0.038,1.006
2026/05/07 08:42:35.165,0.009,0.035,1.002
2026/05/07 08:42:35.184,0.01,0.037,1.004
2026/05/07 08:42:35.203,0.009,0.036,1.004
2026/05/07 08:42:35.223,0.006,0.035,1.002
2026/05/07 08:42:35.242,0.009,0.038,0.999
2026/05/07 08:42:35.261,0.006,0.035,0.999
2026/05/07 08:42:35.280,0.006,0.035,1.002
2026/05/07 08:42:35.300,0.007,0.034,1.002
2026/05/07 08:42:35.319,0.008,0.041,1.004
2026/05/07 08:42:35.338,0.012,0.035,1.003
2026/05/07 08:42:35.357,0.007,0.035,1.002
2026/05/07 08:42:35.376,0.01,0.035,0.998
2026/05/07 08:42:35.396,0.006,0.036,1.004
2026/05/07 08:42:35.416,0.009,0.035,1.002
2026/05/07 08:42:35.435,0.004,0.037,1.001
2026/05/07 08:42:35.455,0.012,0.042,0.997
2026/05/07 08:42:35.474,0.009,0.033,1.002
2026/05/07 08:42:35.494,0.008,0.034,1.005
2026/05/07 08:42:35.513,0.006,0.041,1.004
2026/05/07 08:42:35.533,0.009,0.038,1.004
2026/05/07 08:42:35.552,0.008,0.035,1.002
2026/05/07 08:42:35.572,0.005,0.036,1.006
2026/05/07 08:42:35.591,0.006,0.038,1.003
2026/05/07 08:42:35.611,0.006,0.034,1.001
2026/05/07 08:42:35.630,0.006,0.039,1.003
2026/05/07 08:42:35.650,0.009,0.036,1.001
2026/05/07 08:42:35.670,0.005,0.034,1.002
2026/05/07 08:42:35.689,0.008,0.035,1.001
2026/05/07 08:42:35.709,0.009,0.044,1.0
2026/05/07 08:42:35.728,0.007,0.035,1.005
2026/05/07 08:42:35.748,0.011,0.034,1.004
2026/05/07 08:42:35.767,0.01,0.039,1.001
2026/05/07 08:42:35.787,0.005,0.039,1.0
2026/05/07 08:42:35.806,0.009,0.033,1.0
2026/05/07 08:42:35.826,0.008,0.034,1.005
2026/05/07 08:42:35.845,0.009,0.038,1.003
2026/05/07 08:42:35.865,0.012,0.037,1.003
2026/05/07 08:42:35.885,0.009,0.033,1.002
2026/05/07 08:42:35.904,0.008,0.035,1.005
2026/05/07 08:42:35.924,0.005,0.034,0.997
2026/05/07 08:42:35.943,0.005,0.036,1.0
2026/05/07 08:42:35.963,0.007,0.039,1.003
2026/05/07 08:42:35.982,0.011,0.039,1.001
2026/05/07 08:42:36.002,0.01,0.036,1.003
2026/05/07 08:42:36.021,0.007,0.036,1.005
2026/05/07 08:42:36.041,0.005,0.037,1.01
2026/05/07 08:42:36.060,0.009,0.038,1.006
2026/05/07 08:42:36.080,0.005,0.04,1.001
2026/05/07 08:42:36.100,0.007,0.038,1.002
2026/05/07 08:42:36.119,0.004,0.039,0.998
2026/05/07 08:42:36.139,0.008,0.036,1.0
2026/05/07 08:42:36.158,0.007,0.039,1.004
2026/05/07 08:42:36.178,0.011,0.034,1.009
2026/05/07 08:42:36.197,0.01,0.035,1.007
2026/05/07 08:42:36.217,0.008,0.04,1.005
2026/05/07 08:42:36.236,0.007,0.035,1.005
2026/05/07 08:42:36.256,0.004,0.034,1.008
2026/05/07 08:42:36.275,0.011,0.034,1.001
2026/05/07 08:42:36.295,0.007,0.042,1.004
2026/05/07 08:42:36.315,0.01,0.035,1.005
2026/05/07 08:42:36.334,0.011,0.04,0.998
2026/05/07 08:42:36.354,0.008,0.035,1.002
2026/05/07 08:42:36.373,0.006,0.034,1.006
2026/05/07 08:42:36.393,0.003,0.036,1.005
2026/05/07 08:42:36.412,0.006,0.035,1.003
2026/05/07 08:42:36.432,0.008,0.042,1.004
2026/05/07 08:42:36.451,0.011,0.035,1.008
2026/05/07 08:42:36.471,0.005,0.035,1.002
2026/05/07 08:42:36.490,0.006,0.039,1.001
2026/05/07 08:42:36.510,0.01,0.033,1.006
2026/05/07 08:42:36.529,0.005,0.037,1.003
2026/05/07 08:42:36.549,0.008,0.034,1.003
2026/05/07 08:42:36.569,0.006,0.033,1.003
2026/05/07 08:42:36.588,0.008,0.032,1.002
2026/05/07 08:42:36.608,0.006,0.039,1.004
2026/05/07 08:42:36.627,0.007,0.037,1.0
2026/05/07 08:42:36.647,0.01,0.041,1.001
2026/05/07 08:42:36.666,0.012,0.038,1.0
2026/05/07 08:42:36.686,0.01,0.035,1.003
2026/05/07 08:42:36.705,0.008,0.033,1.0
2026/05/07 08:42:36.725,0.006,0.035,1.002
2026/05/07 08:42:36.744,0.006,0.041,1.003
2026/05/07 08:42:36.764,0.009,0.037,1.003
2026/05/07 08:42:36.784,0.006,0.035,1.004
2026/05/07 08:42:36.803,0.006,0.037,1.006
2026/05/07 08:42:36.823,0.008,0.037,1.003
2026/05/07 08:42:36.842,0.01,0.039,1.006
2026/05/07 08:42:36.862,0.006,0.036,1.003
2026/05/07 08:42:36.881,0.005,0.039,1.003
2026/05/07 08:42:36.901,0.011,0.04,1.008
2026/05/07 08:42:36.920,0.01,0.039,1.005
2026/05/07 08:42:36.940,0.009,0.036,1.004
2026/05/07 08:42:36.959,0.008,0.039,1.003
2026/05/07 08:42:36.979,0.008,0.037,1.001
2026/05/07 08:42:36.999,0.01,0.037,1.004
2026/05/07 08:42:37.018,0.009,0.033,1.002
2026/05/07 08:42:37.038,0.007,0.036,1.004
2026/05/07 08:42:37.057,0.007,0.037,1.006
2026/05/07 08:42:37.077,0.008,0.036,1.006
2026/05/07 08:42:37.096,0.012,0.039,1.003
2026/05/07 08:42:37.116,0.009,0.038,1.006
2026/05/07 08:42:37.135,0.011,0.038,1.008
2026/05/07 08:42:37.155,0.009,0.034,1.002
2026/05/07 08:42:37.174,0.006,0.038,1.005
2026/05/07 08:42:37.194,0.006,0.039,1.006
2026/05/07 08:42:37.213,0.01,0.037,1.002
2026/05/07 08:42:37.233,0.009,0.041,1.003
2026/05/07 08:42:37.253,0.008,0.037,1.004
2026/05/07 08:42:37.272,0.008,0.036,1.005
2026/05/07 08:42:37.292,0.009,0.036,1.0
2026/05/07 08:42:37.311,0.008,0.039,1.004
2026/05/07 08:42:37.331,0.006,0.04,0.999
2026/05/07 08:42:37.350,0.008,0.033,1.006
2026/05/07 08:42:37.370,0.008,0.043,1.001
2026/05/07 08:42:37.389,0.007,0.034,0.999
2026/05/07 08:42:37.409,0.006,0.04,1.004
2026/05/07 08:42:37.428,0.007,0.038,1.0
2026/05/07 08:42:37.448,0.011,0.037,1.002
2026/05/07 08:42:37.468,0.012,0.037,1.005
2026/05/07 08:42:37.487,0.01,0.039,1.005
2026/05/07 08:42:37.507,0.012,0.038,1.003
2026/05/07 08:42:37.526,0.012,0.034,0.999
2026/05/07 08:42:37.546,0.01,0.04,1.003
2026/05/07 08:42:37.565,0.008,0.037,1.003
2026/05/07 08:42:37.585,0.003,0.035,0.996
2026/05/07 08:42:37.604,0.009,0.036,1.002
2026/05/07 08:42:37.624,0.008,0.033,1.002
2026/05/07 08:42:37.643,0.006,0.036,1.0
2026/05/07 08:42:37.663,0.008,0.039,1.002
2026/05/07 08:42:37.683,0.008,0.035,1.006
2026/05/07 08:42:37.702,0.006,0.039,1.006
2026/05/07 08:42:37.722,0.01,0.037,1.002
2026/05/07 08:42:37.741,0.006,0.037,1.005
2026/05/07 08:42:37.761,0.012,0.036,1.002
2026/05/07 08:42:37.780,0.009,0.039,1.003
2026/05/07 08:42:37.800,0.01,0.036,1.002
2026/05/07 08:42:37.819,0.008,0.036,0.999
2026/05/07 08:42:37.839,0.008,0.038,1.003
2026/05/07 08:42:37.858,0.005,0.034,1.005
2026/05/07 08:42:37.878,0.012,0.038,1.002
2026/05/07 08:42:37.897,0.008,0.033,1.006
2026/05/07 08:42:37.917,0.01,0.035,1.007
2026/05/07 08:42:37.937,0.008,0.033,1.001
2026/05/07 08:42:37.956,0.008,0.039,1.004
2026/05/07 08:42:37.976,0.008,0.035,1.0
2026/05/07 08:42:37.995,0.009,0.035,1.001
2026/05/07 08:42:38.015,0.007,0.038,1.005
2026/05/07 08:42:38.034,0.011,0.036,1.005
2026/05/07 08:42:38.054,0.01,0.04,1.002
2026/05/07 08:42:38.073,0.008,0.04,1.005
2026/05/07 08:42:38.093,0.009,0.031,1.0
2026/05/07 08:42:38.112,0.01,0.034,1.001
2026/05/07 08:42:38.132,0.007,0.039,1.006
2026/05/07 08:42:38.152,0.008,0.033,1.001
2026/05/07 08:42:38.171,0.009,0.036,0.999
2026/05/07 08:42:38.191,0.009,0.036,1.002
2026/05/07 08:42:38.210,0.005,0.036,1.001
2026/05/07 08:42:38.230,0.007,0.033,1.001
2026/05/07 08:42:38.249,0.007,0.038,1.001
2026/05/07 08:42:38.269,0.006,0.034,1.003
2026/05/07 08:42:38.288,0.01,0.037,1.005
2026/05/07 08:42:38.308,0.006,0.037,1.004
2026/05/07 08:42:38.327,0.005,0.036,1.004
2026/05/07 08:42:38.347,0.009,0.038,1.003
2026/05/07 08:42:38.366,0.006,0.033,0.997
2026/05/07 08:42:38.386,0.01,0.037,1.004
2026/05/07 08:42:38.406,0.007,0.036,1.003
2026/05/07 08:42:38.425,0.007,0.036,1.003
2026/05/07 08:42:38.445,0.006,0.033,1.005
2026/05/07 08:42:38.464,0.01,0.035,1.001
2026/05/07 08:42:38.484,0.009,0.039,1.004
2026/05/07 08:42:38.503,0.005,0.034,1.005
2026/05/07 08:42:38.523,0.01,0.038,1.005
2026/05/07 08:42:38.542,0.008,0.034,1.0
2026/05/07 08:42:38.562,0.009,0.035,1.006
2026/05/07 08:42:38.581,0.009,0.038,1.0
2026/05/07 08:42:38.601,0.006,0.035,1.002
2026/05/07 08:42:38.621,0.007,0.035,1.004
2026/05/07 08:42:38.640,0.005,0.034,1.001
2026/05/07 08:42:38.660,0.005,0.039,1.002
2026/05/07 08:42:38.679,0.008,0.037,0.999
2026/05/07 08:42:38.699,0.008,0.039,1.003
2026/05/07 08:42:38.718,0.005,0.035,1.003
2026/05/07 08:42:38.738,0.008,0.041,1.005
2026/05/07 08:42:38.757,0.008,0.036,1.004
2026/05/07 08:42:38.777,0.008,0.04,1.006
2026/05/07 08:42:38.796,0.005,0.034,1.007
2026/05/07 08:42:38.816,0.01,0.042,1.0
2026/05/07 08:42:38.835,0.005,0.034,1.001
2026/05/07 08:42:38.855,0.008,0.036,1.003
2026/05/07 08:42:38.875,0.01,0.036,0.998
2026/05/07 08:42:38.894,0.009,0.041,1.004
2026/05/07 08:42:38.914,0.006,0.039,1.001
2026/05/07 08:42:38.933,0.009,0.038,1.006
2026/05/07 08:42:38.953,0.009,0.038,1.003
2026/05/07 08:42:38.972,0.006,0.034,1.001
2026/05/07 08:42:38.992,0.01,0.036,0.997
2026/05/07 08:42:39.011,0.009,0.036,0.999
2026/05/07 08:42:39.031,0.006,0.037,0.999
2026/05/07 08:42:39.050,0.01,0.032,1.004
2026/05/07 08:42:39.070,0.006,0.037,1.004
2026/05/07 08:42:39.090,0.007,0.037,1.002
2026/05/07 08:42:39.109,0.008,0.037,1.004
2026/05/07 08:42:39.129,0.01,0.038,1.002
2026/05/07 08:42:39.148,0.01,0.038,1.003
2026/05/07 08:42:39.168,0.007,0.039,0.998
2026/05/07 08:42:39.187,0.01,0.038,1.002
2026/05/07 08:42:39.207,0.009,0.036,1.004
2026/05/07 08:42:39.226,0.008,0.037,1.002
2026/05/07 08:42:39.246,0.008,0.04,1.001
2026/05/07 08:42:39.265,0.007,0.036,1.004
2026/05/07 08:42:39.285,0.006,0.037,1.005
2026/05/07 08:42:39.304,0.008,0.035,1.006
2026/05/07 08:42:39.324,0.013,0.033,1.003
2026/05/07 08:42:39.344,0.008,0.038,1.005
2026/05/07 08:42:39.363,0.01,0.038,1.004
2026/05/07 08:42:39.383,0.007,0.038,1.002
2026/05/07 08:42:39.402,0.009,0.038,1.002
2026/05/07 08:42:39.422,0.006,0.037,0.998
2026/05/07 08:42:39.441,0.005,0.035,0.999
2026/05/07 08:42:39.461,0.01,0.034,0.997
2026/05/07 08:42:39.480,0.01,0.037,1.001
2026/05/07 08:42:39.500,0.008,0.038,1.0
2026/05/07 08:42:39.519,0.013,0.037,1.003
2026/05/07 08:42:39.539,0.008,0.042,1.001
2026/05/07 08:42:39.558,0.005,0.036,1.0
2026/05/07 08:42:39.578,0.008,0.036,1.003
2026/05/07 08:42:39.598,0.008,0.04,1.006
2026/05/07 08:42:39.617,0.009,0.034,1.006
2026/05/07 08:42:39.637,0.009,0.037,1.0
2026/05/07 08:42:39.656,0.008,0.035,1.005
2026/05/07 08:42:39.676,0.005,0.036,1.004
2026/05/07 08:42:39.695,0.005,0.038,1.003
2026/05/07 08:42:39.715,0.009,0.038,1.001
2026/05/07 08:42:39.734,0.007,0.04,1.001
2026/05/07 08:42:39.754,0.01,0.037,1.012
2026/05/07 08:42:39.773,0.005,0.034,1.002
2026/05/07 08:42:39.793,0.008,0.034,1.003
2026/05/07 08:42:39.813,0.006,0.037,1.008
2026/05/07 08:42:39.832,0.004,0.032,0.999
2026/05/07 08:42:39.852,0.007,0.039,1.005
2026/05/07 08:42:39.871,0.01,0.035,1.014
2026/05/07 08:42:39.891,0.01,0.037,1.011
2026/05/07 08:42:39.910,0.006,0.033,1.004
2026/05/07 08:42:39.930,0.006,0.037,1.006
2026/05/07 08:42:39.949,0.006,0.037,1.002
2026/05/07 08:42:39.969,0.01,0.035,1.005
2026/05/07 08:42:39.988,0.009,0.038,0.996
2026/05/07 08:42:40.008,0.006,0.032,1.003
2026/05/07 08:42:40.027,0.01,0.037,1.005
2026/05/07 08:42:40.047,0.005,0.038,0.998
2026/05/07 08:42:40.067,0.011,0.035,1.008
2026/05/07 08:42:40.086,0.009,0.036,1.012
2026/05/07 08:42:40.106,0.005,0.036,0.999
2026/05/07 08:42:40.125,0.007,0.034,0.999
2026/05/07 08:42:40.145,0.008,0.039,1.002
2026/05/07 08:42:40.164,0.006,0.039,0.999
2026/05/07 08:42:40.184,0.01,0.034,1.004
2026/05/07 08:42:40.203,0.009,0.036,1.001
2026/05/07 08:42:40.223,0.01,0.038,1.007
2026/05/07 08:42:40.242,0.008,0.034,1.001
2026/05/07 08:42:40.262,0.006,0.034,0.999
2026/05/07 08:42:40.282,0.01,0.037,1.005
2026/05/07 08:42:40.301,0.006,0.037,1.008
2026/05/07 08:42:40.321,0.01,0.036,1.002
2026/05/07 08:42:40.340,0.007,0.038,1.008
2026/05/07 08:42:40.360,0.01,0.037,1.002
2026/05/07 08:42:40.379,0.011,0.038,0.999
2026/05/07 08:42:40.399,0.012,0.036,1.0
2026/05/07 08:42:40.418,0.009,0.038,0.998
2026/05/07 08:42:40.438,0.009,0.036,1.003
2026/05/07 08:42:40.457,0.006,0.041,1.007
2026/05/07 08:42:40.477,0.007,0.034,0.998
2026/05/07 08:42:40.496,0.007,0.038,1.004
2026/05/07 08:42:40.516,0.007,0.038,1.001
2026/05/07 08:42:40.536,0.007,0.036,1.003
2026/05/07 08:42:40.555,0.007,0.034,1.001
2026/05/07 08:42:40.575,0.008,0.036,0.999
2026/05/07 08:42:40.594,0.009,0.037,1.005
2026/05/07 08:42:40.614,0.008,0.032,1.003
2026/05/07 08:42:40.633,0.008,0.039,1.001
2026/05/07 08:42:40.653,0.005,0.037,0.997
2026/05/07 08:42:40.672,0.006,0.035,0.996
2026/05/07 08:42:40.692,0.01,0.037,1.005
2026/05/07 08:42:40.711,0.007,0.034,1.012
2026/05/07 08:42:40.731,0.005,0.036,0.999
2026/05/07 08:42:40.751,0.007,0.038,1.007
2026/05/07 08:42:40.770,0.008,0.035,0.996
2026/05/07 08:42:40.790,0.008,0.038,1.005
2026/05/07 08:42:40.809,0.009,0.035,1.008
2026/05/07 08:42:40.829,0.005,0.036,0.998
2026/05/07 08:42:40.848,0.009,0.035,1.006
2026/05/07 08:42:40.868,0.008,0.038,0.998
2026/05/07 08:42:40.887,0.01,0.037,1.001
2026/05/07 08:42:40.907,0.009,0.034,1.0
2026/05/07 08:42:40.926,0.006,0.039,1.002
2026/05/07 08:42:40.946,0.009,0.037,1.001
2026/05/07 08:42:40.966,0.008,0.036,1.002
2026/05/07 08:42:40.985,0.01,0.036,1.002
2026/05/07 08:42:41.005,0.007,0.033,1.004
2026/05/07 08:42:41.024,0.011,0.039,1.008
2026/05/07 08:42:41.044,0.008,0.038,1.001
2026/05/07 08:42:41.063,0.004,0.037,1.001
2026/05/07 08:42:41.083,0.01,0.037,1.008
2026/05/07 08:42:41.102,0.006,0.037,1.003
2026/05/07 08:42:41.122,0.011,0.037,0.999
2026/05/07 08:42:41.141,0.009,0.039,1.002
2026/05/07 08:42:41.161,0.008,0.034,1.0
2026/05/07 08:42:41.180,0.007,0.039,1.001
2026/05/07 08:42:41.200,0.007,0.036,1.002
2026/05/07 08:42:41.220,0.006,0.036,1.003
2026/05/07 08:42:41.239,0.008,0.037,1.002
2026/05/07 08:42:41.259,0.008,0.036,1.004
2026/05/07 08:42:41.278,0.006,0.035,1.003
2026/05/07 08:42:41.298,0.006,0.036,0.998
2026/05/07 08:42:41.317,0.008,0.036,1.002
2026/05/07 08:42:41.337,0.006,0.04,1.003
2026/05/07 08:42:41.356,0.007,0.038,0.999
2026/05/07 08:42:41.376,0.006,0.039,1.002
2026/05/07 08:42:41.395,0.01,0.039,1.004
2026/05/07 08:42:41.415,0.007,0.037,1.004
2026/05/07 08:42:41.435,0.007,0.035,1.004
2026/05/07 08:42:41.454,0.005,0.035,1.0
2026/05/07 08:42:41.474,0.007,0.037,0.999
2026/05/07 08:42:41.493,0.009,0.038,0.998
2026/05/07 08:42:41.513,0.01,0.038,1.003
2026/05/07 08:42:41.532,0.01,0.036,1.002
2026/05/07 08:42:41.552,0.01,0.039,1.004
2026/05/07 08:42:41.571,0.009,0.039,1.004
2026/05/07 08:42:41.591,0.008,0.033,1.003
2026/05/07 08:42:41.610,0.007,0.039,1.004
2026/05/07 08:42:41.630,0.008,0.038,1.001
2026/05/07 08:42:41.650,0.01,0.035,1.002
2026/05/07 08:42:41.669,0.01,0.035,1.0
2026/05/07 08:42:41.689,0.006,0.038,1.001
2026/05/07 08:42:41.708,0.009,0.035,1.003
2026/05/07 08:42:41.728,0.009,0.037,1.0
2026/05/07 08:42:41.747,0.008,0.042,1.003
2026/05/07 08:42:41.767,0.007,0.038,1.001
2026/05/07 08:42:41.786,0.007,0.035,1.003
2026/05/07 08:42:41.806,0.007,0.036,1.0
2026/05/07 08:42:41.825,0.006,0.035,1.001
2026/05/07 08:42:41.845,0.009,0.039,1.005
2026/05/07 08:42:41.864,0.008,0.033,1.005
2026/05/07 08:42:41.884,0.009,0.039,1.001
2026/05/07 08:42:41.904,0.007,0.036,1.005
2026/05/07 08:42:41.923,0.009,0.04,1.004
2026/05/07 08:42:41.943,0.006,0.037,1.004
2026/05/07 08:42:41.962,0.006,0.037,1.004
2026/05/07 08:42:41.982,0.01,0.037,1.0
2026/05/07 08:42:42.001,0.008,0.042,1.001
2026/05/07 08:42:42.021,0.009,0.033,1.0
2026/05/07 08:42:42.040,0.01,0.033,0.999
2026/05/07 08:42:42.060,0.009,0.037,1.0
2026/05/07 08:42:42.079,0.01,0.038,0.999
2026/05/07 08:42:42.099,0.008,0.037,1.002
2026/05/07 08:42:42.119,0.008,0.038,1.002
2026/05/07 08:42:42.138,0.012,0.038,0.999
2026/05/07 08:42:42.158,0.009,0.038,1.003
2026/05/07 08:42:42.177,0.007,0.037,1.006
2026/05/07 08:42:42.197,0.006,0.037,1.002
2026/05/07 08:42:42.216,0.007,0.037,0.999
2026/05/07 08:42:42.236,0.009,0.038,1.006
2026/05/07 08:42:42.255,0.008,0.037,1.003
2026/05/07 08:42:42.275,0.01,0.032,1.006
2026/05/07 08:42:42.294,0.006,0.037,1.006
2026/05/07 08:42:42.314,0.005,0.036,1.0
2026/05/07 08:42:42.334,0.01,0.034,1.004
2026/05/07 08:42:42.353,0.011,0.034,1.0
2026/05/07 08:42:42.373,0.009,0.033,1.004
2026/05/07 08:42:42.392,0.008,0.036,1.006
2026/05/07 08:42:42.412,0.012,0.038,1.005
2026/05/07 08:42:42.431,0.007,0.037,1.002
2026/05/07 08:42:42.451,0.011,0.036,1.0
2026/05/07 08:42:42.470,0.006,0.035,0.999
2026/05/07 08:42:42.490,0.008,0.039,1.002
2026/05/07 08:42:42.509,0.006,0.04,1.002
2026/05/07 08:42:42.529,0.005,0.036,0.998
2026/05/07 08:42:42.548,0.009,0.036,1.004
2026/05/07 08:42:42.568,0.005,0.039,0.998
2026/05/07 08:42:42.588,0.008,0.038,1.004
2026/05/07 08:42:42.607,0.009,0.035,1.006
2026/05/07 08:42:42.627,0.007,0.036,0.999
2026/05/07 08:42:42.646,0.005,0.037,1.003
2026/05/07 08:42:42.666,0.006,0.036,0.998
2026/05/07 08:42:42.685,0.004,0.033,1.004
2026/05/07 08:42:42.705,0.008,0.034,1.004
2026/05/07 08:42:42.724,0.007,0.037,0.996
2026/05/07 08:42:42.744,0.008,0.037,1.001
2026/05/07 08:42:42.763,0.009,0.038,1.003
2026/05/07 08:42:42.783,0.008,0.036,1.0
2026/05/07 08:42:42.803,0.008,0.036,1.004
2026/05/07 08:42:42.822,0.007,0.034,1.002
2026/05/07 08:42:42.842,0.008,0.036,1.002
2026/05/07 08:42:42.861,0.01,0.037,1.002
2026/05/07 08:42:42.881,0.01,0.032,1.003
2026/05/07 08:42:42.900,0.009,0.033,1.004
2026/05/07 08:42:42.920,0.009,0.037,1.005
2026/05/07 08:42:42.939,0.011,0.039,1.004
2026/05/07 08:42:42.959,0.003,0.038,1.001
2026/05/07 08:42:42.978,0.01,0.038,1.003
2026/05/07 08:42:42.998,0.01,0.04,1.003
2026/05/07 08:42:43.018,0.01,0.037,1.003
2026/05/07 08:42:43.037,0.005,0.039,1.002
2026/05/07 08:42:43.057,0.007,0.038,1.004
2026/05/07 08:42:43.076,0.006,0.039,1.006
2026/05/07 08:42:43.096,0.007,0.04,0.997
2026/05/07 08:42:43.115,0.006,0.036,0.997
2026/05/07 08:42:43.135,0.009,0.043,1.002
2026/05/07 08:42:43.154,0.008,0.037,1.005
2026/05/07 08:42:43.174,0.005,0.036,1.003
2026/05/07 08:42:43.193,0.008,0.037,0.998
2026/05/07 08:42:43.213,0.009,0.035,1.011
2026/05/07 08:42:43.232,0.005,0.032,1.008
2026/05/07 08:42:43.252,0.008,0.033,1.004
2026/05/07 08:42:43.272,0.01,0.039,1.004
2026/05/07 08:42:43.291,0.007,0.036,1.0
2026/05/07 08:42:43.311,0.01,0.04,1.005
2026/05/07 08:42:43.330,0.01,0.038,1.004
2026/05/07 08:42:43.350,0.007,0.034,1.004
2026/05/07 08:42:43.369,0.006,0.036,1.001
2026/05/07 08:42:43.389,0.008,0.035,1.001
2026/05/07 08:42:43.408,0.005,0.039,0.998
2026/05/07 08:42:43.428,0.006,0.035,1.005
2026/05/07 08:42:43.447,0.01,0.038,1.001
2026/05/07 08:42:43.467,0.005,0.037,1.002
2026/05/07 08:42:43.487,0.01,0.038,1.004
2026/05/07 08:42:43.506,0.011,0.036,1.005
2026/05/07 08:42:43.526,0.007,0.035,1.005
2026/05/07 08:42:43.545,0.011,0.037,1.004
2026/05/07 08:42:43.565,0.009,0.036,0.998
2026/05/07 08:42:43.584,0.008,0.038,1.0
2026/05/07 08:42:43.604,0.008,0.037,1.0
2026/05/07 08:42:43.623,0.008,0.037,1.002
2026/05/07 08:42:43.643,0.006,0.038,1.004
2026/05/07 08:42:43.662,0.01,0.036,1.005
2026/05/07 08:42:43.682,0.005,0.033,1.004
2026/05/07 08:42:43.702,0.008,0.035,0.998
2026/05/07 08:42:43.721,0.008,0.036,0.999
2026/05/07 08:42:43.741,0.009,0.038,1.0
2026/05/07 08:42:43.760,0.007,0.037,1.005
2026/05/07 08:42:43.780,0.009,0.037,1.001
2026/05/07 08:42:43.799,0.01,0.035,1.003
2026/05/07 08:42:43.819,0.005,0.034,1.001
2026/05/07 08:42:43.838,0.009,0.035,1.005
2026/05/07 08:42:43.858,0.009,0.037,0.999
2026/05/07 08:42:43.877,0.007,0.037,1.003
2026/05/07 08:42:43.897,0.006,0.035,1.0
2026/05/07 08:42:43.917,0.011,0.032,1.004
2026/05/07 08:42:43.936,0.01,0.04,1.001
2026/05/07 08:42:43.956,0.009,0.034,0.996
2026/05/07 08:42:43.975,0.006,0.035,1.006
2026/05/07 08:42:43.995,0.008,0.04,1.001
2026/05/07 08:42:44.014,0.005,0.054,1.108
2026/05/07 08:42:44.034,0.008,0.04,0.999
2026/05/07 08:42:44.053,0.006,0.04,1.007
2026/05/07 08:42:44.073,0.011,0.034,1.01
2026/05/07 08:42:44.092,0.008,0.036,1.006
2026/05/07 08:42:44.112,0.012,0.032,1.005
2026/05/07 08:42:44.131,0.007,0.039,0.997
2026/05/07 08:42:44.151,0.006,0.036,1.0
2026/05/07 08:42:44.171,0.009,0.033,1.006
2026/05/07 08:42:44.190,0.007,0.038,1.003
2026/05/07 08:42:44.210,0.012,0.037,1.002
2026/05/07 08:42:44.229,0.006,0.035,1.002
2026/05/07 08:42:44.249,0.007,0.038,0.999
2026/05/07 08:42:44.268,0.008,0.035,0.999
2026/05/07 08:42:44.288,0.007,0.036,1.006
2026/05/07 08:42:44.307,0.008,0.039,1.005
2026/05/07 08:42:44.327,0.009,0.038,1.001
2026/05/07 08:42:44.346,0.008,0.036,1.006
2026/05/07 08:42:44.366,0.007,0.032,1.004
2026/05/07 08:42:44.386,0.01,0.038,1.0
2026/05/07 08:42:44.405,0.006,0.038,1.006
2026/05/07 08:42:44.425,0.01,0.035,1.0
2026/05/07 08:42:44.444,0.008,0.034,1.004
2026/05/07 08:42:44.464,0.005,0.037,1.005
2026/05/07 08:42:44.483,0.008,0.038,1.003
2026/05/07 08:42:44.503,0.006,0.037,1.004
2026/05/07 08:42:44.522,0.008,0.04,1.001
2026/05/07 08:42:44.542,0.007,0.038,1.003
2026/05/07 08:42:44.561,0.007,0.035,1.002
2026/05/07 08:42:44.581,0.01,0.036,0.999
2026/05/07 08:42:44.601,0.007,0.037,1.0
2026/05/07 08:42:44.620,0.006,0.036,1.007
2026/05/07 08:42:44.640,0.007,0.039,1.005
2026/05/07 08:42:44.659,0.007,0.038,1.006
2026/05/07 08:42:44.679,0.008,0.035,1.004
2026/05/07 08:42:44.698,0.011,0.036,1.002
2026/05/07 08:42:44.718,0.006,0.038,1.002
2026/05/07 08:42:44.737,0.005,0.035,1.0
2026/05/07 08:42:44.757,0.01,0.036,1.002
2026/05/07 08:42:44.776,0.008,0.037,1.004
2026/05/07 08:42:44.796,0.006,0.038,1.001
2026/05/07 08:42:44.816,0.006,0.035,1.002
2026/05/07 08:42:44.835,0.01,0.03,1.001
2026/05/07 08:42:44.855,0.011,0.033,1.003
2026/05/07 08:42:44.874,0.009,0.038,1.004
2026/05/07 08:42:44.894,0.004,0.033,1.001
2026/05/07 08:42:44.913,0.01,0.036,1.002
2026/05/07 08:42:44.933,0.01,0.038,0.999
2026/05/07 08:42:44.952,0.01,0.036,0.998
2026/05/07 08:42:44.972,0.01,0.035,1.006
2026/05/07 08:42:44.991,0.007,0.041,1.006
2026/05/07 08:42:45.011,0.006,0.037,1.001
2026/05/07 08:42:45.030,0.009,0.038,1.004
2026/05/07 08:42:45.050,0.007,0.038,0.999
2026/05/07 08:42:45.070,0.007,0.035,1.001
2026/05/07 08:42:45.089,0.008,0.036,1.004
2026/05/07 08:42:45.109,0.01,0.035,1.004
2026/05/07 08:42:45.128,0.004,0.036,1.003
2026/05/07 08:42:45.148,0.009,0.035,0.999
2026/05/07 08:42:45.167,0.007,0.037,1.003
2026/05/07 08:42:45.187,0.005,0.036,1.003
2026/05/07 08:42:45.206,0.012,0.037,1.001
2026/05/07 08:42:45.226,0.01,0.035,1.002
2026/05/07 08:42:45.245,0.008,0.038,1.003
2026/05/07 08:42:45.265,0.007,0.037,1.003
2026/05/07 08:42:45.285,0.01,0.04,1.0
2026/05/07 08:42:45.304,0.008,0.041,0.998
2026/05/07 08:42:45.324,0.006,0.033,1.002
2026/05/07 08:42:45.343,0.01,0.033,0.999
2026/05/07 08:42:45.363,0.01,0.041,1.004
2026/05/07 08:42:45.382,0.01,0.035,0.995
2026/05/07 08:42:45.402,0.008,0.037,0.999
2026/05/07 08:42:45.421,0.011,0.035,1.001
2026/05/07 08:42:45.441,0.007,0.036,1.001
2026/05/07 08:42:45.460,0.006,0.036,1.006
2026/05/07 08:42:45.480,0.008,0.033,0.997
2026/05/07 08:42:45.500,0.008,0.037,1.0
2026/05/07 08:42:45.519,0.007,0.035,1.006
2026/05/07 08:42:45.539,0.009,0.034,1.006
2026/05/07 08:42:45.558,0.008,0.036,1.003
2026/05/07 08:42:45.578,0.007,0.034,0.999
2026/05/07 08:42:45.597,0.008,0.031,0.998
2026/05/07 08:42:45.617,0.007,0.038,1.0
2026/05/07 08:42:45.636,0.01,0.033,0.994
2026/05/07 08:42:45.656,0.008,0.039,0.993
2026/05/07 08:42:45.675,0.009,0.033,0.991
2026/05/07 08:42:45.695,0.01,0.037,0.989
2026/05/07 08:42:45.715,0.164,-0.064,0.735
2026/05/07 08:42:45.734,-0.036,0.103,0.978
2026/05/07 08:42:45.754,-0.18,0.211,0.851
2026/05/07 08:42:45.773,0.045,-0.151,1.187
2026/05/07 08:42:45.793,-0.024,0.089,0.955
2026/05/07 08:42:45.812,0.017,0.008,1.041
2026/05/07 08:42:45.832,0.008,0.034,0.999
2026/05/07 08:42:45.851,0.01,0.04,1.004
2026/05/07 08:42:45.871,0.013,0.038,1.0
2026/05/07 08:42:45.890,0.007,0.039,1.0
2026/05/07 08:42:45.910,0.01,0.034,0.986
2026/05/07 08:42:45.930,0.012,0.039,1.017
2026/05/07 08:42:45.949,0.008,0.038,0.981
2026/05/07 08:42:45.969,0.006,0.036,1.011
2026/05/07 08:42:45.988,0.01,0.038,0.997
2026/05/07 08:42:46.008,0.007,0.037,1.002
2026/05/07 08:42:46.027,0.007,0.034,1.003
2026/05/07 08:42:46.047,0.006,0.037,1.0
2026/05/07 08:42:46.066,0.006,0.036,1.003
2026/05/07 08:42:46.086,0.008,0.037,1.002
2026/05/07 08:42:46.105,0.011,0.036,1.007
2026/05/07 08:42:46.125,0.005,0.035,0.997
2026/05/07 08:42:46.144,0.009,0.037,1.007
2026/05/07 08:42:46.164,0.007,0.037,1.004
2026/05/07 08:42:46.184,0.005,0.04,1.0
2026/05/07 08:42:46.203,0.005,0.037,1.005
2026/05/07 08:42:46.223,0.006,0.034,0.999
2026/05/07 08:42:46.242,0.01,0.036,1.005
2026/05/07 08:42:46.262,0.007,0.037,1.004
2026/05/07 08:42:46.281,0.01,0.038,1.01
2026/05/07 08:42:46.301,0.009,0.039,0.994
2026/05/07 08:42:46.320,0.006,0.039,1.0
2026/05/07 08:42:46.340,0.007,0.036,1.006
2026/05/07 08:42:46.359,0.006,0.039,1.006
2026/05/07 08:42:46.379,0.005,0.036,0.996
2026/05/07 08:42:46.399,0.009,0.036,1.002
2026/05/07 08:42:46.418,0.008,0.038,1.004
2026/05/07 08:42:46.438,0.006,0.038,1.006
2026/05/07 08:42:46.457,0.009,0.038,1.0
2026/05/07 08:42:46.477,0.008,0.034,0.999
2026/05/07 08:42:46.496,0.007,0.036,1.008
2026/05/07 08:42:46.516,0.007,0.034,1.004
2026/05/07 08:42:46.535,0.009,0.041,0.999
2026/05/07 08:42:46.555,0.01,0.033,1.0
2026/05/07 08:42:46.574,0.008,0.035,1.006
2026/05/07 08:42:46.594,0.007,0.035,0.999
2026/05/07 08:42:46.614,0.004,0.034,0.997
2026/05/07 08:42:46.633,0.008,0.039,1.005
2026/05/07 08:42:46.653,0.01,0.035,1.006
2026/05/07 08:42:46.672,0.004,0.034,1.006
2026/05/07 08:42:46.692,0.008,0.036,1.004
2026/05/07 08:42:46.711,0.005,0.032,1.006
2026/05/07 08:42:46.731,0.008,0.038,1.004
2026/05/07 08:42:46.750,0.007,0.037,1.004
2026/05/07 08:42:46.770,0.007,0.043,1.016
2026/05/07 08:42:46.789,0.013,0.045,1.005
2026/05/07 08:42:46.809,0.009,0.038,1.008
2026/05/07 08:42:46.829,0.005,0.039,0.989
2026/05/07 08:42:46.848,0.004,0.034,1.005
2026/05/07 08:42:46.868,0.005,0.035,0.993
2026/05/07 08:42:46.887,0.007,0.036,0.996
2026/05/07 08:42:46.907,0.012,0.035,1.001
2026/05/07 08:42:46.926,0.009,0.037,1.003
2026/05/07 08:42:46.946,0.008,0.039,0.999
2026/05/07 08:42:46.965,0.01,0.037,1.006
2026/05/07 08:42:46.985,0.006,0.036,1.002
2026/05/07 08:42:47.004,0.008,0.037,1.008
2026/05/07 08:42:47.024,0.009,0.034,1.002
2026/05/07 08:42:47.044,0.011,0.032,1.002
2026/05/07 08:42:47.063,0.011,0.034,1.004
2026/05/07 08:42:47.083,0.008,0.036,0.999
2026/05/07 08:42:47.102,0.007,0.039,0.998
2026/05/07 08:42:47.122,0.007,0.036,1.002
2026/05/07 08:42:47.141,0.008,0.035,1.0
2026/05/07 08:42:47.161,0.009,0.039,1.001
2026/05/07 08:42:47.180,0.01,0.035,1.0
2026/05/07 08:42:47.200,0.008,0.034,1.005
2026/05/07 08:42:47.219,0.005,0.038,1.006
2026/05/07 08:42:47.239,0.006,0.039,0.999
2026/05/07 08:42:47.258,0.007,0.031,0.996
2026/05/07 08:42:47.278,0.011,0.035,0.999
2026/05/07 08:42:47.298,0.01,0.04,1.006
2026/05/07 08:42:47.317,0.007,0.032,1.005
2026/05/07 08:42:47.337,0.012,0.038,1.003
2026/05/07 08:42:47.356,0.01,0.036,0.997
2026/05/07 08:42:47.376,0.007,0.036,1.004
2026/05/07 08:42:47.395,0.006,0.035,1.001
2026/05/07 08:42:47.415,0.01,0.036,1.008
2026/05/07 08:42:47.434,0.008,0.035,0.999
2026/05/07 08:42:47.454,0.008,0.034,1.002
2026/05/07 08:42:47.473,0.006,0.037,0.998
2026/05/07 08:42:47.493,0.007,0.033,1.003
2026/05/07 08:42:47.513,0.01,0.037,1.001
2026/05/07 08:42:47.532,0.008,0.036,1.004
2026/05/07 08:42:47.552,0.005,0.041,1.005
2026/05/07 08:42:47.571,0.009,0.035,1.006
2026/05/07 08:42:47.591,0.006,0.036,0.998
2026/05/07 08:42:47.610,0.005,0.037,1.001
2026/05/07 08:42:47.630,0.01,0.039,1.001
2026/05/07 08:42:47.649,0.008,0.034,0.994
2026/05/07 08:42:47.669,0.005,0.037,0.999
2026/05/07 08:42:47.688,0.009,0.039,1.005
2026/05/07 08:42:47.708,0.009,0.036,1.006
2026/05/07 08:42:47.728,0.008,0.042,1.001
2026/05/07 08:42:47.747,0.006,0.035,1.004
2026/05/07 08:42:47.767,0.005,0.03,1.016
2026/05/07 08:42:47.786,0.005,0.037,0.995
2026/05/07 08:42:47.806,0.009,0.042,1.0
2026/05/07 08:42:47.825,0.005,0.04,1.0
2026/05/07 08:42:47.845,0.001,0.037,1.01
2026/05/07 08:42:47.864,0.014,0.034,1.004
2026/05/07 08:42:47.884,0.011,0.036,1.0
2026/05/07 08:42:47.903,0.01,0.042,0.973
2026/05/07 08:42:47.923,0.011,0.05,0.987
2026/05/07 08:42:47.943,0.002,0.036,0.927
2026/05/07 08:42:47.962,0.014,0.053,0.996
2026/05/07 08:42:47.982,-0.003,0.03,0.99
2026/05/07 08:42:48.001,0.008,0.032,0.999
2026/05/07 08:42:48.021,0.01,0.032,1.007
2026/05/07 08:42:48.040,0.005,0.041,1.001
2026/05/07 08:42:48.060,0.012,0.039,1.0
2026/05/07 08:42:48.079,0.007,0.036,1.002
2026/05/07 08:42:48.099,0.005,0.036,0.999
2026/05/07 08:42:48.118,0.053,0.123,1.046
2026/05/07 08:42:48.138,0.008,0.191,0.957
2026/05/07 08:42:48.158,0.033,0.098,0.91
2026/05/07 08:42:48.177,0.018,-0.255,1.009
2026/05/07 08:42:48.197,0.069,0.173,0.686
2026/05/07 08:42:48.216,0.054,0.215,0.905
2026/05/07 08:42:48.236,0.042,-0.039,1.065
2026/05/07 08:42:48.255,0.023,0.043,0.994
2026/05/07 08:42:48.275,0.022,-0.075,1.034
2026/05/07 08:42:48.294,0.004,-0.031,0.973
2026/05/07 08:42:48.314,-0.005,-0.12,1.046
2026/05/07 08:42:48.333,0.006,-0.119,1.023
2026/05/07 08:42:48.353,-0.004,0.045,0.986
2026/05/07 08:42:48.373,0.003,0.036,1.002
2026/05/07 08:42:48.392,0.004,0.037,0.998
2026/05/07 08:42:48.412,0.006,0.039,1.003
2026/05/07 08:42:48.431,0.007,0.039,1.003
2026/05/07 08:42:48.451,0.009,0.034,1.004
2026/05/07 08:42:48.470,0.007,0.034,1.005
2026/05/07 08:42:48.490,0.008,0.035,0.998
2026/05/07 08:42:48.509,0.011,0.042,0.998
2026/05/07 08:42:48.529,0.006,0.035,1.004
2026/05/07 08:42:48.548,0.008,0.035,0.997
2026/05/07 08:42:48.568,0.008,0.032,1.002
2026/05/07 08:42:48.587,0.008,0.032,1.006
2026/05/07 08:42:48.607,0.007,0.037,0.999
2026/05/07 08:42:48.627,0.008,0.038,1.002
2026/05/07 08:42:48.646,0.007,0.034,0.997
2026/05/07 08:42:48.666,0.006,0.032,1.002
2026/05/07 08:42:48.685,0.008,0.037,1.002
2026/05/07 08:42:48.705,0.008,0.038,1.004
2026/05/07 08:42:48.724,0.008,0.042,0.998
2026/05/07 08:42:48.744,0.008,0.04,1.005
2026/05/07 08:42:48.763,0.009,0.039,1.002
2026/05/07 08:42:48.783,0.006,0.034,1.004
2026/05/07 08:42:48.802,0.007,0.039,0.997
2026/05/07 08:42:48.822,0.006,0.038,1.003
2026/05/07 08:42:48.842,0.01,0.037,1.0
2026/05/07 08:42:48.861,0.007,0.033,0.997
2026/05/07 08:42:48.881,0.006,0.039,1.0
2026/05/07 08:42:48.900,0.008,0.035,1.006
2026/05/07 08:42:48.920,0.011,0.038,1.002
2026/05/07 08:42:48.939,0.004,0.037,1.0
2026/05/07 08:42:48.959,0.01,0.036,1.004
2026/05/07 08:42:48.978,0.009,0.035,1.005
2026/05/07 08:42:48.998,0.008,0.04,1.0
2026/05/07 08:42:49.017,0.007,0.038,1.003
2026/05/07 08:42:49.037,0.007,0.038,1.006
2026/05/07 08:42:49.057,0.007,0.04,1.0
2026/05/07 08:42:49.076,0.002,0.038,1.005
2026/05/07 08:42:49.096,0.007,0.041,1.001
2026/05/07 08:42:49.115,0.009,0.036,1.005
2026/05/07 08:42:49.135,0.01,0.035,1.001
2026/05/07 08:42:49.154,0.007,0.036,1.006
2026/05/07 08:42:49.174,0.004,0.039,1.005
2026/05/07 08:42:49.193,0.01,0.04,0.999
2026/05/07 08:42:49.213,0.011,0.036,1.0
2026/05/07 08:42:49.232,0.01,0.034,1.004
2026/05/07 08:42:49.252,0.007,0.036,0.997
2026/05/07 08:42:49.272,0.012,0.038,1.001
2026/05/07 08:42:49.291,0.012,0.038,1.002
2026/05/07 08:42:49.311,0.008,0.04,1.003
2026/05/07 08:42:49.330,0.011,0.039,1.003
2026/05/07 08:42:49.350,0.006,0.042,1.001
2026/05/07 08:42:49.369,0.009,0.035,0.999
2026/05/07 08:42:49.389,0.008,0.04,1.002
2026/05/07 08:42:49.408,0.008,0.037,1.002
2026/05/07 08:42:49.428,0.007,0.04,0.999
2026/05/07 08:42:49.447,0.012,0.037,1.008
2026/05/07 08:42:49.467,0.009,0.038,1.002
2026/05/07 08:42:49.486,0.007,0.034,0.998
2026/05/07 08:42:49.506,0.008,0.037,0.999
2026/05/07 08:42:49.526,0.014,0.038,1.0
2026/05/07 08:42:49.545,0.01,0.039,1.004
2026/05/07 08:42:49.565,0.009,0.032,1.002
2026/05/07 08:42:49.584,0.009,0.037,1.003
2026/05/07 08:42:49.604,0.011,0.033,1.005
2026/05/07 08:42:49.623,0.006,0.04,1.0
2026/05/07 08:42:49.643,0.009,0.037,1.0
2026/05/07 08:42:49.662,0.009,0.037,1.005
2026/05/07 08:42:49.682,0.005,0.039,1.001
2026/05/07 08:42:49.701,0.008,0.042,0.998
2026/05/07 08:42:49.721,0.008,0.037,1.004
2026/05/07 08:42:49.741,0.008,0.037,1.001
2026/05/07 08:42:49.760,0.01,0.04,1.0
2026/05/07 08:42:49.780,0.01,0.038,0.993
2026/05/07 08:42:49.799,0.01,0.037,0.998
2026/05/07 08:42:49.819,0.006,0.035,1.009
2026/05/07 08:42:49.838,0.005,0.037,0.995
2026/05/07 08:42:49.858,0.01,0.038,1.001
2026/05/07 08:42:49.877,0.01,0.036,1.0
2026/05/07 08:42:49.897,0.006,0.039,0.997
2026/05/07 08:42:49.916,0.007,0.036,1.002
2026/05/07 08:42:49.936,0.009,0.038,1.002
2026/05/07 08:42:49.956,0.011,0.036,1.0
2026/05/07 08:42:49.975,0.007,0.034,1.004
2026/05/07 08:42:49.995,0.004,0.036,1.002
2026/05/07 08:42:50.014,0.011,0.037,1.002
2026/05/07 08:42:50.034,0.012,0.04,1.0
2026/05/07 08:42:50.053,0.008,0.041,1.006
2026/05/07 08:42:50.073,0.007,0.037,1.001
2026/05/07 08:42:50.092,0.008,0.039,1.0
2026/05/07 08:42:50.112,0.01,0.037,1.002
2026/05/07 08:42:50.131,0.009,0.041,1.005
2026/05/07 08:42:50.151,0.011,0.04,1.003
2026/05/07 08:42:50.170,0.008,0.036,1.006
2026/05/07 08:42:50.190,0.007,0.037,1.006
2026/05/07 08:42:50.210,0.009,0.037,1.001
2026/05/07 08:42:50.229,0.004,0.036,1.002
2026/05/07 08:42:50.249,0.009,0.035,1.007
2026/05/07 08:42:50.268,0.007,0.036,1.001
2026/05/07 08:42:50.288,0.004,0.037,0.999
2026/05/07 08:42:50.307,0.009,0.037,1.0
2026/05/07 08:42:50.327,0.004,0.036,1.001
2026/05/07 08:42:50.346,0.008,0.038,1.004
2026/05/07 08:42:50.366,0.008,0.036,1.002
2026/05/07 08:42:50.385,0.011,0.037,1.001
2026/05/07 08:42:50.405,0.005,0.037,0.999
2026/05/07 08:42:50.425,0.007,0.036,1.004
2026/05/07 08:42:50.444,0.009,0.039,1.002
2026/05/07 08:42:50.464,0.005,0.04,0.998
2026/05/07 08:42:50.483,0.007,0.033,1.003
2026/05/07 08:42:50.503,0.007,0.036,1.006
2026/05/07 08:42:50.522,0.007,0.036,1.0
2026/05/07 08:42:50.542,0.009,0.034,1.005
2026/05/07 08:42:50.561,0.013,0.037,1.005
2026/05/07 08:42:50.581,0.007,0.037,1.002
2026/05/07 08:42:50.600,0.007,0.035,1.002
2026/05/07 08:42:50.620,0.01,0.036,1.0
2026/05/07 08:42:50.640,0.008,0.036,1.002
2026/05/07 08:42:50.659,0.01,0.038,0.998
2026/05/07 08:42:50.679,0.01,0.039,1.003
2026/05/07 08:42:50.698,0.01,0.039,1.0
2026/05/07 08:42:50.718,0.008,0.037,0.998
2026/05/07 08:42:50.737,0.005,0.037,1.003
2026/05/07 08:42:50.757,0.01,0.033,1.006
2026/05/07 08:42:50.776,0.006,0.036,1.005
2026/05/07 08:42:50.796,0.006,0.038,1.006
2026/05/07 08:42:50.815,0.014,0.038,1.003
2026/05/07 08:42:50.835,0.01,0.036,1.001
2026/05/07 08:42:50.854,0.008,0.037,1.006
2026/05/07 08:42:50.874,0.006,0.037,1.0
2026/05/07 08:42:50.894,0.008,0.04,1.0
2026/05/07 08:42:50.913,0.005,0.039,1.001
2026/05/07 08:42:50.933,0.011,0.039,1.001
2026/05/07 08:42:50.952,0.007,0.036,1.001
2026/05/07 08:42:50.972,0.009,0.037,0.999
2026/05/07 08:42:50.991,0.009,0.036,1.003
2026/05/07 08:42:51.011,0.008,0.041,0.997
2026/05/07 08:42:51.030,0.01,0.038,1.001
2026/05/07 08:42:51.050,0.009,0.04,1.008
2026/05/07 08:42:51.069,0.006,0.041,1.006
2026/05/07 08:42:51.089,0.008,0.04,1.002
2026/05/07 08:42:51.109,0.009,0.035,1.009
2026/05/07 08:42:51.128,0.007,0.033,0.999
2026/05/07 08:42:51.148,0.009,0.04,1.005
2026/05/07 08:42:51.167,0.011,0.038,1.002
2026/05/07 08:42:51.187,0.008,0.037,1.002
2026/05/07 08:42:51.206,0.009,0.032,1.002
2026/05/07 08:42:51.226,0.004,0.036,1.002
2026/05/07 08:42:51.245,0.008,0.034,1.0
2026/05/07 08:42:51.265,0.006,0.038,0.999
2026/05/07 08:42:51.284,0.005,0.038,0.999
2026/05/07 08:42:51.304,0.008,0.039,1.003
2026/05/07 08:42:51.324,0.008,0.04,1.005
2026/05/07 08:42:51.343,0.004,0.034,1.001
2026/05/07 08:42:51.363,0.005,0.04,1.003
2026/05/07 08:42:51.382,0.007,0.039,1.008
2026/05/07 08:42:51.402,0.008,0.037,1.004
2026/05/07 08:42:51.421,0.008,0.037,0.999
2026/05/07 08:42:51.441,0.01,0.037,1.01
2026/05/07 08:42:51.460,0.009,0.033,1.003
2026/05/07 08:42:51.480,0.006,0.034,1.005
2026/05/07 08:42:51.499,0.022,0.056,1.017
2026/05/07 08:42:51.519,0.013,0.023,1.002
2026/05/07 08:42:51.538,0.009,0.038,1.002
2026/05/07 08:42:51.558,0.01,0.04,1.0
2026/05/07 08:42:51.578,0.006,0.041,1.001
2026/05/07 08:42:51.597,0.007,0.034,1.004
2026/05/07 08:42:51.617,0.006,0.039,1.003
2026/05/07 08:42:51.636,0.008,0.039,1.006
2026/05/07 08:42:51.656,0.008,0.033,1.003
2026/05/07 08:42:51.675,0.009,0.036,0.996
2026/05/07 08:42:51.695,-0.014,0.033,1.006
2026/05/07 08:42:51.714,0.008,0.038,1.001
2026/05/07 08:42:51.734,-0.003,0.027,1.011
2026/05/07 08:42:51.753,0.008,0.039,0.999
2026/05/07 08:42:51.773,-0.004,0.036,0.999
2026/05/07 08:42:51.793,0.02,0.031,0.983
2026/05/07 08:42:51.812,0.01,0.045,1.026
2026/05/07 08:42:51.832,0.002,0.03,1.005
2026/05/07 08:42:51.851,0.009,0.036,1.0
2026/05/07 08:42:51.871,0.005,0.04,1.003
2026/05/07 08:42:51.890,0.01,0.034,1.006
2026/05/07 08:42:51.910,0.007,0.037,0.999
2026/05/07 08:42:51.929,0.003,0.038,0.994
2026/05/07 08:42:51.949,0.005,0.037,0.998
2026/05/07 08:42:51.968,0.005,0.037,1.009
2026/05/07 08:42:51.988,0.009,0.038,0.996
2026/05/07 08:42:52.008,0.008,0.037,1.006
2026/05/07 08:42:52.027,0.005,0.035,1.001
2026/05/07 08:42:52.047,0.008,0.038,0.999
2026/05/07 08:42:52.066,0.011,0.038,1.013
2026/05/07 08:42:52.086,0.006,0.037,0.999
2026/05/07 08:42:52.105,0.008,0.037,0.999
2026/05/07 08:42:52.125,0.006,0.038,0.998
2026/05/07 08:42:52.144,0.006,0.036,1.003
2026/05/07 08:42:52.164,0.009,0.035,1.005
2026/05/07 08:42:52.183,0.007,0.033,1.007
2026/05/07 08:42:52.203,0.008,0.041,1.006
2026/05/07 08:42:52.222,0.004,0.036,1.004
2026/05/07 08:42:52.242,0.01,0.037,1.006
2026/05/07 08:42:52.262,0.006,0.038,0.997
2026/05/07 08:42:52.281,0.007,0.036,1.002
2026/05/07 08:42:52.301,0.009,0.038,1.002
2026/05/07 08:42:52.320,0.006,0.033,1.0
2026/05/07 08:42:52.340,0.008,0.037,1.007
2026/05/07 08:42:52.359,0.007,0.039,1.002
2026/05/07 08:42:52.379,0.01,0.036,1.002
2026/05/07 08:42:52.398,0.01,0.039,0.997
2026/05/07 08:42:52.418,0.005,0.038,0.998
2026/05/07 08:42:52.437,0.007,0.035,1.0
2026/05/07 08:42:52.457,0.002,0.034,1.081
2026/05/07 08:42:52.477,-0.001,0.035,1.006
2026/05/07 08:42:52.496,-0.002,0.034,0.998
2026/05/07 08:42:52.516,0.005,0.038,0.997
2026/05/07 08:42:52.535,0.005,0.038,1.01
2026/05/07 08:42:52.555,0.002,0.04,1.003
2026/05/07 08:42:52.574,0.001,0.033,1.004
2026/05/07 08:42:52.594,0.01,0.036,0.995
2026/05/07 08:42:52.613,0.007,0.038,1.003
2026/05/07 08:42:52.633,0.008,0.041,1.003
2026/05/07 08:42:52.652,0.007,0.041,1.0
2026/05/07 08:42:52.672,0.007,0.035,0.999
2026/05/07 08:42:52.692,0.005,0.037,1.006
2026/05/07 08:42:52.711,0.007,0.035,1.005
2026/05/07 08:42:52.731,0.009,0.037,1.002
2026/05/07 08:42:52.750,0.012,0.039,1.003
2026/05/07 08:42:52.770,0.006,0.038,0.998
2026/05/07 08:42:52.789,0.008,0.035,1.006
2026/05/07 08:42:52.809,0.006,0.037,1.002
2026/05/07 08:42:52.828,0.007,0.033,1.0
2026/05/07 08:42:52.848,0.006,0.036,1.001
2026/05/07 08:42:52.867,0.009,0.037,1.005
2026/05/07 08:42:52.887,0.012,0.037,1.003
2026/05/07 08:42:52.906,0.01,0.035,1.006
2026/05/07 08:42:52.926,0.009,0.038,1.007
2026/05/07 08:42:52.946,0.008,0.037,1.004
2026/05/07 08:42:52.965,0.01,0.036,1.001
2026/05/07 08:42:52.985,0.008,0.033,1.008
2026/05/07 08:42:53.004,0.01,0.038,1.005
2026/05/07 08:42:53.024,0.008,0.041,0.997
2026/05/07 08:42:53.043,0.005,0.037,1.002
2026/05/07 08:42:53.063,0.007,0.037,1.009
2026/05/07 08:42:53.082,0.01,0.037,1.001
2026/05/07 08:42:53.102,0.008,0.038,1.006
2026/05/07 08:42:53.121,0.007,0.038,1.0
2026/05/07 08:42:53.141,0.008,0.038,0.998
2026/05/07 08:42:53.161,0.01,0.038,1.008
2026/05/07 08:42:53.180,0.01,0.035,1.003
2026/05/07 08:42:53.200,0.008,0.038,1.004
2026/05/07 08:42:53.219,0.006,0.038,0.999
2026/05/07 08:42:53.239,0.009,0.038,1.002
2026/05/07 08:42:53.258,0.009,0.034,1.007
2026/05/07 08:42:53.278,0.007,0.039,0.999
2026/05/07 08:42:53.297,0.008,0.042,1.008
2026/05/07 08:42:53.317,0.008,0.039,1.008
2026/05/07 08:42:53.336,0.003,0.036,1.001
2026/05/07 08:42:53.356,0.007,0.037,1.005
2026/05/07 08:42:53.376,0.007,0.038,1.006
2026/05/07 08:42:53.395,0.009,0.039,1.008
2026/05/07 08:42:53.415,0.01,0.041,1.004
2026/05/07 08:42:53.434,0.007,0.036,1.001
2026/05/07 08:42:53.454,0.004,0.039,1.0
2026/05/07 08:42:53.473,0.006,0.035,1.0
2026/05/07 08:42:53.493,0.01,0.037,1.0
2026/05/07 08:42:53.512,0.007,0.038,1.0
2026/05/07 08:42:53.532,0.008,0.039,1.005
2026/05/07 08:42:53.551,0.008,0.038,1.001
2026/05/07 08:42:53.571,0.007,0.039,1.002
2026/05/07 08:42:53.590,0.007,0.035,1.0
2026/05/07 08:42:53.610,0.007,0.041,1.003
2026/05/07 08:42:53.630,0.009,0.037,1.003
2026/05/07 08:42:53.649,0.007,0.033,1.003
2026/05/07 08:42:53.669,0.007,0.039,1.002
2026/05/07 08:42:53.688,0.008,0.036,1.007
2026/05/07 08:42:53.708,0.01,0.037,1.004
2026/05/07 08:42:53.727,0.004,0.038,1.004
2026/05/07 08:42:53.747,0.005,0.035,1.004
2026/05/07 08:42:53.766,0.007,0.038,1.006
2026/05/07 08:42:53.786,0.006,0.038,0.997
2026/05/07 08:42:53.805,0.007,0.039,0.999
2026/05/07 08:42:53.825,0.01,0.039,1.006
2026/05/07 08:42:53.845,0.011,0.04,1.001
2026/05/07 08:42:53.864,0.007,0.035,1.004
2026/05/07 08:42:53.884,0.006,0.039,0.998
2026/05/07 08:42:53.903,0.009,0.04,1.005
2026/05/07 08:42:53.923,0.01,0.039,1.006
2026/05/07 08:42:53.942,0.008,0.04,1.0
2026/05/07 08:42:53.962,0.009,0.036,1.002
2026/05/07 08:42:53.981,0.009,0.039,0.999
2026/05/07 08:42:54.001,0.006,0.036,1.002
2026/05/07 08:42:54.020,0.01,0.037,1.003
2026/05/07 08:42:54.040,0.004,0.038,1.005
2026/05/07 08:42:54.060,0.013,0.037,1.003
2026/05/07 08:42:54.079,0.005,0.038,1.005
2026/05/07 08:42:54.099,0.006,0.032,1.002
2026/05/07 08:42:54.118,0.008,0.036,1.005
2026/05/07 08:42:54.138,0.007,0.039,0.999
2026/05/07 08:42:54.157,0.007,0.04,1.0
2026/05/07 08:42:54.177,0.004,0.039,0.996
2026/05/07 08:42:54.196,0.009,0.034,1.001
2026/05/07 08:42:54.216,0.008,0.035,1.007
2026/05/07 08:42:54.235,0.01,0.034,1.009
2026/05/07 08:42:54.255,0.008,0.04,0.998
2026/05/07 08:42:54.274,0.006,0.037,1.002
2026/05/07 08:42:54.294,0.009,0.036,1.007
2026/05/07 08:42:54.314,0.01,0.036,1.003
2026/05/07 08:42:54.333,0.008,0.04,1.001
2026/05/07 08:42:54.353,0.008,0.042,1.005
2026/05/07 08:42:54.372,0.005,0.035,0.995
2026/05/07 08:42:54.392,0.006,0.036,0.999
2026/05/07 08:42:54.411,0.006,0.037,1.0
2026/05/07 08:42:54.431,0.008,0.035,1.005
2026/05/07 08:42:54.450,0.01,0.039,1.005
2026/05/07 08:42:54.470,0.01,0.037,1.003
2026/05/07 08:42:54.489,0.007,0.037,1.003
2026/05/07 08:42:54.509,0.006,0.041,1.005
2026/05/07 08:42:54.529,0.01,0.036,1.004
2026/05/07 08:42:54.548,0.012,0.038,0.999
2026/05/07 08:42:54.568,0.01,0.037,0.999
2026/05/07 08:42:54.587,0.007,0.04,1.0
2026/05/07 08:42:54.607,0.007,0.04,1.006
2026/05/07 08:42:54.626,0.007,0.037,0.994
2026/05/07 08:42:54.646,0.007,0.039,1.004
2026/05/07 08:42:54.665,0.004,0.034,1.004
2026/05/07 08:42:54.685,0.008,0.039,0.998
2026/05/07 08:42:54.704,0.009,0.038,1.002
2026/05/07 08:42:54.724,0.009,0.037,1.004
2026/05/07 08:42:54.744,0.007,0.035,1.006
2026/05/07 08:42:54.763,0.006,0.036,1.003
2026/05/07 08:42:54.783,0.007,0.039,0.997
2026/05/07 08:42:54.802,0.007,0.039,1.001
2026/05/07 08:42:54.822,0.008,0.039,1.001
2026/05/07 08:42:54.841,0.006,0.042,0.998
2026/05/07 08:42:54.861,0.008,0.037,1.006
2026/05/07 08:42:54.880,0.009,0.034,1.002
2026/05/07 08:42:54.900,0.012,0.04,1.002
2026/05/07 08:42:54.919,0.005,0.037,1.001
2026/05/07 08:42:54.939,0.006,0.041,1.002
2026/05/07 08:42:54.958,0.009,0.039,1.005
2026/05/07 08:42:54.978,0.008,0.035,1.002
2026/05/07 08:42:54.998,0.007,0.037,1.002
2026/05/07 08:42:55.017,0.007,0.036,1.002
2026/05/07 08:42:55.037,0.007,0.044,1.004
2026/05/07 08:42:55.056,0.009,0.035,1.001
2026/05/07 08:42:55.076,0.009,0.038,1.003
2026/05/07 08:42:55.095,0.009,0.037,1.003
2026/05/07 08:42:55.115,0.006,0.037,1.002
2026/05/07 08:42:55.134,0.008,0.035,1.003
2026/05/07 08:42:55.154,0.005,0.039,1.001
2026/05/07 08:42:55.173,0.006,0.039,1.003
2026/05/07 08:42:55.193,0.008,0.037,1.004
2026/05/07 08:42:55.213,0.008,0.038,1.003
2026/05/07 08:42:55.232,0.006,0.033,1.003
2026/05/07 08:42:55.252,0.009,0.035,1.0
2026/05/07 08:42:55.271,0.009,0.037,1.002
2026/05/07 08:42:55.291,0.007,0.037,0.999
2026/05/07 08:42:55.310,0.009,0.037,1.005
2026/05/07 08:42:55.330,0.01,0.038,1.007
2026/05/07 08:42:55.349,0.007,0.035,0.998
2026/05/07 08:42:55.369,0.007,0.035,1.002
2026/05/07 08:42:55.388,0.008,0.037,1.004
2026/05/07 08:42:55.408,0.007,0.038,1.001
2026/05/07 08:42:55.428,0.009,0.04,1.005
2026/05/07 08:42:55.447,0.008,0.039,1.002
2026/05/07 08:42:55.467,0.009,0.039,1.004
2026/05/07 08:42:55.486,0.008,0.036,1.002
2026/05/07 08:42:55.506,0.005,0.038,0.999
2026/05/07 08:42:55.525,0.009,0.04,1.001
2026/05/07 08:42:55.545,0.008,0.036,1.005
2026/05/07 08:42:55.564,0.01,0.038,0.999
2026/05/07 08:42:55.584,0.009,0.032,0.999
2026/05/07 08:42:55.603,0.008,0.037,1.002
2026/05/07 08:42:55.623,0.007,0.037,1.006
2026/05/07 08:42:55.642,0.008,0.041,1.0
2026/05/07 08:42:55.662,0.01,0.035,1.003
2026/05/07 08:42:55.682,0.002,0.039,1.004
2026/05/07 08:42:55.701,0.009,0.04,1.005
2026/05/07 08:42:55.721,0.007,0.039,1.0
2026/05/07 08:42:55.740,0.007,0.037,0.998
2026/05/07 08:42:55.760,0.007,0.036,1.005
2026/05/07 08:42:55.779,0.006,0.037,1.005
2026/05/07 08:42:55.799,0.007,0.039,1.001
2026/05/07 08:42:55.818,0.004,0.036,1.004
2026/05/07 08:42:55.838,0.006,0.037,1.005
2026/05/07 08:42:55.857,0.005,0.036,1.001
2026/05/07 08:42:55.877,0.009,0.04,1.002
2026/05/07 08:42:55.897,0.004,0.034,0.999
2026/05/07 08:42:55.916,0.009,0.036,1.0
2026/05/07 08:42:55.936,0.008,0.037,1.002
2026/05/07 08:42:55.955,0.005,0.036,0.997
2026/05/07 08:42:55.975,0.005,0.037,1.005
2026/05/07 08:42:55.994,0.005,0.036,1.004
2026/05/07 08:42:56.014,0.007,0.038,1.0
2026/05/07 08:42:56.033,0.006,0.041,0.998
2026/05/07 08:42:56.053,0.01,0.04,1.007
2026/05/07 08:42:56.072,0.007,0.037,1.0
2026/05/07 08:42:56.092,0.008,0.038,1.004
2026/05/07 08:42:56.112,0.01,0.038,1.001
2026/05/07 08:42:56.131,0.007,0.037,1.002
2026/05/07 08:42:56.151,0.008,0.039,1.002
2026/05/07 08:42:56.170,0.008,0.036,1.002
2026/05/07 08:42:56.190,0.008,0.036,1.006
2026/05/07 08:42:56.209,0.008,0.038,1.003
2026/05/07 08:42:56.229,0.008,0.034,1.0
2026/05/07 08:42:56.248,0.009,0.037,1.002
2026/05/07 08:42:56.268,0.008,0.036,1.002
2026/05/07 08:42:56.287,0.008,0.039,1.001
2026/05/07 08:42:56.307,0.007,0.038,1.004
2026/05/07 08:42:56.326,0.005,0.034,0.999
2026/05/07 08:42:56.346,0.009,0.039,0.998
2026/05/07 08:42:56.366,0.008,0.038,1.004
2026/05/07 08:42:56.385,0.009,0.041,1.001
2026/05/07 08:42:56.405,0.01,0.034,1.003
2026/05/07 08:42:56.424,0.006,0.04,0.999
2026/05/07 08:42:56.444,0.008,0.034,1.001
2026/05/07 08:42:56.463,0.004,0.039,1.001
2026/05/07 08:42:56.483,0.007,0.037,1.004
2026/05/07 08:42:56.502,0.008,0.036,1.006
2026/05/07 08:42:56.522,0.007,0.038,1.007
2026/05/07 08:42:56.541,0.009,0.039,0.997
2026/05/07 08:42:56.561,0.006,0.038,0.997
2026/05/07 08:42:56.581,0.009,0.037,1.005
2026/05/07 08:42:56.600,0.008,0.04,1.001
2026/05/07 08:42:56.620,0.007,0.034,0.998
2026/05/07 08:42:56.639,0.004,0.038,1.003
2026/05/07 08:42:56.659,0.009,0.04,1.004
2026/05/07 08:42:56.678,0.008,0.037,1.005
2026/05/07 08:42:56.698,0.007,0.036,1.005
2026/05/07 08:42:56.717,0.01,0.035,1.005
2026/05/07 08:42:56.737,0.01,0.033,1.005
2026/05/07 08:42:56.756,0.006,0.039,1.003
2026/05/07 08:42:56.776,0.01,0.038,1.002
2026/05/07 08:42:56.796,0.007,0.038,1.002
2026/05/07 08:42:56.815,0.007,0.035,1.0
2026/05/07 08:42:56.835,0.005,0.039,1.002
2026/05/07 08:42:56.854,0.007,0.036,1.004
2026/05/07 08:42:56.874,0.006,0.04,1.002
2026/05/07 08:42:56.893,0.01,0.037,1.0
2026/05/07 08:42:56.913,0.011,0.035,1.003
2026/05/07 08:42:56.932,0.011,0.04,1.002
2026/05/07 08:42:56.952,0.005,0.033,1.004
2026/05/07 08:42:56.971,0.005,0.036,1.003
2026/05/07 08:42:56.991,0.007,0.037,1.001
2026/05/07 08:42:57.010,0.009,0.038,1.004
2026/05/07 08:42:57.030,0.008,0.035,0.998
2026/05/07 08:42:57.050,0.009,0.032,1.005
2026/05/07 08:42:57.069,0.007,0.037,0.999
2026/05/07 08:42:57.089,0.006,0.038,1.001
2026/05/07 08:42:57.108,0.007,0.038,1.001
2026/05/07 08:42:57.128,0.007,0.037,0.996
2026/05/07 08:42:57.147,0.006,0.037,1.0
2026/05/07 08:42:57.167,0.007,0.035,1.004
2026/05/07 08:42:57.186,0.009,0.036,1.004
2026/05/07 08:42:57.206,0.009,0.037,1.004
2026/05/07 08:42:57.225,0.008,0.039,1.0
2026/05/07 08:42:57.245,0.006,0.039,0.999
2026/05/07 08:42:57.265,0.004,0.036,1.006
2026/05/07 08:42:57.284,0.006,0.039,1.002
2026/05/07 08:42:57.304,0.006,0.038,1.001
2026/05/07 08:42:57.323,0.007,0.035,1.002
2026/05/07 08:42:57.343,0.009,0.037,1.001
2026/05/07 08:42:57.362,0.008,0.039,1.001
2026/05/07 08:42:57.382,0.009,0.042,1.005
2026/05/07 08:42:57.401,0.008,0.037,1.004
2026/05/07 08:42:57.421,0.008,0.038,1.001
2026/05/07 08:42:57.440,0.008,0.039,1.0
2026/05/07 08:42:57.460,0.009,0.037,1.001
2026/05/07 08:42:57.479,0.012,0.039,1.004
2026/05/07 08:42:57.499,0.003,0.034,1.002
2026/05/07 08:42:57.519,0.007,0.034,1.004
2026/05/07 08:42:57.538,0.005,0.035,1.0
2026/05/07 08:42:57.558,0.006,0.041,0.996
2026/05/07 08:42:57.577,0.008,0.033,1.0
2026/05/07 08:42:57.597,0.008,0.036,1.004
2026/05/07 08:42:57.616,0.007,0.039,1.004
2026/05/07 08:42:57.636,0.01,0.039,1.001
2026/05/07 08:42:57.655,0.009,0.036,0.999
2026/05/07 08:42:57.675,0.009,0.039,0.999
2026/05/07 08:42:57.694,0.008,0.038,1.0
2026/05/07 08:42:57.714,0.01,0.037,1.002
2026/05/07 08:42:57.734,0.009,0.036,1.002
2026/05/07 08:42:57.753,0.007,0.036,1.001
2026/05/07 08:42:57.773,0.007,0.035,1.002
2026/05/07 08:42:57.792,0.006,0.037,1.0
2026/05/07 08:42:57.812,0.008,0.036,1.002
2026/05/07 08:42:57.831,0.007,0.036,1.0
2026/05/07 08:42:57.851,0.007,0.039,1.005
2026/05/07 08:42:57.870,0.009,0.04,1.004
2026/05/07 08:42:57.890,0.01,0.037,1.0
2026/05/07 08:42:57.909,0.009,0.039,1.002
2026/05/07 08:42:57.929,0.006,0.034,1.007
2026/05/07 08:42:57.949,0.006,0.038,1.001
2026/05/07 08:42:57.968,0.01,0.036,1.0
2026/05/07 08:42:57.988,0.005,0.04,1.002
2026/05/07 08:42:58.007,0.006,0.038,1.005
2026/05/07 08:42:58.027,0.006,0.037,0.997
2026/05/07 08:42:58.046,0.008,0.036,0.999
2026/05/07 08:42:58.066,0.006,0.037,0.999
2026/05/07 08:42:58.085,0.008,0.034,1.007
2026/05/07 08:42:58.105,0.011,0.038,1.002
2026/05/07 08:42:58.124,0.003,0.039,0.997
2026/05/07 08:42:58.144,0.005,0.031,1.003
2026/05/07 08:42:58.163,0.006,0.038,1.0
2026/05/07 08:42:58.183,0.005,0.041,1.005
2026/05/07 08:42:58.203,0.01,0.037,1.0
2026/05/07 08:42:58.222,0.005,0.036,0.999
2026/05/07 08:42:58.242,0.008,0.039,1.004
2026/05/07 08:42:58.261,0.004,0.039,1.001
2026/05/07 08:42:58.281,0.01,0.039,1.004
2026/05/07 08:42:58.300,0.005,0.039,1.004
2026/05/07 08:42:58.320,0.007,0.035,0.994
2026/05/07 08:42:58.339,0.007,0.039,1.006
2026/05/07 08:42:58.359,0.008,0.038,1.01
2026/05/07 08:42:58.378,0.01,0.033,1.006
2026/05/07 08:42:58.398,0.01,0.036,0.999
2026/05/07 08:42:58.418,0.011,0.036,1.002
2026/05/07 08:42:58.437,0.005,0.039,1.007
2026/05/07 08:42:58.457,0.01,0.036,1.004
2026/05/07 08:42:58.476,0.008,0.036,1.003
2026/05/07 08:42:58.496,0.009,0.037,1.002
2026/05/07 08:42:58.515,0.006,0.035,1.0
2026/05/07 08:42:58.535,0.007,0.04,1.002
2026/05/07 08:42:58.554,0.006,0.032,0.996
2026/05/07 08:42:58.574,0.006,0.038,1.013
2026/05/07 08:42:58.593,0.007,0.036,1.005
2026/05/07 08:42:58.613,0.007,0.04,0.998
2026/05/07 08:42:58.632,0.005,0.039,0.998
2026/05/07 08:42:58.652,0.006,0.036,1.009
2026/05/07 08:42:58.672,0.005,0.037,1.002
2026/05/07 08:42:58.691,0.008,0.035,1.007
2026/05/07 08:42:58.711,0.008,0.036,0.999
2026/05/07 08:42:58.730,0.01,0.039,1.005
2026/05/07 08:42:58.750,0.008,0.039,1.006
2026/05/07 08:42:58.769,0.009,0.036,0.996
2026/05/07 08:42:58.789,0.007,0.038,1.01
2026/05/07 08:42:58.808,0.01,0.036,1.004
2026/05/07 08:42:58.828,0.01,0.035,1.006
2026/05/07 08:42:58.847,0.004,0.04,1.003
2026/05/07 08:42:58.867,0.01,0.038,1.003
2026/05/07 08:42:58.887,0.009,0.037,0.999
2026/05/07 08:42:58.906,0.008,0.039,0.995
2026/05/07 08:42:58.926,0.007,0.038,1.003
2026/05/07 08:42:58.945,0.008,0.036,1.01
2026/05/07 08:42:58.965,0.007,0.035,1.006
2026/05/07 08:42:58.984,0.009,0.04,1.0
2026/05/07 08:42:59.004,0.007,0.037,1.004
2026/05/07 08:42:59.023,0.009,0.034,1.006
2026/05/07 08:42:59.043,0.006,0.038,0.998
2026/05/07 08:42:59.062,0.008,0.037,1.003
2026/05/07 08:42:59.082,0.009,0.037,1.006
2026/05/07 08:42:59.101,-0.193,-0.268,0.941
2026/05/07 08:42:59.121,-0.107,-0.069,0.907
2026/05/07 08:42:59.141,-0.004,0.118,0.929
2026/05/07 08:42:59.160,-0.059,0.068,0.887
2026/05/07 08:42:59.180,0.012,-0.034,1.086
2026/05/07 08:42:59.199,0.153,0.176,1.093
2026/05/07 08:42:59.219,0.006,0.133,1.127
2026/05/07 08:42:59.238,0.008,0.129,1.012
2026/05/07 08:42:59.258,-0.001,0.038,1.012
2026/05/07 08:42:59.277,0.015,0.036,1.014
2026/05/07 08:42:59.297,0.007,0.033,0.998
2026/05/07 08:42:59.316,0.014,0.04,1.002
2026/05/07 08:42:59.336,0.014,0.023,1.026
2026/05/07 08:42:59.356,0.014,0.052,0.968
2026/05/07 08:42:59.375,0.009,0.041,1.007
2026/05/07 08:42:59.395,0.004,0.032,1.007
2026/05/07 08:42:59.414,0.006,0.036,0.995
2026/05/07 08:42:59.434,0.012,0.04,1.013
2026/05/07 08:42:59.453,0.009,0.032,1.01
2026/05/07 08:42:59.473,0.005,0.037,0.991
2026/05/07 08:42:59.492,0.007,0.032,1.01
2026/05/07 08:42:59.512,0.015,0.036,1.003
2026/05/07 08:42:59.531,0.011,0.038,0.998
2026/05/07 08:42:59.551,0.01,0.036,0.997
2026/05/07 08:42:59.570,0.012,0.037,1.008
2026/05/07 08:42:59.590,0.004,0.033,1.002
2026/05/07 08:42:59.610,0.009,0.036,0.999
2026/05/07 08:42:59.629,0.03,0.057,1.021
2026/05/07 08:42:59.649,-0.003,0.037,1.016
2026/05/07 08:42:59.668,0.005,0.02,1.053
2026/05/07 08:42:59.688,0.014,0.044,0.975
2026/05/07 08:42:59.707,0.013,0.045,0.984
2026/05/07 08:42:59.727,0.003,0.037,1.008
2026/05/07 08:42:59.746,0.008,0.03,1.006
2026/05/07 08:42:59.766,0.006,0.04,1.005
2026/05/07 08:42:59.785,0.01,0.038,1.001
2026/05/07 08:42:59.805,0.011,0.036,1.009
2026/05/07 08:42:59.825,0.014,0.041,0.995
2026/05/07 08:42:59.844,0.017,0.035,1.021
2026/05/07 08:42:59.864,0.009,0.029,0.994
2026/05/07 08:42:59.883,0.012,0.046,0.982
2026/05/07 08:42:59.903,0.011,0.036,1.003
2026/05/07 08:42:59.922,0.01,0.038,0.997
2026/05/07 08:42:59.942,0.009,0.032,1.002
2026/05/07 08:42:59.961,0.009,0.037,1.005
2026/05/07 08:42:59.981,0.01,0.041,0.997
2026/05/07 08:43:00.000,0.007,0.035,1.009
2026/05/07 08:43:00.020,0.012,0.037,1.004
2026/05/07 08:43:00.039,0.01,0.038,1.0
2026/05/07 08:43:00.059,0.006,0.036,1.005
2026/05/07 08:43:00.079,0.006,0.038,1.001
2026/05/07 08:43:00.098,0.01,0.036,1.001
2026/05/07 08:43:00.118,0.012,0.037,1.0
2026/05/07 08:43:00.137,0.014,0.035,1.007
2026/05/07 08:43:00.157,0.005,0.041,1.004
2026/05/07 08:43:00.176,0.007,0.036,1.002
2026/05/07 08:43:00.196,0.012,0.036,1.007
2026/05/07 08:43:00.215,0.004,0.036,0.994
2026/05/07 08:43:00.235,0.006,0.038,0.998
2026/05/07 08:43:00.254,0.008,0.036,1.001
2026/05/07 08:43:00.274,0.008,0.039,0.996
2026/05/07 08:43:00.294,0.003,0.038,1.003
2026/05/07 08:43:00.313,0.001,0.031,0.997
2026/05/07 08:43:00.333,0.008,0.038,0.987
2026/05/07 08:43:00.352,0.009,0.025,0.994
2026/05/07 08:43:00.372,0.011,0.037,1.023
2026/05/07 08:43:00.391,0.012,0.036,1.015
2026/05/07 08:43:00.411,0.012,0.036,1.0
2026/05/07 08:43:00.430,0.011,0.037,1.003
2026/05/07 08:43:00.450,0.009,0.037,1.0
2026/05/07 08:43:00.469,0.013,0.036,1.025
2026/05/07 08:43:00.489,0.01,0.035,1.001
2026/05/07 08:43:00.508,0.011,0.037,1.006
2026/05/07 08:43:00.528,0.009,0.036,1.004
2026/05/07 08:43:00.548,0.022,0.049,1.08
2026/05/07 08:43:00.567,0.005,0.036,0.981
2026/05/07 08:43:00.587,0.012,0.04,1.009
2026/05/07 08:43:00.606,0.01,0.035,1.006
2026/05/07 08:43:00.626,-0.005,0.034,1.019
2026/05/07 08:43:00.645,0.011,0.041,1.006
2026/05/07 08:43:00.665,0.009,0.036,1.007
2026/05/07 08:43:00.684,0.012,0.041,1.009
2026/05/07 08:43:00.704,0.009,0.036,1.0
2026/05/07 08:43:00.723,0.009,0.039,1.0
2026/05/07 08:43:00.743,0.008,0.035,0.998
2026/05/07 08:43:00.763,0.008,0.042,1.007
2026/05/07 08:43:00.782,0.012,0.038,1.009
2026/05/07 08:43:00.802,0.009,0.036,1.004
2026/05/07 08:43:00.821,0.011,0.038,1.004
2026/05/07 08:43:00.841,0.007,0.037,0.999
2026/05/07 08:43:00.860,0.008,0.04,1.003
2026/05/07 08:43:00.880,0.011,0.036,1.0
2026/05/07 08:43:00.899,0.01,0.037,1.002
2026/05/07 08:43:00.919,0.013,0.036,1.006
2026/05/07 08:43:00.938,0.009,0.037,1.0
2026/05/07 08:43:00.958,0.009,0.038,1.012
2026/05/07 08:43:00.978,0.007,0.04,1.004
2026/05/07 08:43:00.997,0.008,0.037,0.997
2026/05/07 08:43:01.017,0.012,0.037,0.99
2026/05/07 08:43:01.036,0.009,0.039,0.997
2026/05/07 08:43:01.056,0.012,0.038,1.01
2026/05/07 08:43:01.075,0.009,0.035,1.003
2026/05/07 08:43:01.095,0.007,0.033,0.993
2026/05/07 08:43:01.114,0.01,0.036,0.997
2026/05/07 08:43:01.134,0.011,0.042,1.007
2026/05/07 08:43:01.153,0.011,0.036,1.002
2026/05/07 08:43:01.173,0.01,0.037,1.004
2026/05/07 08:43:01.192,0.007,0.038,1.0
2026/05/07 08:43:01.212,0.008,0.034,1.001
2026/05/07 08:43:01.232,0.008,0.038,1.003
2026/05/07 08:43:01.251,0.009,0.039,1.0
2026/05/07 08:43:01.271,0.012,0.036,1.002
2026/05/07 08:43:01.290,0.011,0.035,1.0
2026/05/07 08:43:01.310,0.01,0.036,0.999
2026/05/07 08:43:01.329,0.01,0.038,1.0
2026/05/07 08:43:01.349,0.011,0.039,1.001
2026/05/07 08:43:01.368,0.009,0.034,0.999
2026/05/07 08:43:01.388,0.009,0.035,1.002
2026/05/07 08:43:01.407,0.008,0.034,1.001
2026/05/07 08:43:01.427,0.007,0.038,1.003
2026/05/07 08:43:01.447,0.013,0.035,1.001
2026/05/07 08:43:01.466,0.009,0.04,1.004
2026/05/07 08:43:01.486,0.007,0.039,1.002
2026/05/07 08:43:01.505,0.007,0.038,0.996
2026/05/07 08:43:01.525,0.008,0.038,1.005
2026/05/07 08:43:01.544,0.009,0.04,1.001
2026/05/07 08:43:01.564,0.01,0.042,1.0
2026/05/07 08:43:01.583,0.013,0.035,1.002
2026/05/07 08:43:01.603,0.009,0.038,0.999
2026/05/07 08:43:01.622,0.01,0.039,1.004
2026/05/07 08:43:01.642,0.01,0.039,1.004
2026/05/07 08:43:01.662,0.009,0.038,1.004
2026/05/07 08:43:01.681,0.01,0.04,0.999
2026/05/07 08:43:01.701,0.01,0.042,1.006
2026/05/07 08:43:01.720,0.009,0.036,0.998
2026/05/07 08:43:01.740,0.006,0.037,1.008
2026/05/07 08:43:01.759,0.01,0.037,1.004
2026/05/07 08:43:01.779,0.014,0.037,0.998
2026/05/07 08:43:01.798,0.009,0.041,1.004
2026/05/07 08:43:01.818,0.01,0.034,0.999
2026/05/07 08:43:01.837,0.011,0.037,1.001
2026/05/07 08:43:01.857,0.007,0.035,1.001
2026/05/07 08:43:01.876,0.007,0.036,1.005
2026/05/07 08:43:01.896,0.007,0.037,1.001
2026/05/07 08:43:01.916,0.006,0.038,1.004
2026/05/07 08:43:01.935,0.01,0.032,1.006
2026/05/07 08:43:01.955,0.011,0.038,1.003
2026/05/07 08:43:01.974,0.011,0.039,1.002
2026/05/07 08:43:01.994,0.009,0.037,1.003
2026/05/07 08:43:02.013,0.01,0.035,1.0
2026/05/07 08:43:02.033,0.01,0.038,1.003
2026/05/07 08:43:02.052,0.007,0.038,1.0
2026/05/07 08:43:02.072,0.008,0.035,1.002
2026/05/07 08:43:02.091,0.005,0.036,1.007
2026/05/07 08:43:02.111,0.011,0.036,1.004
2026/05/07 08:43:02.131,0.01,0.038,1.005
2026/05/07 08:43:02.150,0.01,0.038,1.002
2026/05/07 08:43:02.170,0.008,0.034,1.005
2026/05/07 08:43:02.189,0.008,0.036,1.001
2026/05/07 08:43:02.209,0.008,0.038,1.0
2026/05/07 08:43:02.228,0.01,0.041,1.003
2026/05/07 08:43:02.248,0.01,0.034,1.002
2026/05/07 08:43:02.267,0.011,0.04,1.002
2026/05/07 08:43:02.287,0.01,0.036,1.002
2026/05/07 08:43:02.306,0.009,0.037,1.002
2026/05/07 08:43:02.326,0.008,0.037,1.001
2026/05/07 08:43:02.346,0.008,0.037,1.0
2026/05/07 08:43:02.365,0.01,0.034,1.006
2026/05/07 08:43:02.385,0.011,0.038,0.999
2026/05/07 08:43:02.404,0.01,0.041,1.001
2026/05/07 08:43:02.424,0.008,0.034,1.002
2026/05/07 08:43:02.443,0.011,0.036,1.004
2026/05/07 08:43:02.463,0.012,0.032,0.998
2026/05/07 08:43:02.482,0.012,0.04,0.997
2026/05/07 08:43:02.502,0.008,0.036,1.005
2026/05/07 08:43:02.521,0.01,0.036,1.003
2026/05/07 08:43:02.541,0.008,0.038,1.001
2026/05/07 08:43:02.561,0.007,0.038,1.0
2026/05/07 08:43:02.580,0.011,0.035,1.003
2026/05/07 08:43:02.600,0.007,0.036,1.006
2026/05/07 08:43:02.619,0.013,0.036,1.002
2026/05/07 08:43:02.639,0.009,0.035,1.003
2026/05/07 08:43:02.658,0.008,0.036,0.999
2026/05/07 08:43:02.678,0.011,0.038,0.998
2026/05/07 08:43:02.697,0.012,0.037,1.008
2026/05/07 08:43:02.717,0.008,0.037,1.002
2026/05/07 08:43:02.736,0.008,0.039,0.998
2026/05/07 08:43:02.756,0.014,0.038,0.998
2026/05/07 08:43:02.775,0.008,0.036,1.0
2026/05/07 08:43:02.795,0.009,0.039,0.998
2026/05/07 08:43:02.815,0.013,0.038,1.003
2026/05/07 08:43:02.834,0.009,0.036,1.003
2026/05/07 08:43:02.854,0.013,0.038,1.0
2026/05/07 08:43:02.873,0.007,0.039,1.002
2026/05/07 08:43:02.893,0.01,0.036,1.001
2026/05/07 08:43:02.912,0.01,0.038,1.005
2026/05/07 08:43:02.932,0.006,0.038,1.002
2026/05/07 08:43:02.951,0.012,0.035,0.999
2026/05/07 08:43:02.971,0.011,0.036,1.003
2026/05/07 08:43:02.990,0.013,0.036,1.005
2026/05/07 08:43:03.010,0.009,0.033,1.003
2026/05/07 08:43:03.030,0.011,0.037,1.002
2026/05/07 08:43:03.049,0.011,0.037,1.0
2026/05/07 08:43:03.069,0.009,0.035,1.006
2026/05/07 08:43:03.088,0.008,0.037,1.003
2026/05/07 08:43:03.108,0.009,0.036,1.002
2026/05/07 08:43:03.127,0.008,0.034,1.003
2026/05/07 08:43:03.147,0.008,0.035,1.003
2026/05/07 08:43:03.166,0.011,0.036,1.001
2026/05/07 08:43:03.186,0.01,0.036,1.006
2026/05/07 08:43:03.205,0.01,0.035,1.005
2026/05/07 08:43:03.225,0.01,0.032,1.002
2026/05/07 08:43:03.245,0.008,0.039,1.007
2026/05/07 08:43:03.264,0.01,0.037,1.0
2026/05/07 08:43:03.284,0.013,0.035,0.998
2026/05/07 08:43:03.303,0.011,0.038,1.007
2026/05/07 08:43:03.323,0.01,0.038,1.006
2026/05/07 08:43:03.342,0.011,0.036,0.999
2026/05/07 08:43:03.362,0.008,0.038,1.0
2026/05/07 08:43:03.381,0.012,0.036,1.003
2026/05/07 08:43:03.401,0.008,0.037,1.003
2026/05/07 08:43:03.420,0.008,0.036,1.003
2026/05/07 08:43:03.440,0.009,0.038,1.008
2026/05/07 08:43:03.459,0.01,0.036,1.006
2026/05/07 08:43:03.479,0.009,0.037,1.003
2026/05/07 08:43:03.499,0.005,0.035,1.005
2026/05/07 08:43:03.518,0.011,0.04,1.003
2026/05/07 08:43:03.538,0.01,0.035,0.999
2026/05/07 08:43:03.557,0.01,0.035,0.998
2026/05/07 08:43:03.577,0.01,0.037,1.002
2026/05/07 08:43:03.596,0.008,0.034,1.003
2026/05/07 08:43:03.616,0.011,0.038,1.006
2026/05/07 08:43:03.635,0.006,0.038,1.0
2026/05/07 08:43:03.655,0.01,0.034,0.999
2026/05/07 08:43:03.674,0.011,0.036,1.003
2026/05/07 08:43:03.694,0.005,0.036,1.003
2026/05/07 08:43:03.714,0.009,0.035,1.005
2026/05/07 08:43:03.733,0.014,0.037,1.002
2026/05/07 08:43:03.753,0.011,0.04,0.998
2026/05/07 08:43:03.772,0.012,0.03,1.003
2026/05/07 08:43:03.792,0.014,0.041,0.994
2026/05/07 08:43:03.811,0.006,0.036,1.007
2026/05/07 08:43:03.831,0.009,0.037,1.011
2026/05/07 08:43:03.850,0.006,0.034,1.008
2026/05/07 08:43:03.870,0.008,0.037,1.002
2026/05/07 08:43:03.889,0.008,0.037,0.997
2026/05/07 08:43:03.909,0.01,0.036,1.0
2026/05/07 08:43:03.929,0.01,0.038,1.003
2026/05/07 08:43:03.948,0.008,0.039,1.01
2026/05/07 08:43:03.968,0.01,0.036,1.002
2026/05/07 08:43:03.987,0.01,0.037,1.005
2026/05/07 08:43:04.007,0.011,0.039,1.006
2026/05/07 08:43:04.026,0.007,0.037,0.999
2026/05/07 08:43:04.046,0.008,0.037,0.998
2026/05/07 08:43:04.065,0.007,0.038,1.004
2026/05/07 08:43:04.085,0.012,0.032,1.01
2026/05/07 08:43:04.104,0.006,0.035,1.002
2026/05/07 08:43:04.124,0.008,0.038,1.004
2026/05/07 08:43:04.143,0.008,0.036,1.0
2026/05/07 08:43:04.163,0.008,0.037,1.001
2026/05/07 08:43:04.183,0.006,0.036,1.001
2026/05/07 08:43:04.202,0.009,0.035,1.002
2026/05/07 08:43:04.222,0.01,0.039,1.002
2026/05/07 08:43:04.241,0.008,0.034,1.004
2026/05/07 08:43:04.261,0.01,0.038,1.003
2026/05/07 08:43:04.280,0.007,0.036,0.999
2026/05/07 08:43:04.300,0.007,0.034,1.001
2026/05/07 08:43:04.319,0.01,0.038,1.002
2026/05/07 08:43:04.339,0.01,0.039,1.0
2026/05/07 08:43:04.358,0.008,0.037,1.0
2026/05/07 08:43:04.378,0.007,0.038,0.999
2026/05/07 08:43:04.398,0.009,0.039,1.004
2026/05/07 08:43:04.417,0.01,0.036,1.003
2026/05/07 08:43:04.437,0.011,0.034,1.005
2026/05/07 08:43:04.456,0.011,0.038,1.004
2026/05/07 08:43:04.476,0.01,0.039,0.996
2026/05/07 08:43:04.495,0.01,0.037,1.0
2026/05/07 08:43:04.515,0.007,0.039,0.998
2026/05/07 08:43:04.534,0.013,0.035,1.005
2026/05/07 08:43:04.554,0.01,0.036,1.01
2026/05/07 08:43:04.573,0.007,0.04,1.004
2026/05/07 08:43:04.593,0.012,0.035,1.001
2026/05/07 08:43:04.613,0.009,0.039,1.004
2026/05/07 08:43:04.632,0.01,0.036,1.003
2026/05/07 08:43:04.652,0.01,0.036,1.004
2026/05/07 08:43:04.671,0.009,0.036,1.001
2026/05/07 08:43:04.691,0.01,0.037,1.002
2026/05/07 08:43:04.710,0.011,0.035,1.006
2026/05/07 08:43:04.730,0.015,0.035,1.005
2026/05/07 08:43:04.749,0.01,0.036,0.998
2026/05/07 08:43:04.769,0.008,0.04,1.003
2026/05/07 08:43:04.788,0.011,0.035,0.997
2026/05/07 08:43:04.808,0.01,0.035,1.001
2026/05/07 08:43:04.827,0.01,0.037,1.0
2026/05/07 08:43:04.847,0.012,0.036,0.999
2026/05/07 08:43:04.867,0.013,0.04,1.0
2026/05/07 08:43:04.886,0.011,0.036,1.009
2026/05/07 08:43:04.906,0.009,0.039,1.004
2026/05/07 08:43:04.925,0.008,0.039,1.007
2026/05/07 08:43:04.945,0.009,0.04,0.996
2026/05/07 08:43:04.964,0.013,0.034,0.998
2026/05/07 08:43:04.984,0.009,0.04,1.005
2026/05/07 08:43:05.003,0.008,0.039,1.007
2026/05/07 08:43:05.023,0.009,0.034,0.995
2026/05/07 08:43:05.042,0.007,0.039,0.996
2026/05/07 08:43:05.062,0.01,0.039,1.01
2026/05/07 08:43:05.082,0.01,0.036,1.007
2026/05/07 08:43:05.101,0.006,0.036,0.998
2026/05/07 08:43:05.121,0.009,0.044,1.004
2026/05/07 08:43:05.140,0.009,0.035,1.003
2026/05/07 08:43:05.160,0.012,0.035,1.005
2026/05/07 08:43:05.179,0.007,0.039,1.007
2026/05/07 08:43:05.199,0.012,0.037,1.002
2026/05/07 08:43:05.218,0.008,0.035,1.001
2026/05/07 08:43:05.238,0.009,0.034,1.004
2026/05/07 08:43:05.257,0.01,0.036,1.003
2026/05/07 08:43:05.277,0.01,0.037,1.001
2026/05/07 08:43:05.297,0.009,0.037,1.002
2026/05/07 08:43:05.316,0.01,0.035,1.004
2026/05/07 08:43:05.336,0.01,0.036,1.009
2026/05/07 08:43:05.355,0.01,0.035,1.001
2026/05/07 08:43:05.375,0.01,0.038,1.001
2026/05/07 08:43:05.394,0.009,0.038,1.005
2026/05/07 08:43:05.414,0.008,0.037,1.005
2026/05/07 08:43:05.433,0.01,0.039,1.002
2026/05/07 08:43:05.453,0.009,0.041,1.005
2026/05/07 08:43:05.472,0.008,0.036,1.001
2026/05/07 08:43:05.492,0.008,0.036,1.001
2026/05/07 08:43:05.511,0.009,0.036,1.0
2026/05/07 08:43:05.531,0.01,0.039,0.998
2026/05/07 08:43:05.551,0.011,0.035,1.004
2026/05/07 08:43:05.570,0.009,0.036,1.003
2026/05/07 08:43:05.590,0.01,0.039,1.003
2026/05/07 08:43:05.609,0.012,0.035,1.002
2026/05/07 08:43:05.629,0.01,0.035,1.0
2026/05/07 08:43:05.648,0.008,0.038,1.001
2026/05/07 08:43:05.668,0.005,0.035,1.003
2026/05/07 08:43:05.687,0.01,0.036,0.998
2026/05/07 08:43:05.707,0.01,0.036,1.001
2026/05/07 08:43:05.726,0.01,0.038,0.997
2026/05/07 08:43:05.746,0.007,0.034,1.001
2026/05/07 08:43:05.766,0.012,0.035,1.003
2026/05/07 08:43:05.785,0.01,0.034,1.0
2026/05/07 08:43:05.805,0.007,0.04,1.0
2026/05/07 08:43:05.824,0.014,0.036,1.005
2026/05/07 08:43:05.844,0.016,0.035,0.995
2026/05/07 08:43:05.863,0.007,0.039,0.998
2026/05/07 08:43:05.883,0.009,0.041,1.0
2026/05/07 08:43:05.902,0.012,0.037,1.003
2026/05/07 08:43:05.922,0.009,0.04,0.998
2026/05/07 08:43:05.941,0.015,0.037,1.001
2026/05/07 08:43:05.961,0.013,0.037,1.0
2026/05/07 08:43:05.981,0.01,0.04,1.004
2026/05/07 08:43:06.000,0.011,0.033,1.003
2026/05/07 08:43:06.020,0.014,0.032,1.003
2026/05/07 08:43:06.039,0.01,0.041,1.003
2026/05/07 08:43:06.059,0.012,0.037,1.002
2026/05/07 08:43:06.078,0.02,0.04,0.998
2026/05/07 08:43:06.098,0.01,0.038,1.0
2026/05/07 08:43:06.117,0.007,0.035,1.001
2026/05/07 08:43:06.137,0.01,0.034,0.998
2026/05/07 08:43:06.156,0.011,0.039,1.004
2026/05/07 08:43:06.176,0.006,0.036,1.002
2026/05/07 08:43:06.195,0.009,0.032,0.999
2026/05/07 08:43:06.215,0.005,0.038,1.005
2026/05/07 08:43:06.235,0.008,0.035,1.001
2026/05/07 08:43:06.254,0.009,0.035,1.003
2026/05/07 08:43:06.274,0.011,0.039,1.0
2026/05/07 08:43:06.293,0.013,0.039,1.005
2026/05/07 08:43:06.313,0.012,0.037,1.0
2026/05/07 08:43:06.332,0.01,0.037,1.004
2026/05/07 08:43:06.352,0.008,0.037,1.002
2026/05/07 08:43:06.371,0.009,0.034,0.999
2026/05/07 08:43:06.391,0.012,0.032,1.004
2026/05/07 08:43:06.410,0.014,0.036,1.001
2026/05/07 08:43:06.430,0.01,0.034,1.002
2026/05/07 08:43:06.450,0.009,0.037,1.002
2026/05/07 08:43:06.469,0.01,0.037,1.0
2026/05/07 08:43:06.489,0.007,0.036,1.0
2026/05/07 08:43:06.508,0.01,0.033,1.003
2026/05/07 08:43:06.528,0.007,0.034,0.999
2026/05/07 08:43:06.547,0.015,0.034,1.0
2026/05/07 08:43:06.567,0.009,0.038,0.999
2026/05/07 08:43:06.586,0.01,0.04,1.002
2026/05/07 08:43:06.606,0.01,0.037,1.006
2026/05/07 08:43:06.625,0.007,0.036,1.001
2026/05/07 08:43:06.645,0.01,0.041,0.999
2026/05/07 08:43:06.665,0.009,0.038,1.004
2026/05/07 08:43:06.684,0.007,0.032,1.004
2026/05/07 08:43:06.704,0.013,0.039,1.004
2026/05/07 08:43:06.723,0.007,0.037,1.001
2026/05/07 08:43:06.743,0.01,0.035,1.005
2026/05/07 08:43:06.762,0.006,0.035,1.002
2026/05/07 08:43:06.782,0.007,0.037,0.999
2026/05/07 08:43:06.801,0.016,0.037,1.005
2026/05/07 08:43:06.821,0.011,0.034,1.0
2026/05/07 08:43:06.840,0.012,0.038,1.004
2026/05/07 08:43:06.860,0.01,0.034,1.006
2026/05/07 08:43:06.880,0.013,0.04,1.003
2026/05/07 08:43:06.899,0.01,0.037,1.005
2026/05/07 08:43:06.919,0.009,0.037,1.004
2026/05/07 08:43:06.938,0.011,0.034,1.001
2026/05/07 08:43:06.958,0.009,0.039,0.999
2026/05/07 08:43:06.977,0.008,0.035,1.003
2026/05/07 08:43:06.997,0.01,0.035,1.002
2026/05/07 08:43:07.016,0.008,0.034,1.002
2026/05/07 08:43:07.036,0.007,0.036,1.0
2026/05/07 08:43:07.055,0.011,0.039,0.997
2026/05/07 08:43:07.075,0.01,0.035,1.003
2026/05/07 08:43:07.094,0.009,0.037,0.998
2026/05/07 08:43:07.114,0.01,0.04,0.997
2026/05/07 08:43:07.134,0.008,0.033,0.998
2026/05/07 08:43:07.153,0.011,0.034,1.0
2026/05/07 08:43:07.173,0.011,0.038,1.002
2026/05/07 08:43:07.192,0.008,0.038,0.999
2026/05/07 08:43:07.212,0.008,0.039,0.996
2026/05/07 08:43:07.231,0.009,0.035,1.002
2026/05/07 08:43:07.251,0.009,0.039,1.002
2026/05/07 08:43:07.270,0.008,0.039,1.003
2026/05/07 08:43:07.290,0.011,0.037,1.001
2026/05/07 08:43:07.309,0.01,0.035,1.004
2026/05/07 08:43:07.329,0.01,0.036,1.003
2026/05/07 08:43:07.349,0.011,0.039,1.002
2026/05/07 08:43:07.368,0.006,0.04,1.0
2026/05/07 08:43:07.388,0.012,0.038,1.006
2026/05/07 08:43:07.407,0.012,0.035,1.003
2026/05/07 08:43:07.427,0.009,0.04,0.998
2026/05/07 08:43:07.446,0.008,0.036,1.001
2026/05/07 08:43:07.466,0.008,0.038,1.003
2026/05/07 08:43:07.485,0.012,0.039,1.0
2026/05/07 08:43:07.505,0.009,0.036,0.999
2026/05/07 08:43:07.524,0.008,0.036,1.003
2026/05/07 08:43:07.544,0.01,0.038,1.002
2026/05/07 08:43:07.564,0.01,0.036,1.001
2026/05/07 08:43:07.583,0.007,0.034,1.002
2026/05/07 08:43:07.603,0.013,0.038,1.005
2026/05/07 08:43:07.622,0.011,0.037,1.003
2026/05/07 08:43:07.642,0.009,0.037,1.002
2026/05/07 08:43:07.661,0.014,0.038,1.005
2026/05/07 08:43:07.681,0.007,0.038,1.002
2026/05/07 08:43:07.700,0.01,0.036,1.001
2026/05/07 08:43:07.720,0.011,0.039,1.005
2026/05/07 08:43:07.739,0.009,0.037,0.996
2026/05/07 08:43:07.759,0.008,0.037,1.0
2026/05/07 08:43:07.778,0.007,0.04,1.0
2026/05/07 08:43:07.798,0.01,0.036,1.003
2026/05/07 08:43:07.818,0.01,0.037,1.0
2026/05/07 08:43:07.837,0.008,0.035,1.001
2026/05/07 08:43:07.857,0.008,0.038,0.998
2026/05/07 08:43:07.876,0.008,0.036,1.004
2026/05/07 08:43:07.896,0.009,0.038,0.998
2026/05/07 08:43:07.915,0.011,0.036,1.001
2026/05/07 08:43:07.935,0.007,0.036,1.002
2026/05/07 08:43:07.954,0.007,0.041,1.004
2026/05/07 08:43:07.974,0.008,0.036,1.0
2026/05/07 08:43:07.993,0.008,0.044,1.001
2026/05/07 08:43:08.013,0.011,0.04,1.003
2026/05/07 08:43:08.033,0.01,0.039,1.0
2026/05/07 08:43:08.052,0.011,0.035,1.004
2026/05/07 08:43:08.072,0.009,0.038,1.003
2026/05/07 08:43:08.091,0.011,0.039,1.001
2026/05/07 08:43:08.111,0.01,0.036,1.003
2026/05/07 08:43:08.130,0.009,0.036,1.0
2026/05/07 08:43:08.150,0.012,0.031,0.998
2026/05/07 08:43:08.169,0.01,0.037,1.0
2026/05/07 08:43:08.189,0.008,0.038,1.003
2026/05/07 08:43:08.208,0.009,0.038,1.001
2026/05/07 08:43:08.228,0.008,0.041,1.004
2026/05/07 08:43:08.248,0.007,0.039,1.001
2026/05/07 08:43:08.267,0.007,0.04,1.0
2026/05/07 08:43:08.287,0.011,0.037,1.003
2026/05/07 08:43:08.306,0.008,0.03,1.005
2026/05/07 08:43:08.326,0.011,0.034,1.003
2026/05/07 08:43:08.345,0.012,0.035,1.005
2026/05/07 08:43:08.365,0.01,0.039,1.003
2026/05/07 08:43:08.384,0.008,0.036,1.001
2026/05/07 08:43:08.404,0.008,0.036,1.001
2026/05/07 08:43:08.423,0.012,0.036,1.002
2026/05/07 08:43:08.443,0.009,0.037,1.007
2026/05/07 08:43:08.463,0.008,0.037,1.001
2026/05/07 08:43:08.482,0.009,0.037,1.003
2026/05/07 08:43:08.502,0.01,0.035,1.002
2026/05/07 08:43:08.521,0.009,0.038,1.003
2026/05/07 08:43:08.541,0.005,0.036,0.993
2026/05/07 08:43:08.560,0.008,0.036,1.003
2026/05/07 08:43:08.580,0.01,0.037,1.003
2026/05/07 08:43:08.599,0.012,0.036,0.998
2026/05/07 08:43:08.619,0.011,0.04,1.003
2026/05/07 08:43:08.638,0.01,0.039,1.002
2026/05/07 08:43:08.658,0.009,0.039,1.002
2026/05/07 08:43:08.677,0.008,0.036,1.0
2026/05/07 08:43:08.697,0.011,0.039,0.999
2026/05/07 08:43:08.717,0.01,0.032,1.003
2026/05/07 08:43:08.736,0.007,0.04,1.003
2026/05/07 08:43:08.756,0.01,0.039,1.0
2026/05/07 08:43:08.775,0.01,0.037,1.006
2026/05/07 08:43:08.795,0.012,0.036,1.002
2026/05/07 08:43:08.814,0.009,0.036,0.998
2026/05/07 08:43:08.834,0.007,0.039,1.003
2026/05/07 08:43:08.853,0.011,0.036,1.003
2026/05/07 08:43:08.873,0.009,0.037,1.0
2026/05/07 08:43:08.892,0.01,0.033,1.006
2026/05/07 08:43:08.912,0.01,0.036,0.999
2026/05/07 08:43:08.932,0.009,0.035,1.004
2026/05/07 08:43:08.951,0.011,0.037,1.003
2026/05/07 08:43:08.971,0.012,0.035,1.003
2026/05/07 08:43:08.990,0.006,0.036,1.001
2026/05/07 08:43:09.010,0.008,0.042,1.002
2026/05/07 08:43:09.029,0.007,0.039,1.006
2026/05/07 08:43:09.049,0.01,0.036,1.005
2026/05/07 08:43:09.068,0.01,0.036,1.005
2026/05/07 08:43:09.088,0.009,0.038,1.0
2026/05/07 08:43:09.107,0.01,0.039,1.006
2026/05/07 08:43:09.127,0.006,0.039,1.002
2026/05/07 08:43:09.147,0.01,0.034,1.003
2026/05/07 08:43:09.166,0.008,0.035,1.003
2026/05/07 08:43:09.186,0.012,0.039,1.0
2026/05/07 08:43:09.205,0.009,0.035,1.004
2026/05/07 08:43:09.225,0.013,0.035,1.003
2026/05/07 08:43:09.244,0.01,0.039,1.004
2026/05/07 08:43:09.264,0.013,0.034,1.001
2026/05/07 08:43:09.283,0.014,0.037,1.004
2026/05/07 08:43:09.303,0.011,0.039,1.006
2026/05/07 08:43:09.322,0.009,0.035,1.006
2026/05/07 08:43:09.342,0.009,0.039,1.0
2026/05/07 08:43:09.362,0.009,0.035,1.003
2026/05/07 08:43:09.381,0.01,0.035,1.0
2026/05/07 08:43:09.401,0.008,0.035,1.005
2026/05/07 08:43:09.420,0.015,0.037,1.005
2026/05/07 08:43:09.440,0.012,0.04,1.0
2026/05/07 08:43:09.459,0.009,0.034,0.997
2026/05/07 08:43:09.479,0.011,0.038,1.005
2026/05/07 08:43:09.498,0.01,0.035,1.003
2026/05/07 08:43:09.518,0.01,0.036,1.002
2026/05/07 08:43:09.537,0.007,0.038,0.998
2026/05/07 08:43:09.557,0.01,0.034,0.998
2026/05/07 08:43:09.576,0.009,0.035,0.999
2026/05/07 08:43:09.596,0.008,0.036,0.997
2026/05/07 08:43:09.616,0.007,0.037,1.002
2026/05/07 08:43:09.635,0.006,0.036,0.998
2026/05/07 08:43:09.655,0.01,0.037,1.004
2026/05/07 08:43:09.674,0.008,0.037,1.004
2026/05/07 08:43:09.694,0.014,0.037,1.006
2026/05/07 08:43:09.713,0.011,0.039,1.005
2026/05/07 08:43:09.733,0.008,0.036,0.999
2026/05/07 08:43:09.752,0.006,0.032,0.999
2026/05/07 08:43:09.772,0.008,0.036,1.002
2026/05/07 08:43:09.791,0.006,0.036,1.005
2026/05/07 08:43:09.811,0.007,0.036,1.003
2026/05/07 08:43:09.831,0.011,0.039,1.004
2026/05/07 08:43:09.850,0.007,0.038,0.995
2026/05/07 08:43:09.870,0.007,0.036,1.003
2026/05/07 08:43:09.889,0.012,0.04,1.007
2026/05/07 08:43:09.909,0.013,0.041,1.004
2026/05/07 08:43:09.928,0.007,0.036,1.004
2026/05/07 08:43:09.948,0.01,0.037,1.001
2026/05/07 08:43:09.967,0.011,0.037,1.006
2026/05/07 08:43:09.987,0.006,0.037,0.995
2026/05/07 08:43:10.006,0.009,0.042,1.002
2026/05/07 08:43:10.026,0.007,0.036,1.002
2026/05/07 08:43:10.046,0.008,0.037,1.002
2026/05/07 08:43:10.065,0.004,0.033,1.006
2026/05/07 08:43:10.085,0.003,0.035,1.009
2026/05/07 08:43:10.104,0.003,0.031,1.006
2026/05/07 08:43:10.124,0.011,0.042,0.997
2026/05/07 08:43:10.143,0.01,0.038,0.988
2026/05/07 08:43:10.163,0.009,0.039,1.001
2026/05/07 08:43:10.182,0.006,0.033,1.004
2026/05/07 08:43:10.202,0.013,0.035,1.004
2026/05/07 08:43:10.221,0.012,0.039,0.994
2026/05/07 08:43:10.241,0.007,0.038,1.006
2026/05/07 08:43:10.261,0.012,0.037,1.005
2026/05/07 08:43:10.280,0.012,0.04,1.004
2026/05/07 08:43:10.300,0.007,0.039,0.999
2026/05/07 08:43:10.319,0.01,0.036,0.999
2026/05/07 08:43:10.339,0.008,0.033,1.007
2026/05/07 08:43:10.358,0.009,0.034,1.005
2026/05/07 08:43:10.378,0.008,0.038,0.998
2026/05/07 08:43:10.397,0.01,0.037,0.999
2026/05/07 08:43:10.417,0.006,0.038,0.998
2026/05/07 08:43:10.436,0.009,0.037,1.003
2026/05/07 08:43:10.456,0.01,0.037,1.004
2026/05/07 08:43:10.475,0.009,0.04,1.005
2026/05/07 08:43:10.495,0.005,0.041,1.003
2026/05/07 08:43:10.515,0.008,0.037,0.999
2026/05/07 08:43:10.534,0.008,0.036,0.995
2026/05/07 08:43:10.554,0.01,0.033,1.006
2026/05/07 08:43:10.573,0.006,0.034,1.004
2026/05/07 08:43:10.593,0.01,0.04,1.002
2026/05/07 08:43:10.612,0.008,0.039,0.996
2026/05/07 08:43:10.632,0.011,0.035,1.001
2026/05/07 08:43:10.651,0.012,0.038,0.999
2026/05/07 08:43:10.671,0.011,0.035,1.004
2026/05/07 08:43:10.690,0.01,0.034,1.001
2026/05/07 08:43:10.710,0.01,0.041,1.001
2026/05/07 08:43:10.730,0.009,0.041,0.997
2026/05/07 08:43:10.749,0.011,0.034,1.002
2026/05/07 08:43:10.769,0.011,0.04,1.002
2026/05/07 08:43:10.788,0.008,0.039,1.001
2026/05/07 08:43:10.808,0.01,0.037,0.999
2026/05/07 08:43:10.827,0.011,0.034,0.998
2026/05/07 08:43:10.847,0.012,0.034,1.0
2026/05/07 08:43:10.866,0.011,0.039,1.007
2026/05/07 08:43:10.886,0.013,0.038,1.002
2026/05/07 08:43:10.905,0.011,0.037,1.001
2026/05/07 08:43:10.925,0.01,0.037,1.002
2026/05/07 08:43:10.945,0.01,0.039,1.008
2026/05/07 08:43:10.964,0.01,0.039,1.003
2026/05/07 08:43:10.984,0.009,0.037,1.002
2026/05/07 08:43:11.003,0.009,0.039,1.001
2026/05/07 08:43:11.023,0.01,0.039,1.004
2026/05/07 08:43:11.042,0.008,0.041,0.999
2026/05/07 08:43:11.062,0.01,0.037,1.003
2026/05/07 08:43:11.081,0.008,0.039,1.004
2026/05/07 08:43:11.101,0.009,0.038,0.999
2026/05/07 08:43:11.120,0.009,0.045,0.999
2026/05/07 08:43:11.140,0.011,0.04,1.003
2026/05/07 08:43:11.160,0.007,0.036,1.0
2026/05/07 08:43:11.179,0.009,0.035,0.999
2026/05/07 08:43:11.199,0.006,0.037,0.999
2026/05/07 08:43:11.218,0.011,0.039,1.0
2026/05/07 08:43:11.238,0.004,0.039,1.001
2026/05/07 08:43:11.257,0.012,0.032,1.001
2026/05/07 08:43:11.277,0.006,0.038,1.004
2026/05/07 08:43:11.296,0.012,0.037,1.005
2026/05/07 08:43:11.316,0.011,0.039,1.001
2026/05/07 08:43:11.335,0.01,0.042,1.005
2026/05/07 08:43:11.355,0.008,0.036,0.995
2026/05/07 08:43:11.374,0.009,0.031,1.004
2026/05/07 08:43:11.394,0.008,0.032,1.002
2026/05/07 08:43:11.414,0.008,0.038,1.005
2026/05/07 08:43:11.433,0.012,0.034,1.006
2026/05/07 08:43:11.453,0.007,0.037,1.007
2026/05/07 08:43:11.472,0.009,0.04,0.998
2026/05/07 08:43:11.492,0.008,0.034,1.001
2026/05/07 08:43:11.511,0.009,0.038,0.998
2026/05/07 08:43:11.531,0.008,0.039,1.001
2026/05/07 08:43:11.550,0.008,0.039,0.999
2026/05/07 08:43:11.570,0.01,0.037,1.003
2026/05/07 08:43:11.589,0.01,0.039,1.005
2026/05/07 08:43:11.609,0.014,0.034,1.006
2026/05/07 08:43:11.629,0.008,0.038,1.005
2026/05/07 08:43:11.648,0.008,0.036,1.0
2026/05/07 08:43:11.668,0.008,0.034,1.003
2026/05/07 08:43:11.687,0.008,0.038,0.998
2026/05/07 08:43:11.707,0.007,0.035,0.998
2026/05/07 08:43:11.726,0.012,0.038,1.003
2026/05/07 08:43:11.746,0.01,0.038,1.0
2026/05/07 08:43:11.765,0.011,0.035,1.001
2026/05/07 08:43:11.785,0.013,0.039,1.0
2026/05/07 08:43:11.804,0.007,0.037,1.001
2026/05/07 08:43:11.824,0.006,0.03,1.001
2026/05/07 08:43:11.844,0.009,0.039,1.002
2026/05/07 08:43:11.863,0.008,0.037,1.004
2026/05/07 08:43:11.883,0.01,0.038,1.0
2026/05/07 08:43:11.902,0.008,0.036,0.998
2026/05/07 08:43:11.922,0.008,0.037,1.005
2026/05/07 08:43:11.941,0.01,0.038,1.002
2026/05/07 08:43:11.961,0.014,0.033,1.001
2026/05/07 08:43:11.980,0.009,0.038,1.005
2026/05/07 08:43:12.000,0.007,0.04,1.003
2026/05/07 08:43:12.019,0.011,0.036,1.0
2026/05/07 08:43:12.039,0.009,0.037,1.001
2026/05/07 08:43:12.059,0.009,0.037,1.001
2026/05/07 08:43:12.078,0.01,0.038,1.003
2026/05/07 08:43:12.098,0.01,0.036,1.004
2026/05/07 08:43:12.117,0.009,0.037,1.001
2026/05/07 08:43:12.137,0.011,0.036,1.007
2026/05/07 08:43:12.156,0.008,0.037,1.002
2026/05/07 08:43:12.176,0.007,0.035,1.004
2026/05/07 08:43:12.195,0.01,0.036,0.998
2026/05/07 08:43:12.215,0.008,0.035,1.002
2026/05/07 08:43:12.234,0.009,0.035,1.004
2026/05/07 08:43:12.254,0.012,0.04,0.998
2026/05/07 08:43:12.273,0.011,0.036,1.006
2026/05/07 08:43:12.293,0.011,0.039,1.003
2026/05/07 08:43:12.313,0.01,0.034,1.001
2026/05/07 08:43:12.332,0.006,0.034,1.004
2026/05/07 08:43:12.352,0.012,0.039,1.006
2026/05/07 08:43:12.371,0.011,0.032,0.998
2026/05/07 08:43:12.391,0.01,0.037,1.004
2026/05/07 08:43:12.410,0.01,0.041,1.003
2026/05/07 08:43:12.430,0.011,0.035,0.998
2026/05/07 08:43:12.449,0.014,0.036,0.999
2026/05/07 08:43:12.469,0.009,0.037,1.005
2026/05/07 08:43:12.488,0.01,0.035,1.006
2026/05/07 08:43:12.508,0.009,0.032,1.0
2026/05/07 08:43:12.528,0.01,0.036,1.0
2026/05/07 08:43:12.547,0.012,0.038,1.004
2026/05/07 08:43:12.567,0.01,0.036,1.003
2026/05/07 08:43:12.586,0.01,0.035,1.004
2026/05/07 08:43:12.606,0.01,0.035,1.002
2026/05/07 08:43:12.625,0.009,0.043,1.0
2026/05/07 08:43:12.645,0.008,0.035,0.999
2026/05/07 08:43:12.664,0.013,0.036,1.0
2026/05/07 08:43:12.684,0.006,0.034,1.005
2026/05/07 08:43:12.703,0.012,0.038,1.001
2026/05/07 08:43:12.723,0.007,0.035,0.999
2026/05/07 08:43:12.743,0.01,0.034,1.001
2026/05/07 08:43:12.762,0.01,0.033,1.004
2026/05/07 08:43:12.782,0.009,0.033,1.005
2026/05/07 08:43:12.801,0.004,0.029,1.007
2026/05/07 08:43:12.821,0.01,0.034,1.003
2026/05/07 08:43:12.840,0.006,0.042,0.998
2026/05/07 08:43:12.860,0.011,0.038,1.005
2026/05/07 08:43:12.879,0.008,0.035,1.007
2026/05/07 08:43:12.899,0.013,0.035,1.002
2026/05/07 08:43:12.918,0.009,0.038,1.003
2026/05/07 08:43:12.938,0.01,0.035,1.0
2026/05/07 08:43:12.957,0.01,0.035,1.003
2026/05/07 08:43:12.977,0.01,0.039,1.003
2026/05/07 08:43:12.997,0.012,0.038,1.003
2026/05/07 08:43:13.016,0.008,0.037,0.999
2026/05/07 08:43:13.036,0.012,0.038,1.003
2026/05/07 08:43:13.055,0.011,0.034,1.003
2026/05/07 08:43:13.075,0.007,0.042,0.999
2026/05/07 08:43:13.094,0.01,0.037,1.01
2026/05/07 08:43:13.114,0.012,0.036,1.005
2026/05/07 08:43:13.133,0.01,0.036,1.003
2026/05/07 08:43:13.153,0.011,0.04,1.001
2026/05/07 08:43:13.172,0.012,0.036,1.002
2026/05/07 08:43:13.192,0.005,0.04,1.002
2026/05/07 08:43:13.212,0.008,0.038,1.006
2026/05/07 08:43:13.231,0.008,0.042,1.003
2026/05/07 08:43:13.251,0.01,0.039,1.002
2026/05/07 08:43:13.270,0.012,0.036,1.001
2026/05/07 08:43:13.290,0.01,0.04,1.002
2026/05/07 08:43:13.309,0.01,0.034,1.004
2026/05/07 08:43:13.329,0.008,0.034,1.001
2026/05/07 08:43:13.348,0.011,0.039,1.0
2026/05/07 08:43:13.368,0.011,0.036,1.003
2026/05/07 08:43:13.387,0.011,0.04,1.0
2026/05/07 08:43:13.407,0.009,0.038,1.002
2026/05/07 08:43:13.427,0.011,0.038,0.999
2026/05/07 08:43:13.446,0.007,0.038,1.005
2026/05/07 08:43:13.466,0.007,0.039,1.002
2026/05/07 08:43:13.485,0.009,0.039,1.002
2026/05/07 08:43:13.505,0.007,0.036,1.003
2026/05/07 08:43:13.524,0.01,0.036,1.0
2026/05/07 08:43:13.544,0.01,0.039,1.002
2026/05/07 08:43:13.563,0.01,0.034,1.002
2026/05/07 08:43:13.583,0.01,0.036,1.001
2026/05/07 08:43:13.602,0.009,0.037,0.998
2026/05/07 08:43:13.622,0.009,0.037,0.998
2026/05/07 08:43:13.642,0.011,0.039,1.005
2026/05/07 08:43:13.661,0.01,0.037,1.001
2026/05/07 08:43:13.681,0.009,0.036,1.001
2026/05/07 08:43:13.700,0.008,0.034,0.999
2026/05/07 08:43:13.720,0.01,0.035,1.004
2026/05/07 08:43:13.739,0.01,0.038,0.997
2026/05/07 08:43:13.759,0.01,0.038,1.006
2026/05/07 08:43:13.778,0.012,0.038,1.003
2026/05/07 08:43:13.798,0.009,0.039,0.998
2026/05/07 08:43:13.817,0.009,0.038,1.003
2026/05/07 08:43:13.837,0.007,0.038,0.999
2026/05/07 08:43:13.856,0.007,0.039,1.001
2026/05/07 08:43:13.876,0.009,0.038,1.003
2026/05/07 08:43:13.896,0.01,0.037,1.003
2026/05/07 08:43:13.915,0.009,0.032,1.005
2026/05/07 08:43:13.935,0.009,0.038,1.0
2026/05/07 08:43:13.954,0.009,0.039,1.003
2026/05/07 08:43:13.974,0.012,0.042,1.002
2026/05/07 08:43:13.993,0.007,0.037,1.002
2026/05/07 08:43:14.013,0.011,0.041,0.999
2026/05/07 08:43:14.032,0.008,0.033,1.001
2026/05/07 08:43:14.052,0.011,0.033,1.002
2026/05/07 08:43:14.071,0.009,0.039,1.004
2026/05/07 08:43:14.091,0.007,0.041,1.005
2026/05/07 08:43:14.111,0.012,0.037,1.005
2026/05/07 08:43:14.130,0.008,0.038,0.996
2026/05/07 08:43:14.150,0.008,0.037,0.999
2026/05/07 08:43:14.169,0.007,0.038,0.999
2026/05/07 08:43:14.189,0.007,0.034,1.0
2026/05/07 08:43:14.208,0.01,0.03,1.004
2026/05/07 08:43:14.228,0.01,0.033,1.007
2026/05/07 08:43:14.247,0.01,0.032,1.004
2026/05/07 08:43:14.267,0.006,0.04,1.004
2026/05/07 08:43:14.286,0.011,0.039,0.995
2026/05/07 08:43:14.306,0.01,0.038,1.006
2026/05/07 08:43:14.326,0.012,0.037,1.005
2026/05/07 08:43:14.345,0.009,0.034,1.003
2026/05/07 08:43:14.365,0.011,0.037,1.0
2026/05/07 08:43:14.384,0.005,0.035,1.005
2026/05/07 08:43:14.404,0.008,0.035,1.002
2026/05/07 08:43:14.423,0.006,0.037,1.002
2026/05/07 08:43:14.443,0.009,0.034,1.008
2026/05/07 08:43:14.462,0.008,0.038,1.003
2026/05/07 08:43:14.482,0.011,0.04,1.004
2026/05/07 08:43:14.501,0.006,0.038,1.001
2026/05/07 08:43:14.521,0.009,0.038,1.004
2026/05/07 08:43:14.540,0.009,0.037,1.002
2026/05/07 08:43:14.560,0.008,0.038,1.001
2026/05/07 08:43:14.580,0.009,0.032,1.002
2026/05/07 08:43:14.599,0.008,0.038,1.003
2026/05/07 08:43:14.619,0.009,0.038,1.003
2026/05/07 08:43:14.638,0.009,0.036,1.001
2026/05/07 08:43:14.658,0.009,0.035,1.002
2026/05/07 08:43:14.677,0.009,0.038,1.003
2026/05/07 08:43:14.697,0.008,0.036,1.003
2026/05/07 08:43:14.716,0.007,0.038,1.002
2026/05/07 08:43:14.736,0.008,0.037,1.003
2026/05/07 08:43:14.755,0.008,0.037,1.004
2026/05/07 08:43:14.775,0.011,0.031,1.0
2026/05/07 08:43:14.795,0.01,0.036,0.998
2026/05/07 08:43:14.814,0.013,0.041,1.0
2026/05/07 08:43:14.834,0.009,0.037,1.0
2026/05/07 08:43:14.853,0.011,0.039,1.0
2026/05/07 08:43:14.873,0.009,0.038,1.001
2026/05/07 08:43:14.892,0.007,0.037,1.002
2026/05/07 08:43:14.912,0.01,0.033,1.005
2026/05/07 08:43:14.931,0.009,0.035,1.0
2026/05/07 08:43:14.951,0.009,0.037,1.0
2026/05/07 08:43:14.970,0.008,0.036,1.003
2026/05/07 08:43:14.990,0.012,0.037,0.998
2026/05/07 08:43:15.010,0.011,0.036,1.003
2026/05/07 08:43:15.029,0.011,0.037,1.002
2026/05/07 08:43:15.049,0.011,0.033,1.002
2026/05/07 08:43:15.068,0.009,0.04,0.998
2026/05/07 08:43:15.088,0.011,0.038,1.004
2026/05/07 08:43:15.107,0.008,0.038,1.0
2026/05/07 08:43:15.127,0.01,0.032,1.004
2026/05/07 08:43:15.146,0.009,0.034,1.002
2026/05/07 08:43:15.166,0.009,0.036,1.001
2026/05/07 08:43:15.185,0.009,0.033,0.999
2026/05/07 08:43:15.205,0.009,0.036,0.999
2026/05/07 08:43:15.225,0.011,0.037,1.001
2026/05/07 08:43:15.244,0.012,0.037,1.005
2026/05/07 08:43:15.264,0.01,0.033,1.007
2026/05/07 08:43:15.283,0.009,0.033,1.003
2026/05/07 08:43:15.303,0.012,0.039,1.003
2026/05/07 08:43:15.322,0.01,0.035,1.0
2026/05/07 08:43:15.342,0.009,0.035,1.006
2026/05/07 08:43:15.361,0.011,0.033,1.0
2026/05/07 08:43:15.381,0.007,0.039,1.002
2026/05/07 08:43:15.400,0.008,0.038,1.002
2026/05/07 08:43:15.420,0.011,0.04,1.001
2026/05/07 08:43:15.440,0.009,0.036,1.002
2026/05/07 08:43:15.459,0.008,0.037,1.002
2026/05/07 08:43:15.479,0.007,0.039,0.999
2026/05/07 08:43:15.498,0.015,0.039,1.001
2026/05/07 08:43:15.518,0.006,0.035,1.004
2026/05/07 08:43:15.537,0.009,0.034,1.003
2026/05/07 08:43:15.557,0.009,0.037,1.001
2026/05/07 08:43:15.576,0.011,0.034,1.005
2026/05/07 08:43:15.596,0.008,0.033,1.004
2026/05/07 08:43:15.615,0.01,0.039,0.998
2026/05/07 08:43:15.635,0.01,0.039,1.002
2026/05/07 08:43:15.654,0.008,0.037,1.006
2026/05/07 08:43:15.674,0.007,0.037,1.005
2026/05/07 08:43:15.694,0.008,0.034,1.0
2026/05/07 08:43:15.713,0.01,0.037,1.002
2026/05/07 08:43:15.733,0.014,0.037,0.998
2026/05/07 08:43:15.752,0.011,0.038,1.004
2026/05/07 08:43:15.772,0.008,0.036,1.007
2026/05/07 08:43:15.791,0.004,0.036,1.003
2026/05/07 08:43:15.811,0.011,0.038,1.0
2026/05/07 08:43:15.830,0.008,0.04,0.999
2026/05/07 08:43:15.850,0.008,0.035,1.005
2026/05/07 08:43:15.869,0.008,0.037,1.005
2026/05/07 08:43:15.889,0.011,0.04,1.003
2026/05/07 08:43:15.909,0.007,0.035,1.002
2026/05/07 08:43:15.928,0.013,0.035,1.002
2026/05/07 08:43:15.948,0.008,0.032,1.001
2026/05/07 08:43:15.967,0.009,0.037,1.0
2026/05/07 08:43:15.987,0.008,0.035,1.006
2026/05/07 08:43:16.006,0.008,0.034,1.001
2026/05/07 08:43:16.026,0.007,0.039,1.005
2026/05/07 08:43:16.045,0.011,0.041,1.002
2026/05/07 08:43:16.065,0.011,0.035,1.0
2026/05/07 08:43:16.084,0.011,0.039,1.003
2026/05/07 08:43:16.104,0.01,0.036,1.006
2026/05/07 08:43:16.124,0.009,0.036,1.002
2026/05/07 08:43:16.143,0.011,0.039,1.002
2026/05/07 08:43:16.163,0.008,0.035,1.004
2026/05/07 08:43:16.182,0.007,0.039,1.005
2026/05/07 08:43:16.202,0.006,0.041,0.998
2026/05/07 08:43:16.221,0.006,0.04,1.0
2026/05/07 08:43:16.241,0.012,0.036,0.996
2026/05/07 08:43:16.260,0.009,0.034,1.0
2026/05/07 08:43:16.280,0.009,0.04,1.004
2026/05/07 08:43:16.299,0.008,0.037,1.003
2026/05/07 08:43:16.319,0.007,0.04,1.006
2026/05/07 08:43:16.339,0.008,0.034,1.002
2026/05/07 08:43:16.358,0.009,0.033,1.001
2026/05/07 08:43:16.378,0.009,0.034,1.0
2026/05/07 08:43:16.397,0.009,0.035,1.001
2026/05/07 08:43:16.417,0.008,0.036,1.004
2026/05/07 08:43:16.436,0.012,0.033,1.003
2026/05/07 08:43:16.456,0.008,0.039,1.002
2026/05/07 08:43:16.475,0.008,0.039,1.002
2026/05/07 08:43:16.495,0.011,0.037,1.001
2026/05/07 08:43:16.514,0.007,0.037,1.005
2026/05/07 08:43:16.534,0.01,0.036,1.005
2026/05/07 08:43:16.554,0.008,0.037,1.003
2026/05/07 08:43:16.573,0.01,0.035,0.998
2026/05/07 08:43:16.593,0.01,0.036,1.002
2026/05/07 08:43:16.612,0.009,0.037,1.005
2026/05/07 08:43:16.632,0.008,0.04,1.001
2026/05/07 08:43:16.651,0.01,0.036,1.001
2026/05/07 08:43:16.671,0.008,0.041,1.005
2026/05/07 08:43:16.690,0.013,0.037,1.001
2026/05/07 08:43:16.710,0.012,0.037,1.006
2026/05/07 08:43:16.729,0.008,0.04,0.999
2026/05/07 08:43:16.749,0.01,0.041,1.002
2026/05/07 08:43:16.769,0.011,0.041,1.005
2026/05/07 08:43:16.788,0.012,0.038,1.003
2026/05/07 08:43:16.808,0.01,0.037,1.004
2026/05/07 08:43:16.827,0.009,0.037,0.998
2026/05/07 08:43:16.847,0.011,0.037,1.001
2026/05/07 08:43:16.866,0.012,0.037,1.001
2026/05/07 08:43:16.886,0.008,0.037,1.003
2026/05/07 08:43:16.905,0.012,0.033,1.003
2026/05/07 08:43:16.925,0.01,0.04,1.003
2026/05/07 08:43:16.944,0.008,0.037,1.001
2026/05/07 08:43:16.964,0.008,0.035,1.003
2026/05/07 08:43:16.983,0.008,0.037,1.001
2026/05/07 08:43:17.003,0.009,0.037,1.001
2026/05/07 08:43:17.023,0.008,0.034,1.002
2026/05/07 08:43:17.042,0.011,0.039,1.004
2026/05/07 08:43:17.062,0.01,0.037,1.002
2026/05/07 08:43:17.081,0.009,0.037,1.001
2026/05/07 08:43:17.101,0.01,0.037,1.004
2026/05/07 08:43:17.120,0.011,0.038,0.997
2026/05/07 08:43:17.140,0.013,0.036,1.0
2026/05/07 08:43:17.159,0.006,0.036,0.998
2026/05/07 08:43:17.179,0.006,0.037,0.999
2026/05/07 08:43:17.198,0.009,0.038,1.002
2026/05/07 08:43:17.218,0.005,0.039,1.001
2026/05/07 08:43:17.238,0.009,0.038,1.003
2026/05/07 08:43:17.257,0.007,0.04,1.001
2026/05/07 08:43:17.277,0.008,0.037,1.002
2026/05/07 08:43:17.296,0.007,0.036,1.002
2026/05/07 08:43:17.316,0.007,0.038,1.003
2026/05/07 08:43:17.335,0.009,0.042,0.997
2026/05/07 08:43:17.355,0.01,0.04,1.004
2026/05/07 08:43:17.374,0.013,0.037,0.997
2026/05/07 08:43:17.394,0.01,0.036,1.001
2026/05/07 08:43:17.413,0.01,0.04,1.001
2026/05/07 08:43:17.433,0.008,0.034,1.003
2026/05/07 08:43:17.453,0.009,0.033,0.999
2026/05/07 08:43:17.472,0.008,0.033,1.0
2026/05/07 08:43:17.492,0.009,0.036,1.001
2026/05/07 08:43:17.511,0.01,0.035,1.001
2026/05/07 08:43:17.531,0.008,0.034,0.998
2026/05/07 08:43:17.550,0.01,0.039,1.004
2026/05/07 08:43:17.570,0.011,0.036,1.007
2026/05/07 08:43:17.589,0.009,0.041,0.998
2026/05/07 08:43:17.609,0.01,0.037,1.002
2026/05/07 08:43:17.628,0.011,0.039,1.004
2026/05/07 08:43:17.648,0.008,0.041,1.001
2026/05/07 08:43:17.668,0.01,0.038,1.0
2026/05/07 08:43:17.687,0.009,0.034,1.0
2026/05/07 08:43:17.707,0.008,0.034,1.001
2026/05/07 08:43:17.726,0.01,0.043,1.005
2026/05/07 08:43:17.746,0.007,0.037,1.001
2026/05/07 08:43:17.765,0.01,0.037,1.002
2026/05/07 08:43:17.785,0.008,0.038,1.003
2026/05/07 08:43:17.804,0.012,0.034,1.004
2026/05/07 08:43:17.824,0.008,0.036,1.003
2026/05/07 08:43:17.843,0.009,0.035,1.003
2026/05/07 08:43:17.863,0.01,0.036,0.999
2026/05/07 08:43:17.883,0.007,0.035,1.0
2026/05/07 08:43:17.902,0.009,0.036,1.002
2026/05/07 08:43:17.922,0.008,0.044,1.003
2026/05/07 08:43:17.941,0.011,0.038,1.002
2026/05/07 08:43:17.961,0.008,0.037,0.999
2026/05/07 08:43:17.980,0.005,0.036,0.997
2026/05/07 08:43:18.000,0.008,0.037,1.005
2026/05/07 08:43:18.019,0.009,0.035,1.003
2026/05/07 08:43:18.039,0.012,0.04,1.002
2026/05/07 08:43:18.058,0.013,0.035,1.002
2026/05/07 08:43:18.078,0.01,0.034,1.0
2026/05/07 08:43:18.098,0.009,0.036,1.004
2026/05/07 08:43:18.117,0.009,0.037,1.005
2026/05/07 08:43:18.137,0.01,0.038,1.003
2026/05/07 08:43:18.156,0.007,0.037,0.997
2026/05/07 08:43:18.176,0.011,0.041,1.002
2026/05/07 08:43:18.195,0.012,0.037,1.005
2026/05/07 08:43:18.215,0.009,0.034,0.996
2026/05/07 08:43:18.234,0.006,0.033,0.997
2026/05/07 08:43:18.254,0.01,0.034,1.002
2026/05/07 08:43:18.273,0.007,0.036,0.996
2026/05/07 08:43:18.293,0.008,0.038,0.998
2026/05/07 08:43:18.312,0.012,0.036,1.0
2026/05/07 08:43:18.332,0.009,0.037,1.002
2026/05/07 08:43:18.352,0.008,0.035,1.004
2026/05/07 08:43:18.371,0.011,0.039,1.004
2026/05/07 08:43:18.391,0.009,0.036,1.004
2026/05/07 08:43:18.410,0.009,0.033,1.002
2026/05/07 08:43:18.430,0.01,0.038,1.005
2026/05/07 08:43:18.449,0.005,0.036,1.003
2026/05/07 08:43:18.469,0.008,0.04,0.999
2026/05/07 08:43:18.488,0.01,0.039,1.0
2026/05/07 08:43:18.508,0.007,0.036,1.004
2026/05/07 08:43:18.527,0.01,0.036,1.001
2026/05/07 08:43:18.547,0.008,0.035,0.996
2026/05/07 08:43:18.567,0.01,0.038,1.002
2026/05/07 08:43:18.586,0.008,0.037,1.0
2026/05/07 08:43:18.606,0.007,0.034,1.004
2026/05/07 08:43:18.625,0.006,0.037,1.005
2026/05/07 08:43:18.645,0.01,0.034,0.999
2026/05/07 08:43:18.664,0.009,0.04,0.997
2026/05/07 08:43:18.684,0.012,0.037,1.003
2026/05/07 08:43:18.703,0.009,0.035,1.007
2026/05/07 08:43:18.723,0.008,0.036,1.004
2026/05/07 08:43:18.742,0.01,0.035,1.001
2026/05/07 08:43:18.762,0.006,0.04,1.002
2026/05/07 08:43:18.782,0.012,0.04,1.003
2026/05/07 08:43:18.801,0.011,0.037,0.997
2026/05/07 08:43:18.821,0.01,0.033,1.011
2026/05/07 08:43:18.840,0.01,0.035,1.003
2026/05/07 08:43:18.860,0.008,0.037,1.004
2026/05/07 08:43:18.879,0.008,0.034,1.002
2026/05/07 08:43:18.899,0.013,0.034,1.003
2026/05/07 08:43:18.918,0.011,0.037,1.0
2026/05/07 08:43:18.938,0.007,0.034,1.003
2026/05/07 08:43:18.957,0.013,0.039,1.004
2026/05/07 08:43:18.977,0.007,0.039,1.005
2026/05/07 08:43:18.997,0.008,0.036,1.007
2026/05/07 08:43:19.016,0.014,0.034,1.004
2026/05/07 08:43:19.036,0.008,0.037,1.002
2026/05/07 08:43:19.055,0.013,0.037,1.008
2026/05/07 08:43:19.075,0.012,0.036,1.007
2026/05/07 08:43:19.094,0.013,0.038,1.007
2026/05/07 08:43:19.114,0.009,0.037,1.002
2026/05/07 08:43:19.133,0.009,0.038,1.006
2026/05/07 08:43:19.153,0.007,0.033,1.0
2026/05/07 08:43:19.172,0.007,0.036,0.999
2026/05/07 08:43:19.192,0.007,0.043,1.003
2026/05/07 08:43:19.211,0.009,0.032,0.997
2026/05/07 08:43:19.231,0.006,0.039,1.006
2026/05/07 08:43:19.251,0.012,0.036,0.998
2026/05/07 08:43:19.270,0.008,0.035,1.0
2026/05/07 08:43:19.290,0.01,0.038,1.001
2026/05/07 08:43:19.309,0.01,0.034,1.006
2026/05/07 08:43:19.329,0.011,0.04,1.006
2026/05/07 08:43:19.348,0.011,0.037,1.006
2026/05/07 08:43:19.368,0.01,0.035,1.0
2026/05/07 08:43:19.387,0.007,0.04,1.004
2026/05/07 08:43:19.407,0.009,0.037,0.999
2026/05/07 08:43:19.426,0.008,0.038,0.999
2026/05/07 08:43:19.446,0.01,0.036,1.004
2026/05/07 08:43:19.466,0.006,0.032,1.0
2026/05/07 08:43:19.485,0.012,0.033,1.002
2026/05/07 08:43:19.505,0.007,0.038,1.004
2026/05/07 08:43:19.524,0.014,0.038,0.997
2026/05/07 08:43:19.544,0.008,0.038,1.008
2026/05/07 08:43:19.563,0.013,0.036,0.998
2026/05/07 08:43:19.583,0.01,0.038,0.999
2026/05/07 08:43:19.602,0.009,0.039,1.006
2026/05/07 08:43:19.622,0.011,0.036,0.996
2026/05/07 08:43:19.641,0.008,0.037,1.004
2026/05/07 08:43:19.661,0.013,0.034,1.005
2026/05/07 08:43:19.681,0.007,0.041,1.002
2026/05/07 08:43:19.700,0.007,0.039,1.003
2026/05/07 08:43:19.720,0.011,0.043,0.999
2026/05/07 08:43:19.739,0.008,0.037,1.005
2026/05/07 08:43:19.759,0.012,0.033,1.007
2026/05/07 08:43:19.778,0.011,0.034,1.005
2026/05/07 08:43:19.798,0.009,0.039,0.999
2026/05/07 08:43:19.817,0.012,0.035,1.0
2026/05/07 08:43:19.837,0.02,0.037,1.004
2026/05/07 08:43:19.856,0.01,0.037,1.006
2026/05/07 08:43:19.876,0.009,0.04,0.997
2026/05/07 08:43:19.896,0.007,0.03,1.005
2026/05/07 08:43:19.915,0.005,0.035,1.004
2026/05/07 08:43:19.935,0.008,0.041,1.0
2026/05/07 08:43:19.954,0.011,0.036,1.005
2026/05/07 08:43:19.974,0.01,0.038,1.004
2026/05/07 08:43:19.993,0.005,0.033,1.002
2026/05/07 08:43:20.013,0.009,0.041,1.005
2026/05/07 08:43:20.032,0.012,0.038,1.005
2026/05/07 08:43:20.052,0.006,0.038,0.999
2026/05/07 08:43:20.071,0.013,0.037,1.003
2026/05/07 08:43:20.091,0.004,0.04,1.011
2026/05/07 08:43:20.111,0.009,0.042,0.993
2026/05/07 08:43:20.130,0.001,0.027,1.042
2026/05/07 08:43:20.150,0.018,0.038,0.99
2026/05/07 08:43:20.169,0.01,0.037,1.001
2026/05/07 08:43:20.189,0.01,0.034,1.001
2026/05/07 08:43:20.208,0.011,0.036,0.998
2026/05/07 08:43:20.228,0.007,0.035,1.004
2026/05/07 08:43:20.247,0.009,0.037,1.001
2026/05/07 08:43:20.267,0.007,0.038,1.007
2026/05/07 08:43:20.286,0.009,0.039,1.001
2026/05/07 08:43:20.306,0.009,0.037,1.006
2026/05/07 08:43:20.325,0.011,0.033,1.002
2026/05/07 08:43:20.345,0.012,0.039,1.003
2026/05/07 08:43:20.365,0.017,0.04,1.013
2026/05/07 08:43:20.384,0.011,0.04,0.999
2026/05/07 08:43:20.404,0.011,0.042,1.001
2026/05/07 08:43:20.423,0.009,0.036,1.005
2026/05/07 08:43:20.443,0.009,0.038,0.996
2026/05/07 08:43:20.462,0.009,0.036,1.004
2026/05/07 08:43:20.482,0.01,0.038,1.003
2026/05/07 08:43:20.501,0.011,0.041,0.999
2026/05/07 08:43:20.521,0.01,0.036,1.006
2026/05/07 08:43:20.540,0.011,0.037,0.999
2026/05/07 08:43:20.560,0.008,0.038,1.003
2026/05/07 08:43:20.580,0.012,0.042,1.001
2026/05/07 08:43:20.599,0.013,0.038,1.001
2026/05/07 08:43:20.619,0.012,0.037,1.004
2026/05/07 08:43:20.638,0.011,0.038,1.002
2026/05/07 08:43:20.658,0.009,0.036,1.005
2026/05/07 08:43:20.677,0.008,0.038,1.003
2026/05/07 08:43:20.697,0.012,0.039,1.004
2026/05/07 08:43:20.716,0.014,0.038,1.003
2026/05/07 08:43:20.736,0.011,0.035,0.999
2026/05/07 08:43:20.755,0.01,0.037,0.999
2026/05/07 08:43:20.775,0.009,0.037,1.004
2026/05/07 08:43:20.795,0.015,0.035,1.002
2026/05/07 08:43:20.814,0.009,0.038,1.001
2026/05/07 08:43:20.834,0.012,0.036,1.007
2026/05/07 08:43:20.853,0.012,0.038,1.004
2026/05/07 08:43:20.873,0.011,0.035,1.004
2026/05/07 08:43:20.892,0.01,0.037,1.002
2026/05/07 08:43:20.912,0.008,0.039,1.002
2026/05/07 08:43:20.931,0.008,0.038,1.003
2026/05/07 08:43:20.951,0.009,0.04,1.002
2026/05/07 08:43:20.970,0.011,0.036,1.004
2026/05/07 08:43:20.990,0.011,0.037,1.008
2026/05/07 08:43:21.009,0.01,0.036,1.002
2026/05/07 08:43:21.029,0.009,0.037,1.003
2026/05/07 08:43:21.049,0.008,0.039,1.0
2026/05/07 08:43:21.068,0.007,0.037,1.005
2026/05/07 08:43:21.088,0.005,0.039,1.001
2026/05/07 08:43:21.107,0.009,0.034,1.001
2026/05/07 08:43:21.127,0.01,0.036,0.998
2026/05/07 08:43:21.146,0.01,0.034,1.006
2026/05/07 08:43:21.166,0.01,0.04,1.0
2026/05/07 08:43:21.185,0.007,0.037,1.003
2026/05/07 08:43:21.205,0.01,0.037,1.002
2026/05/07 08:43:21.224,0.011,0.036,1.002
2026/05/07 08:43:21.244,0.011,0.033,1.002
2026/05/07 08:43:21.264,0.009,0.036,1.001
2026/05/07 08:43:21.283,0.011,0.034,1.005
2026/05/07 08:43:21.303,0.01,0.039,1.003
2026/05/07 08:43:21.322,0.011,0.033,1.004
2026/05/07 08:43:21.342,0.014,0.037,1.004
2026/05/07 08:43:21.361,0.01,0.037,1.002
2026/05/07 08:43:21.381,0.012,0.032,1.004
2026/05/07 08:43:21.400,0.009,0.036,1.001
2026/05/07 08:43:21.420,0.01,0.039,0.999
2026/05/07 08:43:21.439,0.008,0.035,1.003
2026/05/07 08:43:21.459,0.011,0.036,0.999
2026/05/07 08:43:21.479,0.009,0.042,1.0
2026/05/07 08:43:21.498,0.012,0.037,1.004
2026/05/07 08:43:21.518,0.009,0.038,1.001
2026/05/07 08:43:21.537,0.009,0.033,1.003
2026/05/07 08:43:21.557,0.01,0.037,1.003
2026/05/07 08:43:21.576,0.01,0.038,1.0
2026/05/07 08:43:21.596,0.008,0.037,1.002
2026/05/07 08:43:21.615,0.011,0.034,0.999
2026/05/07 08:43:21.635,0.01,0.035,0.999
2026/05/07 08:43:21.654,0.012,0.037,1.002
2026/05/07 08:43:21.674,0.009,0.035,1.002
2026/05/07 08:43:21.693,0.009,0.036,1.002
2026/05/07 08:43:21.713,0.01,0.042,1.004
2026/05/07 08:43:21.733,0.008,0.037,1.001
2026/05/07 08:43:21.752,0.01,0.042,1.001
2026/05/07 08:43:21.772,0.004,0.041,1.001
2026/05/07 08:43:21.791,0.012,0.036,1.001
2026/05/07 08:43:21.811,0.01,0.036,1.002
2026/05/07 08:43:21.830,0.01,0.038,0.999
2026/05/07 08:43:21.850,0.013,0.036,1.003
2026/05/07 08:43:21.869,0.009,0.034,1.001
2026/05/07 08:43:21.889,0.012,0.034,0.999
2026/05/07 08:43:21.908,0.01,0.04,1.006
2026/05/07 08:43:21.928,0.009,0.038,1.0
2026/05/07 08:43:21.948,0.01,0.04,1.0
2026/05/07 08:43:21.967,0.011,0.036,1.001
2026/05/07 08:43:21.987,0.007,0.036,1.003
2026/05/07 08:43:22.006,0.011,0.037,1.004
2026/05/07 08:43:22.026,0.009,0.035,1.002
2026/05/07 08:43:22.045,0.004,0.037,1.002
2026/05/07 08:43:22.065,0.008,0.038,0.998
2026/05/07 08:43:22.084,0.01,0.035,1.007
2026/05/07 08:43:22.104,0.007,0.038,1.004
2026/05/07 08:43:22.123,0.011,0.041,1.0
2026/05/07 08:43:22.143,0.011,0.036,1.0
2026/05/07 08:43:22.163,0.01,0.039,1.003
2026/05/07 08:43:22.182,0.012,0.037,1.002
2026/05/07 08:43:22.202,0.008,0.036,1.002
2026/05/07 08:43:22.221,0.012,0.04,1.003
2026/05/07 08:43:22.241,0.009,0.038,1.0
2026/05/07 08:43:22.260,0.009,0.039,1.007
2026/05/07 08:43:22.280,0.014,0.037,1.0
2026/05/07 08:43:22.299,0.01,0.036,1.002
2026/05/07 08:43:22.319,0.008,0.036,1.002
2026/05/07 08:43:22.338,0.006,0.039,1.003
2026/05/07 08:43:22.358,0.01,0.037,0.999
2026/05/07 08:43:22.377,0.011,0.039,0.997
2026/05/07 08:43:22.397,0.01,0.035,1.0
2026/05/07 08:43:22.417,0.009,0.036,1.002
2026/05/07 08:43:22.436,0.012,0.037,1.0
2026/05/07 08:43:22.456,0.009,0.039,1.0
2026/05/07 08:43:22.475,0.008,0.039,1.0
2026/05/07 08:43:22.495,0.009,0.038,1.006
2026/05/07 08:43:22.514,0.011,0.035,0.999
2026/05/07 08:43:22.534,0.005,0.042,1.001
2026/05/07 08:43:22.553,0.008,0.038,0.999
2026/05/07 08:43:22.573,0.006,0.038,1.004
2026/05/07 08:43:22.592,0.009,0.032,1.004
2026/05/07 08:43:22.612,0.009,0.037,1.002
2026/05/07 08:43:22.632,0.009,0.038,1.004
2026/05/07 08:43:22.651,0.009,0.037,1.001
2026/05/07 08:43:22.671,0.007,0.037,1.004
2026/05/07 08:43:22.690,0.011,0.036,1.002
2026/05/07 08:43:22.710,0.012,0.037,1.002
2026/05/07 08:43:22.729,0.01,0.039,1.002
2026/05/07 08:43:22.749,0.006,0.037,1.004
2026/05/07 08:43:22.768,0.009,0.035,1.002
2026/05/07 08:43:22.788,0.01,0.035,1.003
2026/05/07 08:43:22.807,0.012,0.031,1.004
2026/05/07 08:43:22.827,0.009,0.033,1.001
2026/05/07 08:43:22.847,0.012,0.04,1.002
2026/05/07 08:43:22.866,0.01,0.034,1.002
2026/05/07 08:43:22.886,0.005,0.036,1.005
2026/05/07 08:43:22.905,0.009,0.039,1.001
2026/05/07 08:43:22.925,0.011,0.037,1.002
2026/05/07 08:43:22.944,0.009,0.038,1.002
2026/05/07 08:43:22.964,0.01,0.036,1.001
2026/05/07 08:43:22.983,0.013,0.04,1.002
2026/05/07 08:43:23.003,0.006,0.038,1.002
2026/05/07 08:43:23.022,0.007,0.036,0.999
2026/05/07 08:43:23.042,0.008,0.035,1.001
2026/05/07 08:43:23.061,0.004,0.035,1.001
2026/05/07 08:43:23.081,0.01,0.033,1.0
2026/05/07 08:43:23.101,0.008,0.037,1.002
2026/05/07 08:43:23.120,0.011,0.039,1.001
2026/05/07 08:43:23.140,0.009,0.036,0.999
2026/05/07 08:43:23.159,0.01,0.038,1.002
2026/05/07 08:43:23.179,0.01,0.035,1.003
2026/05/07 08:43:23.198,0.007,0.038,1.001
2026/05/07 08:43:23.218,0.01,0.037,1.004
2026/05/07 08:43:23.237,0.009,0.038,0.996
2026/05/07 08:43:23.257,0.012,0.036,1.0
2026/05/07 08:43:23.276,0.008,0.036,1.001
2026/05/07 08:43:23.296,0.01,0.037,1.003
2026/05/07 08:43:23.316,0.008,0.033,1.002
2026/05/07 08:43:23.335,0.01,0.038,1.0
2026/05/07 08:43:23.355,0.006,0.034,1.001
2026/05/07 08:43:23.374,0.008,0.038,1.001
2026/05/07 08:43:23.394,0.008,0.037,0.998
2026/05/07 08:43:23.413,0.007,0.033,1.001
2026/05/07 08:43:23.433,0.008,0.038,1.005
2026/05/07 08:43:23.452,0.008,0.039,1.0
2026/05/07 08:43:23.472,0.011,0.036,1.001
2026/05/07 08:43:23.491,0.008,0.033,1.002
2026/05/07 08:43:23.511,0.011,0.037,0.996
2026/05/07 08:43:23.530,0.007,0.036,1.0
2026/05/07 08:43:23.550,0.008,0.037,1.002
2026/05/07 08:43:23.570,0.011,0.039,1.0
2026/05/07 08:43:23.589,0.005,0.038,1.0
2026/05/07 08:43:23.609,0.009,0.038,1.003
2026/05/07 08:43:23.628,0.008,0.04,1.005
2026/05/07 08:43:23.648,0.01,0.036,1.005
2026/05/07 08:43:23.667,0.006,0.038,1.004
2026/05/07 08:43:23.687,0.008,0.039,1.005
2026/05/07 08:43:23.706,0.006,0.039,1.006
2026/05/07 08:43:23.726,0.006,0.036,1.003
2026/05/07 08:43:23.745,0.008,0.036,1.005
2026/05/07 08:43:23.765,0.01,0.034,1.004
2026/05/07 08:43:23.785,0.009,0.037,1.001
2026/05/07 08:43:23.804,0.007,0.039,1.004
2026/05/07 08:43:23.824,0.008,0.037,1.003
2026/05/07 08:43:23.843,0.008,0.035,0.999
2026/05/07 08:43:23.863,0.009,0.038,1.0
2026/05/07 08:43:23.882,0.008,0.039,1.005
2026/05/07 08:43:23.902,0.012,0.04,1.004
2026/05/07 08:43:23.921,0.008,0.037,1.0
2026/05/07 08:43:23.941,0.009,0.038,1.001
2026/05/07 08:43:23.960,0.006,0.04,1.0
2026/05/07 08:43:23.980,0.008,0.036,1.0
2026/05/07 08:43:23.999,0.01,0.036,1.002
2026/05/07 08:43:24.019,0.007,0.041,1.003
2026/05/07 08:43:24.039,0.01,0.038,1.003
2026/05/07 08:43:24.058,0.007,0.037,1.001
2026/05/07 08:43:24.078,0.013,0.039,1.006
2026/05/07 08:43:24.097,0.01,0.039,1.001
2026/05/07 08:43:24.117,0.011,0.036,1.001
2026/05/07 08:43:24.136,0.011,0.037,0.999
2026/05/07 08:43:24.156,0.01,0.036,1.0
2026/05/07 08:43:24.175,0.005,0.036,1.002
2026/05/07 08:43:24.195,0.007,0.035,1.003
2026/05/07 08:43:24.214,0.007,0.036,1.002
2026/05/07 08:43:24.234,0.01,0.034,1.0
2026/05/07 08:43:24.254,0.014,0.034,1.006
2026/05/07 08:43:24.273,0.01,0.034,1.003
2026/05/07 08:43:24.293,0.01,0.036,1.006
2026/05/07 08:43:24.312,0.008,0.036,1.0
2026/05/07 08:43:24.332,0.004,0.034,1.003
2026/05/07 08:43:24.351,0.01,0.041,1.005
2026/05/07 08:43:24.371,0.008,0.037,0.995
2026/05/07 08:43:24.390,0.009,0.038,1.001
2026/05/07 08:43:24.410,0.011,0.036,1.004
2026/05/07 08:43:24.429,0.009,0.042,1.003
2026/05/07 08:43:24.449,0.008,0.035,1.004
2026/05/07 08:43:24.468,0.009,0.038,1.0
2026/05/07 08:43:24.488,0.009,0.038,1.0
2026/05/07 08:43:24.508,0.013,0.036,1.003
2026/05/07 08:43:24.527,0.01,0.038,1.004
2026/05/07 08:43:24.547,0.012,0.034,1.005
2026/05/07 08:43:24.566,0.009,0.041,1.0
2026/05/07 08:43:24.586,0.009,0.038,1.001
2026/05/07 08:43:24.605,0.007,0.034,1.001
2026/05/07 08:43:24.625,0.008,0.041,1.004
2026/05/07 08:43:24.644,0.006,0.035,1.005
2026/05/07 08:43:24.664,0.01,0.037,0.998
2026/05/07 08:43:24.683,0.006,0.037,1.003
2026/05/07 08:43:24.703,0.012,0.035,1.001
2026/05/07 08:43:24.723,0.01,0.04,1.004
2026/05/07 08:43:24.742,0.012,0.037,1.002
2026/05/07 08:43:24.762,0.009,0.035,1.002
2026/05/07 08:43:24.781,0.006,0.038,1.002
2026/05/07 08:43:24.801,0.01,0.039,1.0
2026/05/07 08:43:24.820,0.011,0.038,1.006
2026/05/07 08:43:24.840,0.012,0.037,0.997
2026/05/07 08:43:24.859,0.006,0.036,1.0
2026/05/07 08:43:24.879,0.011,0.038,0.998
2026/05/07 08:43:24.898,0.012,0.038,1.008
2026/05/07 08:43:24.918,0.011,0.042,0.999
2026/05/07 08:43:24.937,0.006,0.037,0.995
2026/05/07 08:43:24.957,0.007,0.039,1.005
2026/05/07 08:43:24.977,0.01,0.037,1.004
2026/05/07 08:43:24.996,0.009,0.032,0.998
2026/05/07 08:43:25.016,0.008,0.038,1.001
2026/05/07 08:43:25.035,0.012,0.04,0.998
2026/05/07 08:43:25.055,0.012,0.037,1.004
2026/05/07 08:43:25.074,0.011,0.035,1.005
2026/05/07 08:43:25.094,0.013,0.036,1.004
2026/05/07 08:43:25.113,0.009,0.038,1.002
2026/05/07 08:43:25.133,0.011,0.034,1.001
2026/05/07 08:43:25.152,0.009,0.037,0.997
2026/05/07 08:43:25.172,0.01,0.039,1.0
2026/05/07 08:43:25.192,0.009,0.037,1.003
2026/05/07 08:43:25.211,0.011,0.035,1.003
2026/05/07 08:43:25.231,0.013,0.034,1.004
2026/05/07 08:43:25.250,0.012,0.036,1.003
2026/05/07 08:43:25.270,0.008,0.037,0.998
2026/05/07 08:43:25.289,0.009,0.038,1.005
2026/05/07 08:43:25.309,0.004,0.036,1.003
2026/05/07 08:43:25.328,0.01,0.038,1.004
2026/05/07 08:43:25.348,0.012,0.037,1.002
2026/05/07 08:43:25.367,0.012,0.033,1.001
2026/05/07 08:43:25.387,0.009,0.038,1.0
2026/05/07 08:43:25.406,0.009,0.037,1.004
2026/05/07 08:43:25.426,0.009,0.034,1.006
2026/05/07 08:43:25.446,0.01,0.037,0.999
2026/05/07 08:43:25.465,0.011,0.038,0.999
2026/05/07 08:43:25.485,0.009,0.037,1.003
2026/05/07 08:43:25.504,0.01,0.037,1.004
2026/05/07 08:43:25.524,0.009,0.033,1.001
2026/05/07 08:43:25.543,0.011,0.036,1.003
2026/05/07 08:43:25.563,0.011,0.035,0.999
2026/05/07 08:43:25.582,0.01,0.035,1.003
2026/05/07 08:43:25.602,0.009,0.038,1.0
2026/05/07 08:43:25.621,0.012,0.04,1.002
2026/05/07 08:43:25.641,0.008,0.037,0.999
2026/05/07 08:43:25.661,0.013,0.038,1.002
2026/05/07 08:43:25.680,0.007,0.037,1.001
2026/05/07 08:43:25.700,0.009,0.039,1.003
2026/05/07 08:43:25.719,0.009,0.039,1.001
2026/05/07 08:43:25.739,0.011,0.038,1.004
2026/05/07 08:43:25.758,0.006,0.039,1.004
2026/05/07 08:43:25.778,0.01,0.038,1.004
2026/05/07 08:43:25.797,0.01,0.039,1.002
2026/05/07 08:43:25.817,0.011,0.039,1.0
2026/05/07 08:43:25.836,0.007,0.038,0.996
2026/05/07 08:43:25.856,0.01,0.036,1.005
2026/05/07 08:43:25.875,0.011,0.036,1.0
2026/05/07 08:43:25.895,0.008,0.037,0.998
2026/05/07 08:43:25.915,0.013,0.034,1.0
2026/05/07 08:43:25.934,0.011,0.036,1.004
2026/05/07 08:43:25.954,0.01,0.036,0.999
2026/05/07 08:43:25.973,0.012,0.04,1.003
2026/05/07 08:43:25.993,0.011,0.038,1.006
2026/05/07 08:43:26.012,0.009,0.034,0.998
2026/05/07 08:43:26.032,0.009,0.04,0.999
2026/05/07 08:43:26.051,0.007,0.038,1.002
2026/05/07 08:43:26.071,0.01,0.039,1.003
2026/05/07 08:43:26.090,0.012,0.034,1.003
2026/05/07 08:43:26.110,0.006,0.036,1.001
2026/05/07 08:43:26.130,0.01,0.036,1.001
2026/05/07 08:43:26.149,0.006,0.038,1.002
2026/05/07 08:43:26.169,0.009,0.038,0.999
2026/05/07 08:43:26.188,0.011,0.039,1.001
2026/05/07 08:43:26.208,0.009,0.036,1.001
2026/05/07 08:43:26.227,0.01,0.036,0.999
2026/05/07 08:43:26.247,0.008,0.039,1.0
2026/05/07 08:43:26.266,0.01,0.038,1.001
2026/05/07 08:43:26.286,0.009,0.036,1.002
2026/05/07 08:43:26.305,0.006,0.035,1.002
2026/05/07 08:43:26.325,0.007,0.037,1.004
2026/05/07 08:43:26.345,0.01,0.036,1.004
2026/05/07 08:43:26.364,0.008,0.034,1.002
2026/05/07 08:43:26.384,0.012,0.036,1.002
2026/05/07 08:43:26.403,0.008,0.033,1.001
2026/05/07 08:43:26.423,0.009,0.037,1.007
2026/05/07 08:43:26.442,0.007,0.042,1.004
2026/05/07 08:43:26.462,0.01,0.038,1.003
2026/05/07 08:43:26.481,0.013,0.036,1.005
2026/05/07 08:43:26.501,0.01,0.035,1.009
2026/05/07 08:43:26.520,0.012,0.038,0.994
2026/05/07 08:43:26.540,0.011,0.036,0.993
2026/05/07 08:43:26.559,0.007,0.039,1.001
2026/05/07 08:43:26.579,0.009,0.035,1.009
2026/05/07 08:43:26.599,0.008,0.031,1.0
2026/05/07 08:43:26.618,0.008,0.036,1.006
2026/05/07 08:43:26.638,0.008,0.038,0.999
2026/05/07 08:43:26.657,0.008,0.038,1.005
2026/05/07 08:43:26.677,0.012,0.036,1.009
2026/05/07 08:43:26.696,-0.017,0.01,0.979
2026/05/07 08:43:26.716,0.008,0.036,1.001
2026/05/07 08:43:26.735,0.01,0.035,1.003
2026/05/07 08:43:26.755,0.009,0.044,1.006
2026/05/07 08:43:26.774,0.004,0.038,0.995
2026/05/07 08:43:26.794,0.004,0.034,1.012
2026/05/07 08:43:26.814,0.008,0.036,0.987
2026/05/07 08:43:26.833,-0.009,0.029,0.995
2026/05/07 08:43:26.853,0.007,0.037,1.003
2026/05/07 08:43:26.872,0.009,0.035,0.995
2026/05/07 08:43:26.892,0.008,0.037,1.003
2026/05/07 08:43:26.911,0.004,0.035,1.001
2026/05/07 08:43:26.931,0.008,0.036,1.0
2026/05/07 08:43:26.950,0.008,0.037,1.007
2026/05/07 08:43:26.970,0.009,0.037,1.006
2026/05/07 08:43:26.989,0.007,0.037,0.997
2026/05/07 08:43:27.009,0.007,0.037,1.011
2026/05/07 08:43:27.028,0.008,0.038,1.009
2026/05/07 08:43:27.048,0.01,0.034,1.006
2026/05/07 08:43:27.068,0.008,0.031,0.989
2026/05/07 08:43:27.087,0.01,0.035,0.996
2026/05/07 08:43:27.107,0.011,0.036,1.004
2026/05/07 08:43:27.126,0.012,0.04,1.002
2026/05/07 08:43:27.146,0.01,0.037,1.004
2026/05/07 08:43:27.165,0.01,0.039,1.002
2026/05/07 08:43:27.185,0.01,0.031,1.004
2026/05/07 08:43:27.204,0.01,0.036,1.002
2026/05/07 08:43:27.224,0.009,0.04,1.003
2026/05/07 08:43:27.243,0.01,0.037,1.0
2026/05/07 08:43:27.263,0.009,0.036,1.002
2026/05/07 08:43:27.283,0.01,0.038,1.003
2026/05/07 08:43:27.302,0.008,0.034,1.003
2026/05/07 08:43:27.322,0.01,0.039,1.002
2026/05/07 08:43:27.341,0.011,0.039,0.998
2026/05/07 08:43:27.361,0.006,0.034,1.007
2026/05/07 08:43:27.380,0.008,0.041,0.998
2026/05/07 08:43:27.400,0.01,0.036,1.0
2026/05/07 08:43:27.419,0.008,0.035,1.002
2026/05/07 08:43:27.439,0.012,0.037,1.001
2026/05/07 08:43:27.458,0.006,0.035,0.998
2026/05/07 08:43:27.478,0.007,0.037,0.995
2026/05/07 08:43:27.498,0.007,0.037,1.021
2026/05/07 08:43:27.517,0.01,0.038,1.002
2026/05/07 08:43:27.537,0.011,0.039,0.996
2026/05/07 08:43:27.556,0.007,0.04,1.008
2026/05/07 08:43:27.576,0.013,0.035,1.005
2026/05/07 08:43:27.595,0.009,0.037,1.0
2026/05/07 08:43:27.615,0.009,0.036,1.0
2026/05/07 08:43:27.634,0.009,0.037,1.003
2026/05/07 08:43:27.654,0.006,0.041,1.001
2026/05/07 08:43:27.673,0.01,0.035,1.002
2026/05/07 08:43:27.693,0.009,0.04,0.997
2026/05/07 08:43:27.712,0.008,0.034,1.001
2026/05/07 08:43:27.732,0.012,0.034,1.001
2026/05/07 08:43:27.752,0.008,0.038,1.003
2026/05/07 08:43:27.771,0.01,0.037,1.002
2026/05/07 08:43:27.791,0.01,0.034,0.997
2026/05/07 08:43:27.810,0.007,0.035,1.001
2026/05/07 08:43:27.830,0.01,0.038,1.001
2026/05/07 08:43:27.849,0.008,0.037,1.002
2026/05/07 08:43:27.869,0.008,0.033,1.003
2026/05/07 08:43:27.888,0.006,0.036,1.001
2026/05/07 08:43:27.908,0.007,0.038,1.002
2026/05/07 08:43:27.927,0.008,0.037,1.002
2026/05/07 08:43:27.947,0.009,0.038,1.003
2026/05/07 08:43:27.967,0.011,0.035,0.997
2026/05/07 08:43:27.986,0.008,0.037,1.002
2026/05/07 08:43:28.006,0.01,0.04,1.004
2026/05/07 08:43:28.025,0.01,0.039,0.996
2026/05/07 08:43:28.045,0.011,0.035,1.009
2026/05/07 08:43:28.064,0.011,0.038,0.999
2026/05/07 08:43:28.084,0.008,0.038,1.008
2026/05/07 08:43:28.103,0.009,0.037,1.007
2026/05/07 08:43:28.123,0.01,0.035,1.001
2026/05/07 08:43:28.142,0.011,0.037,1.0
2026/05/07 08:43:28.162,0.009,0.036,1.002
2026/05/07 08:43:28.182,0.011,0.042,1.005
2026/05/07 08:43:28.201,0.009,0.036,1.0
2026/05/07 08:43:28.221,0.008,0.036,0.999
2026/05/07 08:43:28.240,0.01,0.037,1.005
2026/05/07 08:43:28.260,0.007,0.034,1.006
2026/05/07 08:43:28.279,0.01,0.032,1.001
2026/05/07 08:43:28.299,0.012,0.033,1.001
2026/05/07 08:43:28.318,0.01,0.035,0.998
2026/05/07 08:43:28.338,0.008,0.036,1.002
2026/05/07 08:43:28.357,0.011,0.034,1.0
2026/05/07 08:43:28.377,0.006,0.039,1.003
2026/05/07 08:43:28.396,0.009,0.034,1.001
2026/05/07 08:43:28.416,0.01,0.035,1.002
2026/05/07 08:43:28.436,0.011,0.036,1.005
2026/05/07 08:43:28.455,0.007,0.037,1.006
2026/05/07 08:43:28.475,0.011,0.036,1.001
2026/05/07 08:43:28.494,0.009,0.034,1.001
2026/05/07 08:43:28.514,0.009,0.036,1.002
2026/05/07 08:43:28.533,0.006,0.034,1.009
2026/05/07 08:43:28.553,0.014,0.038,0.999
2026/05/07 08:43:28.572,0.01,0.035,1.001
2026/05/07 08:43:28.592,0.009,0.039,0.999
2026/05/07 08:43:28.611,0.01,0.039,1.01
2026/05/07 08:43:28.631,0.009,0.035,1.001
2026/05/07 08:43:28.651,0.008,0.04,0.997
2026/05/07 08:43:28.670,0.011,0.036,1.003
2026/05/07 08:43:28.690,0.006,0.036,0.997
2026/05/07 08:43:28.709,0.011,0.037,1.007
2026/05/07 08:43:28.729,0.011,0.032,1.0
2026/05/07 08:43:28.748,0.008,0.039,1.003
2026/05/07 08:43:28.768,0.012,0.035,1.002
2026/05/07 08:43:28.787,0.012,0.036,1.004
2026/05/07 08:43:28.807,0.009,0.037,1.001
2026/05/07 08:43:28.826,0.007,0.034,1.008
2026/05/07 08:43:28.846,0.01,0.039,1.003
2026/05/07 08:43:28.865,0.013,0.036,0.998
2026/05/07 08:43:28.885,0.008,0.035,1.004
2026/05/07 08:43:28.905,0.008,0.041,1.0
2026/05/07 08:43:28.924,0.007,0.039,1.0
2026/05/07 08:43:28.944,0.01,0.037,1.002
2026/05/07 08:43:28.963,0.01,0.038,1.001
2026/05/07 08:43:28.983,0.01,0.035,1.002
2026/05/07 08:43:29.002,0.006,0.037,1.001
2026/05/07 08:43:29.022,0.011,0.036,1.002
2026/05/07 08:43:29.041,0.011,0.04,0.996
2026/05/07 08:43:29.061,0.01,0.04,0.996
2026/05/07 08:43:29.080,0.009,0.042,1.006
2026/05/07 08:43:29.100,0.012,0.039,1.006
2026/05/07 08:43:29.120,0.009,0.037,1.002
2026/05/07 08:43:29.139,0.009,0.039,1.004
2026/05/07 08:43:29.159,0.012,0.039,1.005
2026/05/07 08:43:29.178,0.009,0.036,1.001
2026/05/07 08:43:29.198,0.013,0.036,1.005
2026/05/07 08:43:29.217,0.006,0.039,1.004
2026/05/07 08:43:29.237,0.005,0.04,1.002
2026/05/07 08:43:29.256,0.007,0.036,1.001
2026/05/07 08:43:29.276,0.01,0.037,1.006
2026/05/07 08:43:29.295,0.011,0.034,1.001
2026/05/07 08:43:29.315,0.01,0.035,1.001
2026/05/07 08:43:29.335,0.012,0.039,0.998
2026/05/07 08:43:29.354,0.007,0.036,1.0
2026/05/07 08:43:29.374,0.01,0.039,1.0
2026/05/07 08:43:29.393,0.01,0.038,1.0
2026/05/07 08:43:29.413,0.01,0.038,1.003
2026/05/07 08:43:29.432,0.009,0.034,1.002
2026/05/07 08:43:29.452,0.01,0.038,1.004
