Timestamp,ACC X,ACC Y,ACC Z
2026/05/07 08:39:17.998,0.085,0.051,1.017
2026/05/07 08:39:18.018,0.086,0.049,1.02
2026/05/07 08:39:18.037,0.083,0.05,1.014
2026/05/07 08:39:18.056,0.082,0.051,1.016
2026/05/07 08:39:18.075,0.083,0.054,1.015
2026/05/07 08:39:18.095,0.079,0.054,1.014
2026/05/07 08:39:18.114,0.082,0.049,1.015
2026/05/07 08:39:18.133,0.083,0.053,1.015
2026/05/07 08:39:18.152,0.083,0.05,1.011
2026/05/07 08:39:18.171,0.083,0.05,1.017
2026/05/07 08:39:18.191,0.085,0.048,1.014
2026/05/07 08:39:18.210,0.078,0.047,1.013
2026/05/07 08:39:18.229,0.081,0.046,1.019
2026/05/07 08:39:18.248,0.082,0.053,1.015
2026/05/07 08:39:18.268,0.083,0.052,1.015
2026/05/07 08:39:18.287,0.081,0.052,1.017
2026/05/07 08:39:18.306,0.085,0.052,1.021
2026/05/07 08:39:18.325,0.08,0.052,1.01
2026/05/07 08:39:18.345,0.082,0.049,1.021
2026/05/07 08:39:18.364,0.077,0.052,1.011
2026/05/07 08:39:18.383,0.084,0.052,1.014
2026/05/07 08:39:18.402,0.085,0.048,1.015
2026/05/07 08:39:18.421,0.081,0.05,1.014
2026/05/07 08:39:18.441,0.078,0.051,1.012
2026/05/07 08:39:18.460,0.084,0.044,1.023
2026/05/07 08:39:18.479,0.079,0.047,1.018
2026/05/07 08:39:18.498,0.081,0.052,1.019
2026/05/07 08:39:18.518,0.083,0.053,1.017
2026/05/07 08:39:18.537,0.082,0.051,1.017
2026/05/07 08:39:18.556,0.083,0.049,1.015
2026/05/07 08:39:18.575,0.082,0.052,1.019
2026/05/07 08:39:18.595,0.083,0.051,1.017
2026/05/07 08:39:18.614,0.085,0.047,1.015
2026/05/07 08:39:18.633,0.083,0.051,1.013
2026/05/07 08:39:18.652,0.084,0.048,1.015
2026/05/07 08:39:18.671,0.083,0.05,1.016
2026/05/07 08:39:18.691,0.086,0.051,1.013
2026/05/07 08:39:18.710,0.082,0.047,1.016
2026/05/07 08:39:18.729,0.079,0.048,1.016
2026/05/07 08:39:18.748,0.078,0.05,1.017
2026/05/07 08:39:18.768,0.086,0.05,1.014
2026/05/07 08:39:18.787,0.08,0.051,1.015
2026/05/07 08:39:18.806,0.081,0.052,1.007
2026/05/07 08:39:18.825,0.084,0.051,1.017
2026/05/07 08:39:18.845,0.086,0.054,1.012
2026/05/07 08:39:18.864,0.085,0.05,1.016
2026/05/07 08:39:18.883,0.085,0.052,1.013
2026/05/07 08:39:18.902,0.081,0.049,1.014
2026/05/07 08:39:18.921,0.084,0.052,1.021
2026/05/07 08:39:18.941,0.078,0.051,1.014
2026/05/07 08:39:18.960,0.082,0.049,1.02
2026/05/07 08:39:18.979,0.081,0.052,1.008
2026/05/07 08:39:18.998,0.084,0.053,1.018
2026/05/07 08:39:19.018,0.083,0.052,1.016
2026/05/07 08:39:19.037,0.082,0.048,1.015
2026/05/07 08:39:19.056,0.083,0.051,1.02
2026/05/07 08:39:19.075,0.081,0.05,1.015
2026/05/07 08:39:19.095,0.08,0.049,1.014
2026/05/07 08:39:19.114,0.083,0.048,1.019
2026/05/07 08:39:19.133,0.083,0.054,1.014
2026/05/07 08:39:19.152,0.08,0.05,1.015
2026/05/07 08:39:19.171,0.082,0.051,1.015
2026/05/07 08:39:19.191,0.081,0.052,1.016
2026/05/07 08:39:19.210,0.085,0.052,1.014
2026/05/07 08:39:19.229,0.086,0.052,1.015
2026/05/07 08:39:19.248,0.082,0.05,1.014
2026/05/07 08:39:19.268,0.084,0.051,1.012
2026/05/07 08:39:19.287,0.081,0.051,1.018
2026/05/07 08:39:19.306,0.085,0.049,1.017
2026/05/07 08:39:19.325,0.081,0.049,1.012
2026/05/07 08:39:19.345,0.084,0.052,1.015
2026/05/07 08:39:19.364,0.082,0.051,1.019
2026/05/07 08:39:19.383,0.079,0.05,1.012
2026/05/07 08:39:19.402,0.082,0.05,1.013
2026/05/07 08:39:19.421,0.081,0.048,1.015
2026/05/07 08:39:19.441,0.083,0.049,1.01
2026/05/07 08:39:19.460,0.084,0.053,1.02
2026/05/07 08:39:19.479,0.081,0.055,1.014
2026/05/07 08:39:19.498,0.083,0.055,1.011
2026/05/07 08:39:19.518,0.082,0.05,1.02
2026/05/07 08:39:19.537,0.082,0.05,1.012
2026/05/07 08:39:19.556,0.083,0.049,1.014
2026/05/07 08:39:19.575,0.082,0.049,1.016
2026/05/07 08:39:19.595,0.085,0.051,1.016
2026/05/07 08:39:19.614,0.083,0.052,1.015
2026/05/07 08:39:19.633,0.084,0.052,1.016
2026/05/07 08:39:19.652,0.082,0.053,1.014
2026/05/07 08:39:19.671,0.083,0.051,1.016
2026/05/07 08:39:19.691,0.082,0.052,1.015
2026/05/07 08:39:19.710,0.079,0.051,1.012
2026/05/07 08:39:19.729,0.082,0.053,1.014
2026/05/07 08:39:19.748,0.081,0.05,1.017
2026/05/07 08:39:19.768,0.087,0.052,1.015
2026/05/07 08:39:19.787,0.08,0.052,1.015
2026/05/07 08:39:19.806,0.085,0.051,1.014
2026/05/07 08:39:19.825,0.085,0.052,1.02
2026/05/07 08:39:19.845,0.079,0.053,1.018
2026/05/07 08:39:19.864,0.085,0.05,1.016
2026/05/07 08:39:19.883,0.087,0.054,1.016
2026/05/07 08:39:19.902,0.081,0.053,1.017
2026/05/07 08:39:19.921,0.085,0.051,1.015
2026/05/07 08:39:19.941,0.083,0.053,1.014
2026/05/07 08:39:19.960,0.081,0.054,1.013
2026/05/07 08:39:19.979,0.081,0.051,1.017
2026/05/07 08:39:19.998,0.083,0.05,1.013
2026/05/07 08:39:20.018,0.08,0.052,1.016
2026/05/07 08:39:20.037,0.084,0.053,1.014
2026/05/07 08:39:20.056,0.085,0.048,1.013
2026/05/07 08:39:20.075,0.087,0.051,1.013
2026/05/07 08:39:20.095,0.084,0.052,1.014
2026/05/07 08:39:20.114,0.085,0.051,1.015
2026/05/07 08:39:20.133,0.081,0.051,1.015
2026/05/07 08:39:20.152,0.081,0.053,1.016
2026/05/07 08:39:20.171,0.085,0.05,1.016
2026/05/07 08:39:20.191,0.082,0.053,1.016
2026/05/07 08:39:20.210,0.082,0.048,1.012
2026/05/07 08:39:20.229,0.082,0.049,1.015
2026/05/07 08:39:20.248,0.086,0.051,1.016
2026/05/07 08:39:20.268,0.081,0.048,1.013
2026/05/07 08:39:20.287,0.079,0.051,1.017
2026/05/07 08:39:20.306,0.083,0.047,1.016
2026/05/07 08:39:20.325,0.081,0.05,1.015
2026/05/07 08:39:20.345,0.081,0.05,1.015
2026/05/07 08:39:20.364,0.08,0.048,1.012
2026/05/07 08:39:20.383,0.084,0.052,1.018
2026/05/07 08:39:20.402,0.084,0.047,1.016
2026/05/07 08:39:20.421,0.082,0.05,1.012
2026/05/07 08:39:20.441,0.085,0.049,1.018
2026/05/07 08:39:20.460,0.082,0.05,1.015
2026/05/07 08:39:20.480,0.078,0.052,1.018
2026/05/07 08:39:20.500,0.084,0.051,1.02
2026/05/07 08:39:20.521,0.084,0.053,1.016
2026/05/07 08:39:20.541,0.081,0.052,1.017
2026/05/07 08:39:20.561,0.081,0.052,1.015
2026/05/07 08:39:20.581,0.08,0.049,1.013
2026/05/07 08:39:20.601,0.085,0.05,1.015
2026/05/07 08:39:20.622,0.081,0.051,1.018
2026/05/07 08:39:20.642,0.084,0.055,1.014
2026/05/07 08:39:20.662,0.078,0.05,1.015
2026/05/07 08:39:20.682,0.081,0.051,1.016
2026/05/07 08:39:20.702,0.083,0.051,1.013
2026/05/07 08:39:20.722,0.081,0.053,1.016
2026/05/07 08:39:20.743,0.085,0.05,1.016
2026/05/07 08:39:20.763,0.082,0.052,1.015
2026/05/07 08:39:20.783,0.08,0.054,1.015
2026/05/07 08:39:20.803,0.082,0.053,1.013
2026/05/07 08:39:20.823,0.084,0.05,1.019
2026/05/07 08:39:20.844,0.083,0.049,1.015
2026/05/07 08:39:20.864,0.084,0.05,1.016
2026/05/07 08:39:20.884,0.084,0.05,1.019
2026/05/07 08:39:20.904,0.08,0.053,1.016
2026/05/07 08:39:20.924,0.081,0.051,1.015
2026/05/07 08:39:20.945,0.082,0.054,1.019
2026/05/07 08:39:20.965,0.081,0.051,1.012
2026/05/07 08:39:20.985,0.08,0.051,1.013
2026/05/07 08:39:21.005,0.081,0.049,1.021
2026/05/07 08:39:21.025,0.08,0.052,1.017
2026/05/07 08:39:21.046,0.082,0.05,1.018
2026/05/07 08:39:21.066,0.08,0.053,1.013
2026/05/07 08:39:21.086,0.084,0.053,1.017
2026/05/07 08:39:21.106,0.084,0.052,1.018
2026/05/07 08:39:21.126,0.085,0.049,1.011
2026/05/07 08:39:21.147,0.082,0.052,1.013
2026/05/07 08:39:21.167,0.084,0.054,1.015
2026/05/07 08:39:21.187,0.082,0.053,1.014
2026/05/07 08:39:21.207,0.085,0.055,1.014
2026/05/07 08:39:21.227,0.083,0.052,1.017
2026/05/07 08:39:21.248,0.083,0.05,1.011
2026/05/07 08:39:21.268,0.084,0.051,1.013
2026/05/07 08:39:21.288,0.082,0.047,1.015
2026/05/07 08:39:21.308,0.082,0.052,1.014
2026/05/07 08:39:21.328,0.083,0.051,1.014
2026/05/07 08:39:21.348,0.084,0.05,1.015
2026/05/07 08:39:21.369,0.082,0.049,1.018
2026/05/07 08:39:21.389,0.083,0.053,1.013
2026/05/07 08:39:21.409,0.084,0.051,1.014
2026/05/07 08:39:21.429,0.083,0.045,1.013
2026/05/07 08:39:21.449,0.083,0.05,1.013
2026/05/07 08:39:21.470,0.086,0.047,1.016
2026/05/07 08:39:21.490,0.084,0.049,1.015
2026/05/07 08:39:21.510,0.086,0.052,1.014
2026/05/07 08:39:21.530,0.084,0.049,1.013
2026/05/07 08:39:21.550,0.084,0.047,1.014
2026/05/07 08:39:21.571,0.084,0.052,1.013
2026/05/07 08:39:21.591,0.084,0.048,1.018
2026/05/07 08:39:21.611,0.087,0.055,1.016
2026/05/07 08:39:21.631,0.082,0.053,1.014
2026/05/07 08:39:21.651,0.085,0.049,1.013
2026/05/07 08:39:21.672,0.08,0.049,1.015
2026/05/07 08:39:21.692,0.084,0.049,1.017
2026/05/07 08:39:21.712,0.086,0.053,1.015
2026/05/07 08:39:21.732,0.081,0.051,1.014
2026/05/07 08:39:21.752,0.083,0.05,1.012
2026/05/07 08:39:21.773,0.085,0.051,1.016
2026/05/07 08:39:21.793,0.083,0.055,1.013
2026/05/07 08:39:21.813,0.082,0.048,1.017
2026/05/07 08:39:21.833,0.083,0.05,1.015
2026/05/07 08:39:21.853,0.083,0.05,1.012
2026/05/07 08:39:21.874,0.083,0.051,1.018
2026/05/07 08:39:21.894,0.084,0.049,1.016
2026/05/07 08:39:21.914,0.084,0.05,1.012
2026/05/07 08:39:21.934,0.081,0.047,1.016
2026/05/07 08:39:21.954,0.083,0.046,1.016
2026/05/07 08:39:21.975,0.084,0.055,1.014
2026/05/07 08:39:21.995,0.083,0.051,1.016
2026/05/07 08:39:22.015,0.083,0.05,1.016
2026/05/07 08:39:22.035,0.087,0.051,1.018
2026/05/07 08:39:22.055,0.084,0.049,1.018
2026/05/07 08:39:22.075,0.08,0.051,1.016
2026/05/07 08:39:22.096,0.084,0.05,1.015
2026/05/07 08:39:22.116,0.081,0.05,1.018
2026/05/07 08:39:22.136,0.082,0.05,1.014
2026/05/07 08:39:22.156,0.085,0.049,1.022
2026/05/07 08:39:22.176,0.08,0.051,1.015
2026/05/07 08:39:22.197,0.081,0.047,1.019
2026/05/07 08:39:22.217,0.084,0.052,1.016
2026/05/07 08:39:22.237,0.082,0.048,1.014
2026/05/07 08:39:22.257,0.081,0.048,1.014
2026/05/07 08:39:22.277,0.082,0.051,1.015
2026/05/07 08:39:22.298,0.087,0.052,1.015
2026/05/07 08:39:22.318,0.085,0.055,1.017
2026/05/07 08:39:22.338,0.084,0.053,1.014
2026/05/07 08:39:22.358,0.085,0.049,1.016
2026/05/07 08:39:22.378,0.082,0.051,1.02
2026/05/07 08:39:22.399,0.084,0.05,1.018
2026/05/07 08:39:22.419,0.083,0.049,1.014
2026/05/07 08:39:22.439,0.083,0.051,1.012
2026/05/07 08:39:22.459,0.083,0.05,1.016
2026/05/07 08:39:22.479,0.08,0.05,1.014
2026/05/07 08:39:22.500,0.081,0.053,1.017
2026/05/07 08:39:22.520,0.084,0.05,1.017
2026/05/07 08:39:22.540,0.083,0.049,1.016
2026/05/07 08:39:22.560,0.082,0.051,1.01
2026/05/07 08:39:22.580,0.085,0.049,1.017
2026/05/07 08:39:22.601,0.081,0.05,1.014
2026/05/07 08:39:22.621,0.083,0.049,1.016
2026/05/07 08:39:22.641,0.082,0.049,1.014
2026/05/07 08:39:22.661,0.081,0.052,1.013
2026/05/07 08:39:22.681,0.084,0.048,1.013
2026/05/07 08:39:22.702,0.081,0.053,1.013
2026/05/07 08:39:22.722,0.084,0.051,1.013
2026/05/07 08:39:22.742,0.08,0.05,1.018
2026/05/07 08:39:22.762,0.081,0.053,1.016
2026/05/07 08:39:22.782,0.084,0.05,1.011
2026/05/07 08:39:22.802,0.085,0.051,1.014
2026/05/07 08:39:22.823,0.081,0.051,1.015
2026/05/07 08:39:22.843,0.086,0.045,1.019
2026/05/07 08:39:22.863,0.085,0.048,1.016
2026/05/07 08:39:22.883,0.084,0.052,1.016
2026/05/07 08:39:22.903,0.084,0.052,1.018
2026/05/07 08:39:22.924,0.083,0.047,1.01
2026/05/07 08:39:22.944,0.086,0.047,1.013
2026/05/07 08:39:22.964,0.085,0.05,1.015
2026/05/07 08:39:22.984,0.084,0.053,1.017
2026/05/07 08:39:23.004,0.085,0.05,1.019
2026/05/07 08:39:23.025,0.083,0.051,1.016
2026/05/07 08:39:23.045,0.084,0.052,1.015
2026/05/07 08:39:23.065,0.081,0.05,1.015
2026/05/07 08:39:23.085,0.081,0.052,1.013
2026/05/07 08:39:23.105,0.08,0.049,1.015
2026/05/07 08:39:23.126,0.08,0.05,1.015
2026/05/07 08:39:23.146,0.084,0.051,1.014
2026/05/07 08:39:23.166,0.086,0.046,1.017
2026/05/07 08:39:23.186,0.082,0.056,1.012
2026/05/07 08:39:23.206,0.082,0.05,1.016
2026/05/07 08:39:23.227,0.083,0.052,1.015
2026/05/07 08:39:23.247,0.082,0.053,1.019
2026/05/07 08:39:23.267,0.08,0.054,1.013
2026/05/07 08:39:23.287,0.083,0.049,1.019
2026/05/07 08:39:23.307,0.085,0.052,1.014
2026/05/07 08:39:23.328,0.084,0.054,1.015
2026/05/07 08:39:23.348,0.087,0.05,1.015
2026/05/07 08:39:23.368,0.083,0.05,1.018
2026/05/07 08:39:23.388,0.081,0.047,1.019
2026/05/07 08:39:23.408,0.082,0.048,1.014
2026/05/07 08:39:23.429,0.082,0.05,1.021
2026/05/07 08:39:23.449,0.083,0.051,1.015
2026/05/07 08:39:23.469,0.083,0.053,1.016
2026/05/07 08:39:23.489,0.083,0.051,1.014
2026/05/07 08:39:23.509,0.081,0.052,1.016
2026/05/07 08:39:23.529,0.083,0.057,1.015
2026/05/07 08:39:23.550,0.083,0.048,1.014
2026/05/07 08:39:23.570,0.084,0.048,1.014
2026/05/07 08:39:23.590,0.083,0.051,1.02
2026/05/07 08:39:23.610,0.082,0.049,1.012
2026/05/07 08:39:23.630,0.081,0.05,1.014
2026/05/07 08:39:23.651,0.082,0.051,1.013
2026/05/07 08:39:23.671,0.08,0.049,1.013
2026/05/07 08:39:23.691,0.084,0.05,1.015
2026/05/07 08:39:23.711,0.086,0.051,1.018
2026/05/07 08:39:23.731,0.082,0.05,1.021
2026/05/07 08:39:23.752,0.083,0.052,1.014
2026/05/07 08:39:23.772,0.079,0.05,1.017
2026/05/07 08:39:23.792,0.086,0.052,1.014
2026/05/07 08:39:23.812,0.083,0.05,1.014
2026/05/07 08:39:23.832,0.085,0.05,1.014
2026/05/07 08:39:23.853,0.078,0.051,1.014
2026/05/07 08:39:23.873,0.085,0.052,1.015
2026/05/07 08:39:23.893,0.08,0.049,1.014
2026/05/07 08:39:23.913,0.084,0.052,1.013
2026/05/07 08:39:23.933,0.085,0.052,1.013
2026/05/07 08:39:23.954,0.079,0.05,1.016
2026/05/07 08:39:23.974,0.081,0.05,1.013
2026/05/07 08:39:23.994,0.083,0.055,1.014
2026/05/07 08:39:24.014,0.083,0.049,1.016
2026/05/07 08:39:24.034,0.083,0.05,1.016
2026/05/07 08:39:24.055,0.084,0.051,1.015
2026/05/07 08:39:24.075,0.082,0.05,1.014
2026/05/07 08:39:24.095,0.083,0.05,1.013
2026/05/07 08:39:24.115,0.081,0.052,1.009
2026/05/07 08:39:24.135,0.085,0.049,1.02
2026/05/07 08:39:24.155,0.083,0.053,1.016
2026/05/07 08:39:24.176,0.084,0.049,1.017
2026/05/07 08:39:24.196,0.08,0.051,1.016
2026/05/07 08:39:24.216,0.083,0.05,1.018
2026/05/07 08:39:24.236,0.083,0.051,1.018
2026/05/07 08:39:24.256,0.086,0.052,1.014
2026/05/07 08:39:24.277,0.085,0.054,1.011
2026/05/07 08:39:24.297,0.084,0.05,1.015
2026/05/07 08:39:24.317,0.083,0.048,1.011
2026/05/07 08:39:24.337,0.083,0.049,1.014
2026/05/07 08:39:24.357,0.082,0.049,1.015
2026/05/07 08:39:24.378,0.085,0.055,1.016
2026/05/07 08:39:24.398,0.086,0.05,1.017
2026/05/07 08:39:24.418,0.084,0.05,1.016
2026/05/07 08:39:24.438,0.085,0.05,1.015
2026/05/07 08:39:24.458,0.086,0.052,1.016
2026/05/07 08:39:24.479,0.083,0.05,1.015
2026/05/07 08:39:24.499,0.082,0.053,1.013
2026/05/07 08:39:24.519,0.083,0.054,1.016
2026/05/07 08:39:24.539,0.084,0.051,1.012
2026/05/07 08:39:24.559,0.085,0.05,1.012
2026/05/07 08:39:24.580,0.082,0.048,1.013
2026/05/07 08:39:24.600,0.083,0.047,1.015
2026/05/07 08:39:24.620,0.083,0.054,1.012
2026/05/07 08:39:24.640,0.085,0.052,1.013
2026/05/07 08:39:24.660,0.084,0.052,1.012
2026/05/07 08:39:24.681,0.081,0.053,1.013
2026/05/07 08:39:24.701,0.082,0.045,1.016
2026/05/07 08:39:24.721,0.085,0.05,1.013
2026/05/07 08:39:24.741,0.081,0.046,1.014
2026/05/07 08:39:24.761,0.087,0.053,1.018
2026/05/07 08:39:24.782,0.081,0.046,1.017
2026/05/07 08:39:24.802,0.079,0.053,1.012
2026/05/07 08:39:24.822,0.086,0.053,1.016
2026/05/07 08:39:24.842,0.082,0.05,1.011
2026/05/07 08:39:24.862,0.085,0.047,1.018
2026/05/07 08:39:24.882,0.084,0.05,1.015
2026/05/07 08:39:24.903,0.083,0.052,1.013
2026/05/07 08:39:24.923,0.085,0.054,1.015
2026/05/07 08:39:24.943,0.083,0.051,1.014
2026/05/07 08:39:24.963,0.083,0.05,1.014
2026/05/07 08:39:24.983,0.083,0.05,1.018
2026/05/07 08:39:25.004,0.081,0.05,1.016
2026/05/07 08:39:25.024,0.081,0.051,1.011
2026/05/07 08:39:25.044,0.083,0.051,1.013
2026/05/07 08:39:25.064,0.083,0.048,1.014
2026/05/07 08:39:25.084,0.082,0.054,1.016
2026/05/07 08:39:25.105,0.084,0.051,1.016
2026/05/07 08:39:25.125,0.077,0.049,1.012
2026/05/07 08:39:25.145,0.084,0.05,1.016
2026/05/07 08:39:25.165,0.08,0.054,1.012
2026/05/07 08:39:25.185,0.084,0.048,1.016
2026/05/07 08:39:25.206,0.086,0.047,1.014
2026/05/07 08:39:25.226,0.081,0.054,1.017
2026/05/07 08:39:25.246,0.084,0.049,1.018
2026/05/07 08:39:25.266,0.082,0.054,1.015
2026/05/07 08:39:25.286,0.081,0.054,1.013
2026/05/07 08:39:25.307,0.083,0.052,1.011
2026/05/07 08:39:25.327,0.081,0.05,1.015
2026/05/07 08:39:25.347,0.082,0.052,1.018
2026/05/07 08:39:25.367,0.082,0.053,1.015
2026/05/07 08:39:25.387,0.083,0.049,1.015
2026/05/07 08:39:25.408,0.08,0.05,1.016
2026/05/07 08:39:25.428,0.085,0.05,1.014
2026/05/07 08:39:25.448,0.088,0.05,1.019
2026/05/07 08:39:25.468,0.083,0.047,1.012
2026/05/07 08:39:25.488,0.082,0.051,1.016
2026/05/07 08:39:25.508,0.082,0.053,1.017
2026/05/07 08:39:25.529,0.083,0.05,1.014
2026/05/07 08:39:25.549,0.086,0.049,1.014
2026/05/07 08:39:25.569,0.081,0.05,1.015
2026/05/07 08:39:25.589,0.081,0.053,1.016
2026/05/07 08:39:25.609,0.081,0.052,1.016
2026/05/07 08:39:25.630,0.083,0.049,1.013
2026/05/07 08:39:25.650,0.082,0.052,1.015
2026/05/07 08:39:25.670,0.084,0.054,1.016
2026/05/07 08:39:25.690,0.083,0.05,1.012
2026/05/07 08:39:25.710,0.086,0.05,1.015
2026/05/07 08:39:25.731,0.085,0.048,1.018
2026/05/07 08:39:25.751,0.082,0.053,1.018
2026/05/07 08:39:25.771,0.08,0.051,1.012
2026/05/07 08:39:25.791,0.084,0.048,1.013
2026/05/07 08:39:25.811,0.083,0.051,1.014
2026/05/07 08:39:25.832,0.084,0.053,1.018
2026/05/07 08:39:25.852,0.084,0.047,1.015
2026/05/07 08:39:25.872,0.085,0.052,1.015
2026/05/07 08:39:25.892,0.082,0.05,1.015
2026/05/07 08:39:25.912,0.085,0.05,1.016
2026/05/07 08:39:25.933,0.085,0.051,1.016
2026/05/07 08:39:25.953,0.085,0.051,1.013
2026/05/07 08:39:25.973,0.081,0.052,1.022
2026/05/07 08:39:25.993,0.082,0.048,1.013
2026/05/07 08:39:26.013,0.086,0.052,1.016
2026/05/07 08:39:26.034,0.087,0.05,1.01
2026/05/07 08:39:26.054,0.085,0.047,1.015
2026/05/07 08:39:26.074,0.084,0.052,1.018
2026/05/07 08:39:26.094,0.08,0.052,1.015
2026/05/07 08:39:26.114,0.086,0.048,1.013
2026/05/07 08:39:26.135,0.087,0.053,1.014
2026/05/07 08:39:26.155,0.081,0.052,1.017
2026/05/07 08:39:26.175,0.081,0.053,1.013
2026/05/07 08:39:26.195,0.084,0.05,1.019
2026/05/07 08:39:26.215,0.082,0.052,1.015
2026/05/07 08:39:26.235,0.083,0.054,1.017
2026/05/07 08:39:26.256,0.082,0.051,1.015
2026/05/07 08:39:26.276,0.081,0.05,1.016
2026/05/07 08:39:26.296,0.083,0.053,1.016
2026/05/07 08:39:26.316,0.081,0.051,1.015
2026/05/07 08:39:26.336,0.082,0.052,1.015
2026/05/07 08:39:26.357,0.082,0.051,1.014
2026/05/07 08:39:26.377,0.081,0.05,1.018
2026/05/07 08:39:26.397,0.086,0.053,1.014
2026/05/07 08:39:26.417,0.081,0.051,1.019
2026/05/07 08:39:26.437,0.083,0.054,1.015
2026/05/07 08:39:26.458,0.081,0.049,1.02
2026/05/07 08:39:26.478,0.085,0.05,1.014
2026/05/07 08:39:26.498,0.084,0.047,1.013
2026/05/07 08:39:26.518,0.083,0.053,1.014
2026/05/07 08:39:26.538,0.082,0.052,1.021
2026/05/07 08:39:26.559,0.085,0.052,1.014
2026/05/07 08:39:26.579,0.082,0.051,1.014
2026/05/07 08:39:26.599,0.081,0.054,1.017
2026/05/07 08:39:26.619,0.08,0.05,1.013
2026/05/07 08:39:26.639,0.084,0.05,1.014
2026/05/07 08:39:26.660,0.081,0.052,1.018
2026/05/07 08:39:26.680,0.08,0.056,1.011
2026/05/07 08:39:26.700,0.083,0.046,1.021
2026/05/07 08:39:26.720,0.083,0.053,1.01
2026/05/07 08:39:26.740,0.082,0.049,1.011
2026/05/07 08:39:26.761,0.085,0.052,1.017
2026/05/07 08:39:26.781,0.081,0.05,1.014
2026/05/07 08:39:26.801,0.083,0.05,1.014
2026/05/07 08:39:26.821,0.082,0.05,1.017
2026/05/07 08:39:26.841,0.079,0.048,1.013
2026/05/07 08:39:26.862,0.079,0.048,1.015
2026/05/07 08:39:26.882,0.081,0.054,1.015
2026/05/07 08:39:26.902,0.082,0.049,1.016
2026/05/07 08:39:26.922,0.085,0.05,1.018
2026/05/07 08:39:26.942,0.081,0.05,1.015
2026/05/07 08:39:26.962,0.086,0.052,1.016
2026/05/07 08:39:26.983,0.082,0.05,1.009
2026/05/07 08:39:27.003,0.086,0.049,1.015
2026/05/07 08:39:27.023,0.079,0.052,1.014
2026/05/07 08:39:27.043,0.08,0.051,1.015
2026/05/07 08:39:27.063,0.085,0.051,1.015
2026/05/07 08:39:27.084,0.08,0.05,1.015
2026/05/07 08:39:27.104,0.083,0.051,1.017
2026/05/07 08:39:27.124,0.083,0.05,1.014
2026/05/07 08:39:27.144,0.079,0.048,1.016
2026/05/07 08:39:27.164,0.081,0.05,1.013
2026/05/07 08:39:27.185,0.083,0.053,1.019
2026/05/07 08:39:27.205,0.084,0.054,1.018
2026/05/07 08:39:27.225,0.082,0.051,1.019
2026/05/07 08:39:27.245,0.084,0.049,1.014
2026/05/07 08:39:27.265,0.083,0.049,1.016
2026/05/07 08:39:27.286,0.081,0.052,1.014
2026/05/07 08:39:27.306,0.082,0.051,1.019
2026/05/07 08:39:27.326,0.086,0.053,1.012
2026/05/07 08:39:27.346,0.081,0.047,1.015
2026/05/07 08:39:27.366,0.083,0.052,1.012
2026/05/07 08:39:27.387,0.086,0.048,1.017
2026/05/07 08:39:27.407,0.087,0.047,1.015
2026/05/07 08:39:27.427,0.083,0.052,1.015
2026/05/07 08:39:27.447,0.083,0.051,1.021
2026/05/07 08:39:27.467,0.082,0.049,1.017
2026/05/07 08:39:27.488,0.084,0.053,1.012
2026/05/07 08:39:27.508,0.081,0.051,1.011
2026/05/07 08:39:27.528,0.084,0.049,1.017
2026/05/07 08:39:27.548,0.082,0.048,1.02
2026/05/07 08:39:27.568,0.084,0.047,1.014
2026/05/07 08:39:27.589,0.081,0.05,1.015
2026/05/07 08:39:27.609,0.081,0.046,1.013
2026/05/07 08:39:27.629,0.078,0.053,1.015
2026/05/07 08:39:27.649,0.085,0.051,1.016
2026/05/07 08:39:27.669,0.084,0.051,1.015
2026/05/07 08:39:27.690,0.083,0.052,1.017
2026/05/07 08:39:27.710,0.078,0.056,1.012
2026/05/07 08:39:27.730,0.083,0.052,1.014
2026/05/07 08:39:27.750,0.082,0.05,1.017
2026/05/07 08:39:27.770,0.082,0.048,1.017
2026/05/07 08:39:27.790,0.084,0.051,1.015
2026/05/07 08:39:27.811,0.084,0.052,1.016
2026/05/07 08:39:27.831,0.082,0.051,1.015
2026/05/07 08:39:27.851,0.081,0.05,1.014
2026/05/07 08:39:27.871,0.086,0.049,1.018
2026/05/07 08:39:27.891,0.082,0.05,1.016
2026/05/07 08:39:27.912,0.084,0.049,1.015
2026/05/07 08:39:27.932,0.083,0.05,1.018
2026/05/07 08:39:27.952,0.083,0.052,1.017
2026/05/07 08:39:27.972,0.082,0.053,1.014
2026/05/07 08:39:27.992,0.083,0.05,1.012
2026/05/07 08:39:28.013,0.083,0.052,1.014
2026/05/07 08:39:28.033,0.081,0.049,1.013
2026/05/07 08:39:28.053,0.085,0.052,1.018
2026/05/07 08:39:28.073,0.082,0.05,1.018
2026/05/07 08:39:28.093,0.083,0.052,1.015
2026/05/07 08:39:28.114,0.082,0.051,1.017
2026/05/07 08:39:28.134,0.081,0.05,1.012
2026/05/07 08:39:28.154,0.083,0.047,1.016
2026/05/07 08:39:28.174,0.081,0.049,1.015
2026/05/07 08:39:28.194,0.084,0.046,1.014
2026/05/07 08:39:28.215,0.082,0.052,1.012
2026/05/07 08:39:28.235,0.08,0.048,1.012
2026/05/07 08:39:28.255,0.081,0.051,1.014
2026/05/07 08:39:28.275,0.082,0.048,1.013
2026/05/07 08:39:28.295,0.082,0.053,1.013
2026/05/07 08:39:28.316,0.082,0.048,1.016
2026/05/07 08:39:28.336,0.081,0.05,1.019
2026/05/07 08:39:28.356,0.082,0.051,1.018
2026/05/07 08:39:28.376,0.083,0.056,1.013
2026/05/07 08:39:28.396,0.081,0.052,1.012
2026/05/07 08:39:28.417,0.079,0.051,1.016
2026/05/07 08:39:28.437,0.079,0.047,1.016
2026/05/07 08:39:28.457,0.086,0.052,1.016
2026/05/07 08:39:28.477,0.083,0.053,1.015
2026/05/07 08:39:28.497,0.079,0.048,1.011
2026/05/07 08:39:28.518,0.087,0.051,1.014
2026/05/07 08:39:28.538,0.085,0.051,1.013
2026/05/07 08:39:28.558,0.084,0.048,1.017
2026/05/07 08:39:28.578,0.084,0.049,1.013
2026/05/07 08:39:28.598,0.082,0.049,1.015
2026/05/07 08:39:28.618,0.083,0.051,1.014
2026/05/07 08:39:28.639,0.081,0.05,1.014
2026/05/07 08:39:28.659,0.085,0.054,1.013
2026/05/07 08:39:28.679,0.082,0.047,1.015
2026/05/07 08:39:28.699,0.081,0.049,1.012
2026/05/07 08:39:28.719,0.084,0.051,1.013
2026/05/07 08:39:28.740,0.079,0.05,1.012
2026/05/07 08:39:28.760,0.082,0.049,1.016
2026/05/07 08:39:28.780,0.083,0.047,1.019
2026/05/07 08:39:28.800,0.078,0.049,1.018
2026/05/07 08:39:28.820,0.081,0.052,1.018
2026/05/07 08:39:28.841,0.086,0.049,1.015
2026/05/07 08:39:28.861,0.086,0.054,1.016
2026/05/07 08:39:28.881,0.082,0.05,1.015
2026/05/07 08:39:28.901,0.081,0.05,1.012
2026/05/07 08:39:28.921,0.084,0.054,1.016
2026/05/07 08:39:28.942,0.081,0.048,1.013
2026/05/07 08:39:28.962,0.082,0.047,1.012
2026/05/07 08:39:28.982,0.082,0.049,1.017
2026/05/07 08:39:29.002,0.084,0.054,1.018
2026/05/07 08:39:29.022,0.083,0.049,1.016
2026/05/07 08:39:29.043,0.084,0.05,1.016
2026/05/07 08:39:29.063,0.085,0.051,1.016
2026/05/07 08:39:29.083,0.08,0.052,1.013
2026/05/07 08:39:29.103,0.084,0.049,1.013
2026/05/07 08:39:29.123,0.08,0.05,1.014
2026/05/07 08:39:29.144,0.081,0.05,1.02
2026/05/07 08:39:29.164,0.083,0.053,1.013
2026/05/07 08:39:29.184,0.084,0.052,1.017
2026/05/07 08:39:29.204,0.083,0.054,1.012
2026/05/07 08:39:29.224,0.078,0.047,1.015
2026/05/07 08:39:29.245,0.084,0.051,1.017
2026/05/07 08:39:29.265,0.081,0.052,1.01
2026/05/07 08:39:29.285,0.085,0.046,1.016
2026/05/07 08:39:29.305,0.085,0.05,1.021
2026/05/07 08:39:29.325,0.085,0.053,1.015
2026/05/07 08:39:29.345,0.084,0.053,1.018
2026/05/07 08:39:29.366,0.082,0.05,1.015
2026/05/07 08:39:29.386,0.081,0.051,1.017
2026/05/07 08:39:29.406,0.086,0.051,1.016
2026/05/07 08:39:29.426,0.084,0.054,1.012
2026/05/07 08:39:29.446,0.082,0.052,1.015
2026/05/07 08:39:29.467,0.083,0.049,1.019
2026/05/07 08:39:29.487,0.085,0.049,1.018
2026/05/07 08:39:29.507,0.084,0.052,1.012
2026/05/07 08:39:29.527,0.083,0.052,1.015
2026/05/07 08:39:29.547,0.082,0.055,1.011
2026/05/07 08:39:29.568,0.081,0.055,1.009
2026/05/07 08:39:29.588,0.087,0.048,1.012
2026/05/07 08:39:29.608,0.08,0.049,1.02
2026/05/07 08:39:29.628,0.084,0.051,1.017
2026/05/07 08:39:29.648,0.082,0.052,1.016
2026/05/07 08:39:29.669,0.082,0.049,1.016
2026/05/07 08:39:29.689,0.083,0.052,1.018
2026/05/07 08:39:29.709,0.077,0.051,1.014
2026/05/07 08:39:29.729,0.084,0.049,1.015
2026/05/07 08:39:29.749,0.083,0.051,1.017
2026/05/07 08:39:29.770,0.083,0.049,1.014
2026/05/07 08:39:29.790,0.084,0.051,1.015
2026/05/07 08:39:29.810,0.081,0.054,1.014
2026/05/07 08:39:29.830,0.082,0.05,1.013
2026/05/07 08:39:29.850,0.081,0.051,1.016
2026/05/07 08:39:29.871,0.081,0.053,1.013
2026/05/07 08:39:29.891,0.082,0.048,1.011
2026/05/07 08:39:29.911,0.082,0.047,1.012
2026/05/07 08:39:29.931,0.082,0.054,1.017
2026/05/07 08:39:29.951,0.083,0.051,1.017
2026/05/07 08:39:29.972,0.083,0.052,1.014
2026/05/07 08:39:29.992,0.087,0.053,1.016
2026/05/07 08:39:30.012,0.081,0.056,1.012
2026/05/07 08:39:30.032,0.08,0.054,1.017
2026/05/07 08:39:30.052,0.085,0.048,1.015
2026/05/07 08:39:30.072,0.087,0.051,1.012
2026/05/07 08:39:30.093,0.083,0.05,1.016
2026/05/07 08:39:30.113,0.084,0.047,1.013
2026/05/07 08:39:30.133,0.083,0.052,1.016
2026/05/07 08:39:30.153,0.083,0.049,1.017
2026/05/07 08:39:30.173,0.084,0.055,1.016
2026/05/07 08:39:30.194,0.08,0.051,1.014
2026/05/07 08:39:30.214,0.081,0.053,1.016
2026/05/07 08:39:30.234,0.081,0.052,1.013
2026/05/07 08:39:30.254,0.084,0.049,1.018
2026/05/07 08:39:30.274,0.084,0.054,1.012
2026/05/07 08:39:30.295,0.081,0.052,1.016
2026/05/07 08:39:30.315,0.086,0.048,1.017
2026/05/07 08:39:30.335,0.081,0.055,1.013
2026/05/07 08:39:30.355,0.082,0.054,1.018
2026/05/07 08:39:30.375,0.081,0.053,1.013
2026/05/07 08:39:30.396,0.085,0.049,1.015
2026/05/07 08:39:30.416,0.081,0.049,1.016
2026/05/07 08:39:30.436,0.082,0.048,1.018
2026/05/07 08:39:30.456,0.083,0.05,1.014
2026/05/07 08:39:30.476,0.085,0.05,1.015
2026/05/07 08:39:30.497,0.082,0.049,1.013
2026/05/07 08:39:30.517,0.081,0.05,1.014
2026/05/07 08:39:30.537,0.084,0.052,1.014
2026/05/07 08:39:30.557,0.084,0.047,1.018
2026/05/07 08:39:30.577,0.08,0.046,1.017
2026/05/07 08:39:30.598,0.082,0.054,1.016
2026/05/07 08:39:30.618,0.081,0.05,1.013
2026/05/07 08:39:30.638,0.083,0.049,1.02
2026/05/07 08:39:30.658,0.083,0.05,1.014
2026/05/07 08:39:30.678,0.083,0.051,1.019
2026/05/07 08:39:30.698,0.085,0.047,1.014
2026/05/07 08:39:30.719,0.083,0.048,1.012
2026/05/07 08:39:30.739,0.08,0.05,1.015
2026/05/07 08:39:30.759,0.087,0.05,1.014
2026/05/07 08:39:30.779,0.086,0.048,1.016
2026/05/07 08:39:30.799,0.081,0.051,1.013
2026/05/07 08:39:30.820,0.085,0.052,1.018
2026/05/07 08:39:30.840,0.083,0.05,1.015
2026/05/07 08:39:30.860,0.081,0.053,1.012
2026/05/07 08:39:30.880,0.086,0.05,1.015
2026/05/07 08:39:30.900,0.084,0.054,1.021
2026/05/07 08:39:30.921,0.082,0.047,1.017
2026/05/07 08:39:30.941,0.08,0.048,1.017
2026/05/07 08:39:30.961,0.083,0.048,1.013
2026/05/07 08:39:30.981,0.083,0.049,1.012
2026/05/07 08:39:31.001,0.081,0.051,1.015
2026/05/07 08:39:31.022,0.083,0.051,1.014
2026/05/07 08:39:31.042,0.081,0.052,1.015
2026/05/07 08:39:31.062,0.081,0.052,1.019
2026/05/07 08:39:31.082,0.085,0.053,1.017
2026/05/07 08:39:31.102,0.08,0.053,1.014
2026/05/07 08:39:31.123,0.083,0.048,1.01
2026/05/07 08:39:31.143,0.081,0.051,1.009
2026/05/07 08:39:31.163,0.086,0.049,1.014
2026/05/07 08:39:31.183,0.082,0.052,1.015
2026/05/07 08:39:31.203,0.083,0.052,1.015
2026/05/07 08:39:31.224,0.083,0.054,1.017
2026/05/07 08:39:31.244,0.083,0.05,1.015
2026/05/07 08:39:31.264,0.081,0.053,1.013
2026/05/07 08:39:31.284,0.08,0.053,1.012
2026/05/07 08:39:31.304,0.083,0.053,1.016
2026/05/07 08:39:31.325,0.081,0.05,1.017
2026/05/07 08:39:31.345,0.084,0.051,1.013
2026/05/07 08:39:31.365,0.083,0.051,1.015
2026/05/07 08:39:31.385,0.083,0.048,1.016
2026/05/07 08:39:31.405,0.083,0.049,1.016
2026/05/07 08:39:31.425,0.084,0.053,1.013
2026/05/07 08:39:31.446,0.08,0.049,1.015
2026/05/07 08:39:31.466,0.081,0.05,1.016
2026/05/07 08:39:31.486,0.084,0.052,1.014
2026/05/07 08:39:31.506,0.08,0.051,1.016
2026/05/07 08:39:31.526,0.083,0.05,1.012
2026/05/07 08:39:31.547,0.085,0.049,1.018
2026/05/07 08:39:31.567,0.085,0.051,1.011
2026/05/07 08:39:31.587,0.08,0.05,1.016
2026/05/07 08:39:31.607,0.083,0.05,1.009
2026/05/07 08:39:31.627,0.083,0.049,1.017
2026/05/07 08:39:31.648,0.085,0.05,1.013
2026/05/07 08:39:31.668,0.085,0.047,1.015
2026/05/07 08:39:31.688,0.082,0.051,1.012
2026/05/07 08:39:31.708,0.085,0.05,1.016
2026/05/07 08:39:31.728,0.081,0.05,1.016
2026/05/07 08:39:31.749,0.085,0.05,1.016
2026/05/07 08:39:31.769,0.083,0.05,1.017
2026/05/07 08:39:31.789,0.08,0.048,1.02
2026/05/07 08:39:31.809,0.082,0.049,1.014
2026/05/07 08:39:31.829,0.084,0.049,1.014
2026/05/07 08:39:31.850,0.081,0.051,1.018
2026/05/07 08:39:31.870,0.086,0.049,1.015
2026/05/07 08:39:31.890,0.081,0.052,1.017
2026/05/07 08:39:31.910,0.081,0.049,1.019
2026/05/07 08:39:31.930,0.083,0.052,1.014
2026/05/07 08:39:31.951,0.079,0.052,1.012
2026/05/07 08:39:31.971,0.085,0.051,1.013
2026/05/07 08:39:31.991,0.082,0.051,1.017
2026/05/07 08:39:32.011,0.084,0.054,1.012
2026/05/07 08:39:32.031,0.083,0.053,1.017
2026/05/07 08:39:32.052,0.082,0.052,1.012
2026/05/07 08:39:32.072,0.084,0.052,1.014
2026/05/07 08:39:32.092,0.083,0.053,1.015
2026/05/07 08:39:32.112,0.082,0.048,1.016
2026/05/07 08:39:32.132,0.081,0.05,1.014
2026/05/07 08:39:32.152,0.083,0.052,1.011
2026/05/07 08:39:32.173,0.084,0.05,1.016
2026/05/07 08:39:32.193,0.086,0.054,1.017
2026/05/07 08:39:32.213,0.083,0.052,1.015
2026/05/07 08:39:32.233,0.084,0.048,1.016
2026/05/07 08:39:32.253,0.081,0.051,1.018
2026/05/07 08:39:32.274,0.083,0.049,1.019
2026/05/07 08:39:32.294,0.084,0.05,1.014
2026/05/07 08:39:32.314,0.083,0.053,1.014
2026/05/07 08:39:32.334,0.081,0.049,1.012
2026/05/07 08:39:32.354,0.08,0.052,1.012
2026/05/07 08:39:32.375,0.082,0.049,1.015
2026/05/07 08:39:32.395,0.084,0.051,1.016
2026/05/07 08:39:32.415,0.08,0.048,1.013
2026/05/07 08:39:32.435,0.084,0.051,1.017
2026/05/07 08:39:32.455,0.085,0.052,1.016
2026/05/07 08:39:32.476,0.085,0.055,1.011
2026/05/07 08:39:32.496,0.086,0.049,1.012
2026/05/07 08:39:32.516,0.084,0.052,1.014
2026/05/07 08:39:32.536,0.082,0.052,1.014
2026/05/07 08:39:32.556,0.087,0.052,1.012
2026/05/07 08:39:32.577,0.081,0.047,1.01
2026/05/07 08:39:32.597,0.081,0.049,1.014
2026/05/07 08:39:32.617,0.079,0.053,1.017
2026/05/07 08:39:32.637,0.083,0.048,1.017
2026/05/07 08:39:32.657,0.082,0.053,1.012
2026/05/07 08:39:32.678,0.084,0.049,1.014
2026/05/07 08:39:32.698,0.081,0.049,1.013
2026/05/07 08:39:32.718,0.082,0.05,1.016
2026/05/07 08:39:32.738,0.082,0.049,1.013
2026/05/07 08:39:32.758,0.084,0.049,1.016
2026/05/07 08:39:32.779,0.084,0.05,1.016
2026/05/07 08:39:32.799,0.083,0.051,1.013
2026/05/07 08:39:32.819,0.083,0.051,1.013
2026/05/07 08:39:32.839,0.083,0.049,1.016
2026/05/07 08:39:32.859,0.087,0.049,1.016
2026/05/07 08:39:32.879,0.083,0.049,1.011
2026/05/07 08:39:32.900,0.08,0.051,1.017
2026/05/07 08:39:32.920,0.084,0.049,1.019
2026/05/07 08:39:32.940,0.082,0.054,1.014
2026/05/07 08:39:32.960,0.084,0.049,1.018
2026/05/07 08:39:32.980,0.085,0.052,1.015
2026/05/07 08:39:33.001,0.082,0.05,1.016
2026/05/07 08:39:33.021,0.083,0.05,1.012
2026/05/07 08:39:33.041,0.085,0.049,1.016
2026/05/07 08:39:33.061,0.083,0.049,1.014
2026/05/07 08:39:33.081,0.083,0.051,1.013
2026/05/07 08:39:33.102,0.084,0.051,1.017
2026/05/07 08:39:33.122,0.085,0.05,1.016
2026/05/07 08:39:33.142,0.084,0.048,1.017
2026/05/07 08:39:33.162,0.085,0.047,1.016
2026/05/07 08:39:33.182,0.082,0.05,1.015
2026/05/07 08:39:33.203,0.082,0.049,1.015
2026/05/07 08:39:33.223,0.082,0.047,1.011
2026/05/07 08:39:33.243,0.085,0.048,1.013
2026/05/07 08:39:33.263,0.081,0.05,1.015
2026/05/07 08:39:33.283,0.082,0.05,1.013
2026/05/07 08:39:33.304,0.084,0.05,1.012
2026/05/07 08:39:33.324,0.084,0.05,1.018
2026/05/07 08:39:33.344,0.083,0.052,1.011
2026/05/07 08:39:33.364,0.084,0.049,1.013
2026/05/07 08:39:33.384,0.088,0.05,1.019
2026/05/07 08:39:33.405,0.082,0.05,1.017
2026/05/07 08:39:33.425,0.083,0.052,1.013
2026/05/07 08:39:33.445,0.083,0.05,1.018
2026/05/07 08:39:33.465,0.081,0.05,1.015
2026/05/07 08:39:33.485,0.082,0.051,1.018
2026/05/07 08:39:33.506,0.084,0.052,1.017
2026/05/07 08:39:33.526,0.084,0.053,1.012
2026/05/07 08:39:33.546,0.083,0.047,1.018
2026/05/07 08:39:33.566,0.083,0.049,1.015
2026/05/07 08:39:33.586,0.087,0.05,1.014
2026/05/07 08:39:33.606,0.084,0.052,1.015
2026/05/07 08:39:33.627,0.085,0.056,1.013
2026/05/07 08:39:33.647,0.082,0.049,1.015
2026/05/07 08:39:33.667,0.083,0.048,1.016
2026/05/07 08:39:33.687,0.085,0.05,1.017
2026/05/07 08:39:33.707,0.082,0.047,1.018
2026/05/07 08:39:33.728,0.084,0.049,1.016
2026/05/07 08:39:33.748,0.084,0.051,1.019
2026/05/07 08:39:33.768,0.081,0.047,1.014
2026/05/07 08:39:33.788,0.084,0.054,1.013
2026/05/07 08:39:33.808,0.084,0.05,1.015
2026/05/07 08:39:33.829,0.082,0.051,1.018
2026/05/07 08:39:33.849,0.083,0.049,1.013
2026/05/07 08:39:33.869,0.084,0.048,1.016
2026/05/07 08:39:33.889,0.083,0.049,1.018
2026/05/07 08:39:33.909,0.081,0.051,1.018
2026/05/07 08:39:33.930,0.083,0.052,1.012
2026/05/07 08:39:33.950,0.086,0.05,1.016
2026/05/07 08:39:33.970,0.083,0.053,1.011
2026/05/07 08:39:33.990,0.082,0.047,1.019
2026/05/07 08:39:34.010,0.084,0.052,1.016
2026/05/07 08:39:34.031,0.081,0.05,1.016
2026/05/07 08:39:34.051,0.083,0.046,1.012
2026/05/07 08:39:34.071,0.084,0.047,1.015
2026/05/07 08:39:34.091,0.089,0.049,1.018
2026/05/07 08:39:34.111,0.082,0.051,1.018
2026/05/07 08:39:34.132,0.083,0.052,1.013
2026/05/07 08:39:34.152,0.081,0.05,1.014
2026/05/07 08:39:34.172,0.083,0.051,1.011
2026/05/07 08:39:34.192,0.085,0.048,1.02
2026/05/07 08:39:34.212,0.085,0.055,1.015
2026/05/07 08:39:34.233,0.085,0.054,1.013
2026/05/07 08:39:34.253,0.084,0.052,1.016
2026/05/07 08:39:34.273,0.082,0.052,1.013
2026/05/07 08:39:34.293,0.083,0.049,1.017
2026/05/07 08:39:34.313,0.081,0.05,1.013
2026/05/07 08:39:34.333,0.083,0.049,1.017
2026/05/07 08:39:34.354,0.081,0.05,1.017
2026/05/07 08:39:34.374,0.081,0.052,1.013
2026/05/07 08:39:34.394,0.085,0.044,1.015
2026/05/07 08:39:34.414,0.081,0.051,1.017
2026/05/07 08:39:34.434,0.082,0.049,1.014
2026/05/07 08:39:34.455,0.083,0.049,1.015
2026/05/07 08:39:34.475,0.089,0.052,1.013
2026/05/07 08:39:34.495,0.084,0.049,1.016
2026/05/07 08:39:34.515,0.08,0.053,1.012
2026/05/07 08:39:34.535,0.081,0.049,1.011
2026/05/07 08:39:34.556,0.085,0.051,1.012
2026/05/07 08:39:34.576,0.081,0.047,1.018
2026/05/07 08:39:34.596,0.082,0.047,1.014
2026/05/07 08:39:34.616,0.084,0.052,1.017
2026/05/07 08:39:34.636,0.086,0.049,1.016
2026/05/07 08:39:34.657,0.084,0.052,1.016
2026/05/07 08:39:34.677,0.083,0.053,1.016
2026/05/07 08:39:34.697,0.085,0.053,1.019
2026/05/07 08:39:34.717,0.084,0.049,1.017
2026/05/07 08:39:34.737,0.083,0.047,1.017
2026/05/07 08:39:34.758,0.08,0.05,1.016
2026/05/07 08:39:34.778,0.082,0.05,1.012
2026/05/07 08:39:34.798,0.085,0.049,1.014
2026/05/07 08:39:34.818,0.083,0.05,1.015
2026/05/07 08:39:34.838,0.084,0.05,1.014
2026/05/07 08:39:34.859,0.084,0.051,1.019
2026/05/07 08:39:34.879,0.083,0.05,1.011
2026/05/07 08:39:34.899,0.082,0.048,1.012
2026/05/07 08:39:34.919,0.085,0.048,1.014
2026/05/07 08:39:34.939,0.083,0.051,1.013
2026/05/07 08:39:34.960,0.082,0.053,1.013
2026/05/07 08:39:34.980,0.084,0.051,1.018
2026/05/07 08:39:35.000,0.085,0.05,1.015
2026/05/07 08:39:35.020,0.085,0.049,1.019
2026/05/07 08:39:35.040,0.086,0.049,1.016
2026/05/07 08:39:35.060,0.083,0.05,1.014
2026/05/07 08:39:35.081,0.081,0.049,1.014
2026/05/07 08:39:35.101,0.085,0.051,1.013
2026/05/07 08:39:35.121,0.083,0.055,1.014
2026/05/07 08:39:35.141,0.081,0.053,1.014
2026/05/07 08:39:35.161,0.082,0.057,1.015
2026/05/07 08:39:35.182,0.082,0.048,1.014
2026/05/07 08:39:35.202,0.084,0.05,1.016
2026/05/07 08:39:35.222,0.082,0.05,1.015
2026/05/07 08:39:35.242,0.084,0.05,1.014
2026/05/07 08:39:35.262,0.081,0.052,1.013
2026/05/07 08:39:35.283,0.081,0.051,1.011
2026/05/07 08:39:35.303,0.083,0.052,1.016
2026/05/07 08:39:35.323,0.079,0.05,1.018
2026/05/07 08:39:35.343,0.083,0.051,1.014
2026/05/07 08:39:35.363,0.08,0.051,1.017
2026/05/07 08:39:35.384,0.082,0.05,1.015
2026/05/07 08:39:35.404,0.084,0.051,1.012
2026/05/07 08:39:35.424,0.083,0.053,1.014
2026/05/07 08:39:35.444,0.083,0.049,1.02
2026/05/07 08:39:35.464,0.082,0.052,1.016
2026/05/07 08:39:35.485,0.084,0.048,1.017
2026/05/07 08:39:35.505,0.082,0.053,1.016
2026/05/07 08:39:35.525,0.081,0.05,1.015
2026/05/07 08:39:35.545,0.086,0.051,1.011
2026/05/07 08:39:35.565,0.085,0.052,1.017
2026/05/07 08:39:35.586,0.08,0.048,1.017
2026/05/07 08:39:35.606,0.086,0.05,1.016
2026/05/07 08:39:35.626,0.083,0.05,1.014
2026/05/07 08:39:35.646,0.083,0.048,1.012
2026/05/07 08:39:35.666,0.085,0.055,1.016
2026/05/07 08:39:35.687,0.081,0.049,1.011
2026/05/07 08:39:35.707,0.079,0.05,1.012
2026/05/07 08:39:35.727,0.083,0.049,1.016
2026/05/07 08:39:35.747,0.08,0.051,1.014
2026/05/07 08:39:35.767,0.081,0.053,1.019
2026/05/07 08:39:35.787,0.087,0.047,1.013
2026/05/07 08:39:35.808,0.082,0.05,1.016
2026/05/07 08:39:35.828,0.085,0.052,1.015
2026/05/07 08:39:35.848,0.084,0.051,1.012
2026/05/07 08:39:35.868,0.086,0.05,1.012
2026/05/07 08:39:35.888,0.082,0.05,1.017
2026/05/07 08:39:35.909,0.085,0.05,1.016
2026/05/07 08:39:35.929,0.084,0.048,1.014
2026/05/07 08:39:35.949,0.084,0.048,1.015
2026/05/07 08:39:35.969,0.082,0.051,1.014
2026/05/07 08:39:35.989,0.08,0.051,1.015
2026/05/07 08:39:36.010,0.086,0.053,1.014
2026/05/07 08:39:36.030,0.082,0.051,1.01
2026/05/07 08:39:36.050,0.082,0.05,1.013
2026/05/07 08:39:36.070,0.082,0.054,1.018
2026/05/07 08:39:36.090,0.084,0.052,1.016
2026/05/07 08:39:36.111,0.081,0.051,1.015
2026/05/07 08:39:36.131,0.083,0.049,1.015
2026/05/07 08:39:36.151,0.084,0.052,1.015
2026/05/07 08:39:36.171,0.081,0.051,1.017
2026/05/07 08:39:36.191,0.082,0.048,1.016
2026/05/07 08:39:36.212,0.082,0.05,1.015
2026/05/07 08:39:36.232,0.081,0.049,1.014
2026/05/07 08:39:36.252,0.085,0.049,1.012
2026/05/07 08:39:36.272,0.083,0.05,1.016
2026/05/07 08:39:36.292,0.082,0.051,1.016
2026/05/07 08:39:36.313,0.081,0.053,1.016
2026/05/07 08:39:36.333,0.086,0.051,1.014
2026/05/07 08:39:36.353,0.082,0.05,1.014
2026/05/07 08:39:36.373,0.081,0.05,1.013
2026/05/07 08:39:36.393,0.081,0.052,1.014
2026/05/07 08:39:36.413,0.083,0.049,1.016
2026/05/07 08:39:36.434,0.083,0.051,1.015
2026/05/07 08:39:36.454,0.08,0.049,1.019
2026/05/07 08:39:36.474,0.085,0.049,1.017
2026/05/07 08:39:36.494,0.08,0.048,1.016
2026/05/07 08:39:36.514,0.081,0.049,1.015
2026/05/07 08:39:36.535,0.082,0.048,1.014
2026/05/07 08:39:36.555,0.081,0.053,1.015
2026/05/07 08:39:36.575,0.084,0.052,1.012
2026/05/07 08:39:36.595,0.081,0.049,1.014
2026/05/07 08:39:36.615,0.08,0.053,1.016
2026/05/07 08:39:36.636,0.083,0.051,1.014
2026/05/07 08:39:36.656,0.081,0.05,1.013
2026/05/07 08:39:36.676,0.08,0.047,1.015
2026/05/07 08:39:36.696,0.083,0.049,1.015
2026/05/07 08:39:36.716,0.08,0.05,1.017
2026/05/07 08:39:36.737,0.081,0.053,1.013
2026/05/07 08:39:36.757,0.083,0.054,1.011
2026/05/07 08:39:36.777,0.079,0.054,1.014
2026/05/07 08:39:36.797,0.084,0.053,1.018
2026/05/07 08:39:36.817,0.083,0.05,1.018
2026/05/07 08:39:36.838,0.081,0.05,1.011
2026/05/07 08:39:36.858,0.082,0.05,1.015
2026/05/07 08:39:36.878,0.081,0.051,1.015
2026/05/07 08:39:36.898,0.085,0.05,1.013
2026/05/07 08:39:36.918,0.082,0.05,1.016
2026/05/07 08:39:36.939,0.081,0.05,1.011
2026/05/07 08:39:36.959,0.08,0.05,1.015
2026/05/07 08:39:36.979,0.08,0.052,1.011
2026/05/07 08:39:36.999,0.082,0.047,1.014
2026/05/07 08:39:37.019,0.084,0.05,1.015
2026/05/07 08:39:37.039,0.081,0.052,1.015
2026/05/07 08:39:37.060,0.081,0.054,1.018
2026/05/07 08:39:37.080,0.083,0.053,1.011
2026/05/07 08:39:37.100,0.081,0.052,1.013
2026/05/07 08:39:37.120,0.085,0.052,1.017
2026/05/07 08:39:37.140,0.083,0.051,1.013
2026/05/07 08:39:37.161,0.081,0.054,1.019
2026/05/07 08:39:37.181,0.085,0.05,1.014
2026/05/07 08:39:37.201,0.083,0.047,1.014
2026/05/07 08:39:37.221,0.086,0.054,1.016
2026/05/07 08:39:37.241,0.084,0.048,1.012
2026/05/07 08:39:37.262,0.085,0.051,1.015
2026/05/07 08:39:37.282,0.079,0.054,1.011
2026/05/07 08:39:37.302,0.082,0.051,1.015
2026/05/07 08:39:37.322,0.085,0.051,1.015
2026/05/07 08:39:37.342,0.086,0.053,1.01
2026/05/07 08:39:37.363,0.077,0.054,1.012
2026/05/07 08:39:37.383,0.083,0.05,1.016
2026/05/07 08:39:37.403,0.086,0.05,1.02
2026/05/07 08:39:37.423,0.083,0.05,1.015
2026/05/07 08:39:37.443,0.079,0.049,1.016
2026/05/07 08:39:37.464,0.082,0.055,1.018
2026/05/07 08:39:37.484,0.08,0.045,1.011
2026/05/07 08:39:37.504,0.08,0.051,1.011
2026/05/07 08:39:37.524,0.083,0.047,1.016
2026/05/07 08:39:37.544,0.084,0.053,1.017
2026/05/07 08:39:37.565,0.082,0.05,1.012
2026/05/07 08:39:37.585,0.081,0.051,1.013
2026/05/07 08:39:37.605,0.08,0.053,1.014
2026/05/07 08:39:37.625,0.084,0.051,1.016
2026/05/07 08:39:37.645,0.082,0.048,1.012
2026/05/07 08:39:37.666,0.081,0.051,1.014
2026/05/07 08:39:37.686,0.082,0.049,1.014
2026/05/07 08:39:37.706,0.08,0.048,1.011
2026/05/07 08:39:37.726,0.08,0.054,1.011
2026/05/07 08:39:37.746,0.084,0.048,1.015
2026/05/07 08:39:37.766,0.086,0.051,1.015
2026/05/07 08:39:37.787,0.088,0.045,1.014
2026/05/07 08:39:37.807,0.083,0.048,1.017
2026/05/07 08:39:37.827,0.08,0.052,1.014
2026/05/07 08:39:37.847,0.081,0.054,1.012
2026/05/07 08:39:37.867,0.084,0.05,1.019
2026/05/07 08:39:37.888,0.085,0.052,1.018
2026/05/07 08:39:37.908,0.08,0.05,1.019
2026/05/07 08:39:37.928,0.085,0.05,1.014
2026/05/07 08:39:37.948,0.081,0.05,1.015
2026/05/07 08:39:37.968,0.084,0.05,1.015
2026/05/07 08:39:37.989,0.082,0.053,1.015
2026/05/07 08:39:38.009,0.083,0.052,1.014
2026/05/07 08:39:38.029,0.082,0.05,1.015
2026/05/07 08:39:38.049,0.083,0.05,1.013
2026/05/07 08:39:38.069,0.083,0.047,1.014
2026/05/07 08:39:38.090,0.083,0.053,1.014
2026/05/07 08:39:38.110,0.083,0.051,1.016
2026/05/07 08:39:38.130,0.084,0.05,1.018
2026/05/07 08:39:38.150,0.085,0.047,1.011
2026/05/07 08:39:38.170,0.084,0.053,1.016
2026/05/07 08:39:38.191,0.084,0.05,1.014
2026/05/07 08:39:38.211,0.081,0.053,1.016
2026/05/07 08:39:38.231,0.08,0.051,1.015
2026/05/07 08:39:38.251,0.085,0.053,1.015
2026/05/07 08:39:38.271,0.083,0.052,1.015
2026/05/07 08:39:38.292,0.084,0.049,1.015
2026/05/07 08:39:38.312,0.086,0.049,1.017
2026/05/07 08:39:38.332,0.081,0.048,1.018
2026/05/07 08:39:38.352,0.081,0.052,1.016
2026/05/07 08:39:38.372,0.083,0.051,1.013
2026/05/07 08:39:38.392,0.083,0.051,1.014
2026/05/07 08:39:38.413,0.087,0.05,1.015
2026/05/07 08:39:38.433,0.082,0.051,1.019
2026/05/07 08:39:38.453,0.08,0.047,1.018
2026/05/07 08:39:38.473,0.085,0.052,1.016
2026/05/07 08:39:38.493,0.083,0.049,1.016
2026/05/07 08:39:38.514,0.081,0.051,1.012
2026/05/07 08:39:38.534,0.082,0.052,1.017
2026/05/07 08:39:38.554,0.084,0.05,1.012
2026/05/07 08:39:38.574,0.084,0.049,1.018
2026/05/07 08:39:38.594,0.081,0.051,1.012
2026/05/07 08:39:38.615,0.084,0.05,1.016
2026/05/07 08:39:38.635,0.083,0.051,1.011
2026/05/07 08:39:38.655,0.084,0.05,1.014
2026/05/07 08:39:38.675,0.086,0.052,1.016
2026/05/07 08:39:38.695,0.083,0.05,1.016
2026/05/07 08:39:38.716,0.081,0.051,1.015
2026/05/07 08:39:38.736,0.084,0.051,1.014
2026/05/07 08:39:38.756,0.082,0.049,1.019
2026/05/07 08:39:38.776,0.082,0.048,1.018
2026/05/07 08:39:38.796,0.082,0.049,1.019
2026/05/07 08:39:38.817,0.081,0.052,1.019
2026/05/07 08:39:38.837,0.081,0.049,1.016
2026/05/07 08:39:38.857,0.081,0.053,1.016
2026/05/07 08:39:38.877,0.084,0.053,1.013
2026/05/07 08:39:38.897,0.085,0.049,1.013
2026/05/07 08:39:38.918,0.08,0.049,1.015
2026/05/07 08:39:38.938,0.085,0.051,1.017
2026/05/07 08:39:38.958,0.084,0.052,1.017
2026/05/07 08:39:38.978,0.084,0.05,1.012
2026/05/07 08:39:38.998,0.081,0.051,1.011
2026/05/07 08:39:39.018,0.085,0.053,1.013
2026/05/07 08:39:39.039,0.081,0.051,1.014
2026/05/07 08:39:39.059,0.082,0.048,1.015
2026/05/07 08:39:39.079,0.083,0.049,1.017
2026/05/07 08:39:39.099,0.086,0.047,1.019
2026/05/07 08:39:39.119,0.082,0.049,1.017
2026/05/07 08:39:39.140,0.084,0.05,1.014
2026/05/07 08:39:39.160,0.086,0.048,1.018
2026/05/07 08:39:39.180,0.083,0.05,1.019
2026/05/07 08:39:39.200,0.083,0.05,1.018
2026/05/07 08:39:39.220,0.086,0.05,1.014
2026/05/07 08:39:39.241,0.083,0.051,1.012
2026/05/07 08:39:39.261,0.081,0.046,1.016
2026/05/07 08:39:39.281,0.083,0.051,1.013
2026/05/07 08:39:39.301,0.082,0.053,1.018
2026/05/07 08:39:39.321,0.081,0.048,1.013
2026/05/07 08:39:39.342,0.082,0.049,1.012
2026/05/07 08:39:39.362,0.084,0.051,1.012
2026/05/07 08:39:39.382,0.084,0.051,1.017
2026/05/07 08:39:39.402,0.085,0.047,1.02
2026/05/07 08:39:39.422,0.082,0.05,1.011
2026/05/07 08:39:39.443,0.083,0.05,1.016
2026/05/07 08:39:39.463,0.083,0.052,1.015
2026/05/07 08:39:39.483,0.086,0.05,1.015
2026/05/07 08:39:39.503,0.081,0.052,1.015
2026/05/07 08:39:39.523,0.081,0.049,1.014
2026/05/07 08:39:39.543,0.083,0.052,1.015
2026/05/07 08:39:39.564,0.084,0.055,1.016
2026/05/07 08:39:39.584,0.084,0.05,1.015
2026/05/07 08:39:39.604,0.083,0.05,1.017
2026/05/07 08:39:39.624,0.083,0.054,1.017
2026/05/07 08:39:39.644,0.087,0.05,1.015
2026/05/07 08:39:39.665,0.082,0.048,1.015
2026/05/07 08:39:39.685,0.083,0.049,1.016
2026/05/07 08:39:39.705,0.083,0.05,1.013
2026/05/07 08:39:39.725,0.083,0.049,1.017
2026/05/07 08:39:39.745,0.084,0.047,1.014
2026/05/07 08:39:39.766,0.086,0.05,1.017
2026/05/07 08:39:39.786,0.082,0.055,1.013
2026/05/07 08:39:39.806,0.081,0.052,1.013
2026/05/07 08:39:39.826,0.083,0.051,1.01
2026/05/07 08:39:39.846,0.082,0.051,1.01
2026/05/07 08:39:39.867,0.081,0.054,1.015
2026/05/07 08:39:39.887,0.082,0.051,1.016
2026/05/07 08:39:39.907,0.082,0.049,1.015
2026/05/07 08:39:39.927,0.086,0.052,1.018
2026/05/07 08:39:39.947,0.086,0.051,1.013
2026/05/07 08:39:39.968,0.083,0.052,1.019
2026/05/07 08:39:39.988,0.081,0.053,1.015
2026/05/07 08:39:40.008,0.081,0.05,1.014
2026/05/07 08:39:40.028,0.087,0.053,1.019
2026/05/07 08:39:40.048,0.085,0.05,1.016
2026/05/07 08:39:40.069,0.082,0.048,1.015
2026/05/07 08:39:40.089,0.083,0.047,1.016
2026/05/07 08:39:40.109,0.083,0.048,1.016
2026/05/07 08:39:40.129,0.082,0.051,1.015
2026/05/07 08:39:40.149,0.085,0.047,1.02
2026/05/07 08:39:40.169,0.082,0.052,1.014
2026/05/07 08:39:40.190,0.081,0.051,1.013
2026/05/07 08:39:40.210,0.079,0.049,1.019
2026/05/07 08:39:40.230,0.084,0.05,1.011
2026/05/07 08:39:40.250,0.082,0.051,1.015
2026/05/07 08:39:40.270,0.083,0.048,1.013
2026/05/07 08:39:40.291,0.082,0.055,1.016
2026/05/07 08:39:40.311,0.082,0.05,1.009
2026/05/07 08:39:40.331,0.081,0.052,1.014
2026/05/07 08:39:40.351,0.08,0.054,1.012
2026/05/07 08:39:40.371,0.085,0.049,1.02
2026/05/07 08:39:40.392,0.083,0.049,1.014
2026/05/07 08:39:40.412,0.081,0.055,1.014
2026/05/07 08:39:40.432,0.085,0.049,1.016
2026/05/07 08:39:40.452,0.082,0.052,1.015
2026/05/07 08:39:40.472,0.084,0.052,1.013
2026/05/07 08:39:40.493,0.081,0.05,1.017
2026/05/07 08:39:40.513,0.085,0.054,1.017
2026/05/07 08:39:40.533,0.085,0.05,1.015
2026/05/07 08:39:40.553,0.084,0.055,1.017
2026/05/07 08:39:40.573,0.085,0.051,1.016
2026/05/07 08:39:40.594,0.086,0.049,1.012
2026/05/07 08:39:40.614,0.084,0.049,1.014
2026/05/07 08:39:40.634,0.083,0.05,1.015
2026/05/07 08:39:40.654,0.081,0.05,1.014
2026/05/07 08:39:40.674,0.086,0.048,1.013
2026/05/07 08:39:40.695,0.081,0.05,1.01
2026/05/07 08:39:40.715,0.081,0.05,1.016
2026/05/07 08:39:40.735,0.083,0.051,1.009
2026/05/07 08:39:40.755,0.084,0.05,1.016
2026/05/07 08:39:40.775,0.079,0.05,1.014
2026/05/07 08:39:40.795,0.081,0.05,1.011
2026/05/07 08:39:40.816,0.084,0.05,1.014
2026/05/07 08:39:40.836,0.084,0.051,1.018
2026/05/07 08:39:40.856,0.083,0.051,1.017
2026/05/07 08:39:40.876,0.083,0.046,1.017
2026/05/07 08:39:40.896,0.082,0.051,1.015
2026/05/07 08:39:40.917,0.081,0.052,1.014
2026/05/07 08:39:40.937,0.079,0.055,1.016
2026/05/07 08:39:40.957,0.083,0.054,1.015
2026/05/07 08:39:40.977,0.083,0.046,1.012
2026/05/07 08:39:40.997,0.082,0.052,1.016
2026/05/07 08:39:41.018,0.081,0.05,1.013
2026/05/07 08:39:41.038,0.085,0.051,1.013
2026/05/07 08:39:41.058,0.083,0.05,1.013
2026/05/07 08:39:41.078,0.083,0.052,1.014
2026/05/07 08:39:41.098,0.081,0.049,1.016
2026/05/07 08:39:41.119,0.083,0.054,1.017
2026/05/07 08:39:41.139,0.086,0.054,1.018
2026/05/07 08:39:41.159,0.081,0.05,1.018
2026/05/07 08:39:41.179,0.083,0.053,1.014
2026/05/07 08:39:41.199,0.079,0.052,1.016
2026/05/07 08:39:41.220,0.083,0.051,1.015
2026/05/07 08:39:41.240,0.08,0.053,1.013
2026/05/07 08:39:41.260,0.083,0.05,1.017
2026/05/07 08:39:41.280,0.083,0.052,1.017
2026/05/07 08:39:41.300,0.081,0.054,1.014
2026/05/07 08:39:41.321,0.082,0.05,1.014
2026/05/07 08:39:41.341,0.085,0.048,1.013
2026/05/07 08:39:41.361,0.082,0.048,1.015
2026/05/07 08:39:41.381,0.084,0.055,1.011
2026/05/07 08:39:41.401,0.082,0.05,1.011
2026/05/07 08:39:41.421,0.082,0.051,1.014
2026/05/07 08:39:41.442,0.084,0.053,1.011
2026/05/07 08:39:41.462,0.079,0.051,1.014
2026/05/07 08:39:41.482,0.081,0.051,1.016
2026/05/07 08:39:41.502,0.085,0.052,1.014
2026/05/07 08:39:41.522,0.083,0.05,1.016
2026/05/07 08:39:41.543,0.081,0.052,1.019
2026/05/07 08:39:41.563,0.082,0.047,1.013
2026/05/07 08:39:41.583,0.083,0.052,1.014
2026/05/07 08:39:41.603,0.084,0.051,1.016
2026/05/07 08:39:41.623,0.081,0.049,1.012
2026/05/07 08:39:41.644,0.084,0.049,1.014
2026/05/07 08:39:41.664,0.085,0.05,1.011
2026/05/07 08:39:41.684,0.082,0.052,1.014
2026/05/07 08:39:41.704,0.081,0.052,1.015
2026/05/07 08:39:41.724,0.083,0.048,1.015
2026/05/07 08:39:41.745,0.085,0.049,1.013
2026/05/07 08:39:41.765,0.082,0.052,1.015
2026/05/07 08:39:41.785,0.082,0.053,1.016
2026/05/07 08:39:41.805,0.08,0.049,1.017
2026/05/07 08:39:41.825,0.082,0.057,1.011
2026/05/07 08:39:41.846,0.081,0.054,1.017
2026/05/07 08:39:41.866,0.083,0.051,1.016
2026/05/07 08:39:41.886,0.079,0.049,1.017
2026/05/07 08:39:41.906,0.081,0.051,1.012
2026/05/07 08:39:41.926,0.083,0.051,1.014
2026/05/07 08:39:41.947,0.081,0.047,1.015
2026/05/07 08:39:41.967,0.08,0.052,1.013
2026/05/07 08:39:41.987,0.083,0.05,1.017
2026/05/07 08:39:42.007,0.081,0.053,1.016
2026/05/07 08:39:42.027,0.086,0.052,1.015
2026/05/07 08:39:42.048,0.082,0.05,1.015
2026/05/07 08:39:42.068,0.081,0.049,1.019
2026/05/07 08:39:42.088,0.082,0.051,1.019
2026/05/07 08:39:42.108,0.083,0.051,1.011
2026/05/07 08:39:42.128,0.08,0.051,1.016
2026/05/07 08:39:42.149,0.083,0.05,1.014
2026/05/07 08:39:42.169,0.082,0.049,1.01
2026/05/07 08:39:42.189,0.084,0.049,1.014
2026/05/07 08:39:42.209,0.083,0.052,1.016
2026/05/07 08:39:42.229,0.086,0.049,1.015
2026/05/07 08:39:42.249,0.081,0.049,1.015
2026/05/07 08:39:42.270,0.085,0.05,1.011
2026/05/07 08:39:42.290,0.081,0.051,1.013
2026/05/07 08:39:42.310,0.081,0.05,1.014
2026/05/07 08:39:42.330,0.084,0.051,1.018
2026/05/07 08:39:42.350,0.082,0.055,1.016
2026/05/07 08:39:42.371,0.082,0.052,1.015
2026/05/07 08:39:42.391,0.084,0.051,1.016
2026/05/07 08:39:42.411,0.084,0.051,1.017
2026/05/07 08:39:42.431,0.085,0.055,1.015
2026/05/07 08:39:42.451,0.083,0.047,1.012
2026/05/07 08:39:42.472,0.081,0.046,1.015
2026/05/07 08:39:42.492,0.082,0.051,1.018
2026/05/07 08:39:42.512,0.083,0.053,1.013
2026/05/07 08:39:42.532,0.082,0.049,1.014
2026/05/07 08:39:42.552,0.081,0.051,1.015
2026/05/07 08:39:42.573,0.083,0.048,1.012
2026/05/07 08:39:42.593,0.086,0.052,1.02
2026/05/07 08:39:42.613,0.084,0.049,1.017
2026/05/07 08:39:42.633,0.08,0.049,1.015
2026/05/07 08:39:42.653,0.083,0.051,1.018
2026/05/07 08:39:42.674,0.08,0.051,1.012
2026/05/07 08:39:42.694,0.083,0.052,1.015
2026/05/07 08:39:42.714,0.081,0.048,1.015
2026/05/07 08:39:42.734,0.081,0.052,1.018
2026/05/07 08:39:42.754,0.084,0.051,1.016
2026/05/07 08:39:42.775,0.083,0.053,1.015
2026/05/07 08:39:42.795,0.081,0.052,1.015
2026/05/07 08:39:42.815,0.079,0.049,1.017
2026/05/07 08:39:42.835,0.083,0.049,1.015
2026/05/07 08:39:42.855,0.082,0.05,1.013
2026/05/07 08:39:42.876,0.082,0.052,1.014
2026/05/07 08:39:42.896,0.083,0.047,1.016
2026/05/07 08:39:42.916,0.083,0.051,1.017
2026/05/07 08:39:42.936,0.08,0.054,1.015
2026/05/07 08:39:42.956,0.082,0.049,1.013
2026/05/07 08:39:42.976,0.084,0.052,1.012
2026/05/07 08:39:42.997,0.088,0.048,1.018
2026/05/07 08:39:43.017,0.082,0.047,1.012
2026/05/07 08:39:43.037,0.084,0.047,1.025
2026/05/07 08:39:43.057,0.086,0.052,1.02
2026/05/07 08:39:43.077,0.079,0.051,1.014
2026/05/07 08:39:43.098,0.083,0.05,1.011
2026/05/07 08:39:43.118,0.081,0.049,1.015
2026/05/07 08:39:43.138,0.084,0.052,1.022
2026/05/07 08:39:43.158,0.081,0.048,1.013
2026/05/07 08:39:43.178,0.081,0.051,1.015
2026/05/07 08:39:43.199,0.081,0.05,1.018
2026/05/07 08:39:43.219,0.08,0.049,1.013
2026/05/07 08:39:43.239,0.085,0.051,1.018
2026/05/07 08:39:43.259,0.081,0.05,1.015
2026/05/07 08:39:43.279,0.082,0.052,1.015
2026/05/07 08:39:43.300,0.084,0.053,1.015
2026/05/07 08:39:43.320,0.083,0.054,1.012
2026/05/07 08:39:43.340,0.081,0.053,1.014
2026/05/07 08:39:43.360,0.084,0.05,1.015
2026/05/07 08:39:43.380,0.086,0.05,1.017
2026/05/07 08:39:43.401,0.085,0.049,1.017
2026/05/07 08:39:43.421,0.081,0.053,1.013
2026/05/07 08:39:43.441,0.083,0.049,1.02
2026/05/07 08:39:43.461,0.082,0.05,1.015
2026/05/07 08:39:43.481,0.086,0.047,1.017
2026/05/07 08:39:43.502,0.079,0.051,1.016
2026/05/07 08:39:43.522,0.083,0.047,1.013
2026/05/07 08:39:43.542,0.085,0.049,1.021
2026/05/07 08:39:43.562,0.083,0.051,1.015
2026/05/07 08:39:43.582,0.085,0.05,1.012
2026/05/07 08:39:43.603,0.082,0.049,1.015
2026/05/07 08:39:43.623,0.085,0.051,1.013
2026/05/07 08:39:43.643,0.087,0.049,1.01
2026/05/07 08:39:43.663,0.081,0.05,1.014
2026/05/07 08:39:43.683,0.086,0.052,1.017
2026/05/07 08:39:43.703,0.086,0.05,1.012
2026/05/07 08:39:43.724,0.081,0.05,1.013
2026/05/07 08:39:43.744,0.083,0.05,1.017
2026/05/07 08:39:43.764,0.084,0.05,1.015
2026/05/07 08:39:43.784,0.085,0.05,1.015
2026/05/07 08:39:43.804,0.078,0.05,1.013
2026/05/07 08:39:43.825,0.085,0.05,1.013
2026/05/07 08:39:43.845,0.083,0.049,1.013
2026/05/07 08:39:43.865,0.083,0.053,1.019
2026/05/07 08:39:43.885,0.082,0.047,1.028
2026/05/07 08:39:43.905,0.116,0.014,1.031
2026/05/07 08:39:43.926,0.106,0.033,1.184
2026/05/07 08:39:43.946,0.088,0.046,0.997
2026/05/07 08:39:43.966,0.079,0.055,0.992
2026/05/07 08:39:43.986,0.087,0.046,1.027
2026/05/07 08:39:44.006,0.082,0.057,1.013
2026/05/07 08:39:44.027,0.082,0.047,1.01
2026/05/07 08:39:44.047,0.084,0.052,1.018
2026/05/07 08:39:44.067,0.082,0.053,1.016
2026/05/07 08:39:44.087,0.084,0.05,1.013
2026/05/07 08:39:44.107,0.08,0.051,1.015
2026/05/07 08:39:44.128,0.079,0.049,1.016
2026/05/07 08:39:44.148,0.085,0.053,1.015
2026/05/07 08:39:44.168,0.032,0.088,0.945
2026/05/07 08:39:44.188,0.136,0.009,1.084
2026/05/07 08:39:44.208,0.094,0.046,1.023
2026/05/07 08:39:44.229,0.074,0.066,0.983
2026/05/07 08:39:44.249,0.103,0.044,1.032
2026/05/07 08:39:44.269,0.091,0.058,0.966
2026/05/07 08:39:44.289,0.056,0.071,0.979
2026/05/07 08:39:44.309,0.081,0.05,1.017
2026/05/07 08:39:44.330,0.083,0.053,1.016
2026/05/07 08:39:44.350,0.084,0.049,1.015
2026/05/07 08:39:44.370,0.084,0.051,1.007
2026/05/07 08:39:44.390,0.091,0.053,1.011
2026/05/07 08:39:44.410,0.092,0.047,1.016
2026/05/07 08:39:44.431,0.081,0.048,1.019
2026/05/07 08:39:44.451,0.086,0.046,1.014
2026/05/07 08:39:44.471,0.09,0.043,1.013
2026/05/07 08:39:44.491,0.081,0.047,1.008
2026/05/07 08:39:44.511,0.083,0.053,1.015
2026/05/07 08:39:44.532,0.081,0.051,1.015
2026/05/07 08:39:44.552,0.083,0.053,1.012
2026/05/07 08:39:44.572,0.078,0.047,1.018
2026/05/07 08:39:44.592,0.086,0.047,1.022
2026/05/07 08:39:44.612,0.097,0.047,1.022
2026/05/07 08:39:44.633,0.077,0.056,1.012
2026/05/07 08:39:44.653,0.056,0.033,1.038
2026/05/07 08:39:44.673,-0.373,-0.081,1.557
2026/05/07 08:39:44.693,-0.132,-0.008,1.171
2026/05/07 08:39:44.713,0.117,0.123,0.776
2026/05/07 08:39:44.734,-0.075,0.013,0.965
2026/05/07 08:39:44.754,0.069,-0.018,1.25
2026/05/07 08:39:44.774,-0.117,0.178,1.233
2026/05/07 08:39:44.794,0.055,-0.034,0.798
2026/05/07 08:39:44.814,0.135,0.006,1.359
2026/05/07 08:39:44.835,0.076,-0.049,0.965
2026/05/07 08:39:44.855,0.044,0.117,1.002
2026/05/07 08:39:44.875,0.072,-0.003,1.113
2026/05/07 08:39:44.895,0.061,0.049,0.763
2026/05/07 08:39:44.915,0.071,0.024,0.92
2026/05/07 08:39:44.936,0.034,0.046,0.945
2026/05/07 08:39:44.956,0.034,0.055,0.833
2026/05/07 08:39:44.976,0.02,0.095,0.863
2026/05/07 08:39:44.996,0.039,0.106,0.913
2026/05/07 08:39:45.016,0.095,0.057,1.138
2026/05/07 08:39:45.036,0.155,0.135,0.887
2026/05/07 08:39:45.057,0.196,0.163,1.106
2026/05/07 08:39:45.077,0.255,0.153,0.937
2026/05/07 08:39:45.097,0.228,0.128,0.978
2026/05/07 08:39:45.117,-0.019,0.078,1.018
2026/05/07 08:39:45.137,-0.178,-0.125,1.534
2026/05/07 08:39:45.158,0.044,-0.007,0.979
2026/05/07 08:39:45.178,0.122,0.084,0.972
2026/05/07 08:39:45.198,0.099,-0.007,1.057
2026/05/07 08:39:45.218,0.085,0.063,1.005
2026/05/07 08:39:45.238,0.081,0.059,1.001
2026/05/07 08:39:45.259,0.08,0.056,1.007
2026/05/07 08:39:45.279,0.077,0.051,1.016
2026/05/07 08:39:45.299,0.08,0.055,1.01
2026/05/07 08:39:45.319,0.083,0.05,1.011
2026/05/07 08:39:45.339,0.081,0.047,1.012
2026/05/07 08:39:45.360,0.081,0.047,1.013
2026/05/07 08:39:45.380,0.081,0.05,1.017
2026/05/07 08:39:45.400,0.08,0.049,1.014
2026/05/07 08:39:45.420,0.081,0.047,1.013
2026/05/07 08:39:45.440,0.081,0.052,1.012
2026/05/07 08:39:45.461,0.079,0.047,1.021
2026/05/07 08:39:45.481,0.08,0.048,1.014
2026/05/07 08:39:45.501,0.08,0.047,1.012
2026/05/07 08:39:45.521,0.08,0.052,1.022
2026/05/07 08:39:45.541,0.08,0.052,1.02
2026/05/07 08:39:45.562,0.08,0.051,1.013
2026/05/07 08:39:45.582,0.078,0.052,1.014
2026/05/07 08:39:45.602,0.081,0.05,1.011
2026/05/07 08:39:45.622,0.081,0.052,1.019
2026/05/07 08:39:45.642,0.081,0.053,1.016
2026/05/07 08:39:45.663,0.079,0.052,1.011
2026/05/07 08:39:45.683,0.079,0.051,1.017
2026/05/07 08:39:45.703,0.077,0.049,1.011
2026/05/07 08:39:45.723,0.083,0.042,1.031
2026/05/07 08:39:45.743,0.072,0.054,0.995
2026/05/07 08:39:45.763,0.091,0.044,1.029
2026/05/07 08:39:45.784,0.067,0.055,1.012
2026/05/07 08:39:45.804,0.083,0.05,1.001
2026/05/07 08:39:45.824,0.083,0.04,1.019
2026/05/07 08:39:45.844,0.075,0.053,1.018
2026/05/07 08:39:45.864,0.076,0.052,1.01
2026/05/07 08:39:45.885,0.086,0.047,1.018
2026/05/07 08:39:45.905,0.073,0.049,1.019
2026/05/07 08:39:45.925,0.077,0.054,1.013
2026/05/07 08:39:45.945,0.083,0.053,1.013
2026/05/07 08:39:45.965,0.081,0.047,1.017
2026/05/07 08:39:45.986,0.074,0.052,1.01
2026/05/07 08:39:46.006,0.09,0.047,1.023
2026/05/07 08:39:46.026,0.076,0.052,1.025
2026/05/07 08:39:46.046,0.075,0.056,1.014
2026/05/07 08:39:46.066,0.085,0.052,0.993
2026/05/07 08:39:46.087,0.099,0.036,1.073
2026/05/07 08:39:46.107,0.064,0.059,0.976
2026/05/07 08:39:46.127,0.091,0.042,1.016
2026/05/07 08:39:46.147,0.07,0.054,1.0
2026/05/07 08:39:46.167,0.096,0.04,1.047
2026/05/07 08:39:46.188,0.069,0.055,1.045
2026/05/07 08:39:46.208,0.136,0.028,0.989
2026/05/07 08:39:46.228,0.041,0.087,0.867
2026/05/07 08:39:46.248,0.193,-0.065,1.574
2026/05/07 08:39:46.268,0.034,0.095,0.901
2026/05/07 08:39:46.289,-0.019,0.067,0.833
2026/05/07 08:39:46.309,0.096,0.043,1.035
2026/05/07 08:39:46.329,0.117,0.018,1.127
2026/05/07 08:39:46.349,0.092,0.015,1.141
2026/05/07 08:39:46.369,0.055,0.057,1.001
2026/05/07 08:39:46.389,0.083,0.043,1.044
2026/05/07 08:39:46.410,0.075,0.053,1.006
2026/05/07 08:39:46.430,0.083,0.046,1.014
2026/05/07 08:39:46.450,0.081,0.053,1.019
2026/05/07 08:39:46.470,0.078,0.049,1.015
2026/05/07 08:39:46.490,0.082,0.047,1.019
2026/05/07 08:39:46.511,0.078,0.05,1.015
2026/05/07 08:39:46.531,0.084,0.051,1.013
2026/05/07 08:39:46.551,0.079,0.056,1.012
2026/05/07 08:39:46.571,0.079,0.05,1.018
2026/05/07 08:39:46.591,0.078,0.053,1.014
2026/05/07 08:39:46.612,0.083,0.048,1.016
2026/05/07 08:39:46.632,0.078,0.05,1.013
2026/05/07 08:39:46.652,0.077,0.052,1.013
2026/05/07 08:39:46.672,0.082,0.051,1.017
2026/05/07 08:39:46.692,0.081,0.05,1.016
2026/05/07 08:39:46.713,0.082,0.056,1.016
2026/05/07 08:39:46.733,0.083,0.05,1.018
2026/05/07 08:39:46.753,0.078,0.052,1.015
2026/05/07 08:39:46.773,0.082,0.05,1.017
2026/05/07 08:39:46.793,0.078,0.057,1.001
2026/05/07 08:39:46.814,0.08,0.059,0.977
2026/05/07 08:39:46.834,0.087,0.046,1.01
2026/05/07 08:39:46.854,0.08,0.049,1.02
2026/05/07 08:39:46.874,0.077,0.046,1.031
2026/05/07 08:39:46.894,0.081,0.046,1.015
2026/05/07 08:39:46.915,0.078,0.052,1.015
2026/05/07 08:39:46.935,0.08,0.047,1.018
2026/05/07 08:39:46.955,0.078,0.051,1.02
2026/05/07 08:39:46.975,0.078,0.05,1.014
2026/05/07 08:39:46.995,0.082,0.047,1.014
2026/05/07 08:39:47.016,0.083,0.05,1.014
2026/05/07 08:39:47.036,0.054,0.064,1.051
2026/05/07 08:39:47.056,0.068,0.06,0.98
2026/05/07 08:39:47.076,0.085,0.043,1.031
2026/05/07 08:39:47.096,0.079,0.051,1.018
2026/05/07 08:39:47.117,0.081,0.047,1.015
2026/05/07 08:39:47.137,0.082,0.051,1.018
2026/05/07 08:39:47.157,0.078,0.052,1.01
2026/05/07 08:39:47.177,0.063,0.062,1.006
2026/05/07 08:39:47.197,0.069,0.059,0.993
2026/05/07 08:39:47.217,0.083,0.041,1.039
2026/05/07 08:39:47.238,0.073,0.049,1.019
2026/05/07 08:39:47.258,0.085,0.047,1.019
2026/05/07 08:39:47.278,0.077,0.038,1.118
2026/05/07 08:39:47.298,0.096,0.057,1.014
2026/05/07 08:39:47.318,0.083,0.055,1.009
2026/05/07 08:39:47.339,0.087,0.053,1.009
2026/05/07 08:39:47.359,0.087,0.048,1.02
2026/05/07 08:39:47.379,0.081,0.053,1.018
2026/05/07 08:39:47.399,0.083,0.052,1.019
2026/05/07 08:39:47.419,0.078,0.051,1.017
2026/05/07 08:39:47.440,0.085,0.049,1.012
2026/05/07 08:39:47.460,0.077,0.05,1.011
2026/05/07 08:39:47.480,0.078,0.049,1.015
2026/05/07 08:39:47.500,0.08,0.05,1.011
2026/05/07 08:39:47.520,0.082,0.049,1.018
2026/05/07 08:39:47.541,0.083,0.053,1.016
2026/05/07 08:39:47.561,0.081,0.05,1.013
2026/05/07 08:39:47.581,0.081,0.049,1.013
2026/05/07 08:39:47.601,0.082,0.051,1.013
2026/05/07 08:39:47.621,0.083,0.048,1.017
2026/05/07 08:39:47.642,0.08,0.047,1.018
2026/05/07 08:39:47.662,0.081,0.054,1.023
2026/05/07 08:39:47.682,0.079,0.053,1.018
2026/05/07 08:39:47.702,0.083,0.051,1.007
2026/05/07 08:39:47.722,0.086,0.052,1.017
2026/05/07 08:39:47.743,0.081,0.053,1.017
2026/05/07 08:39:47.763,0.081,0.049,1.011
2026/05/07 08:39:47.783,0.08,0.051,1.014
2026/05/07 08:39:47.803,0.079,0.054,1.016
2026/05/07 08:39:47.823,0.081,0.048,1.017
2026/05/07 08:39:47.844,0.081,0.045,1.018
2026/05/07 08:39:47.864,0.082,0.049,1.012
2026/05/07 08:39:47.884,0.082,0.052,1.007
2026/05/07 08:39:47.904,0.084,0.045,1.023
2026/05/07 08:39:47.924,0.08,0.051,1.017
2026/05/07 08:39:47.945,0.08,0.051,1.014
2026/05/07 08:39:47.965,0.078,0.045,1.021
2026/05/07 08:39:47.985,0.079,0.051,1.011
2026/05/07 08:39:48.005,0.069,0.06,1.029
2026/05/07 08:39:48.025,0.085,0.052,1.011
2026/05/07 08:39:48.045,0.082,0.051,1.015
2026/05/07 08:39:48.066,0.079,0.049,1.017
2026/05/07 08:39:48.086,0.082,0.048,1.011
2026/05/07 08:39:48.106,0.083,0.049,1.017
2026/05/07 08:39:48.126,0.078,0.055,1.014
2026/05/07 08:39:48.146,0.004,0.156,0.685
2026/05/07 08:39:48.167,0.105,0.034,1.078
2026/05/07 08:39:48.187,0.082,0.051,1.006
2026/05/07 08:39:48.207,0.078,0.05,1.011
2026/05/07 08:39:48.227,0.078,0.049,1.012
2026/05/07 08:39:48.247,0.082,0.05,1.013
2026/05/07 08:39:48.268,0.078,0.046,1.019
2026/05/07 08:39:48.288,0.084,0.048,1.015
2026/05/07 08:39:48.308,0.083,0.05,1.02
2026/05/07 08:39:48.328,0.084,0.05,1.016
2026/05/07 08:39:48.348,0.081,0.048,1.015
2026/05/07 08:39:48.369,0.079,0.051,1.014
2026/05/07 08:39:48.389,0.08,0.047,1.017
2026/05/07 08:39:48.409,0.083,0.051,1.01
2026/05/07 08:39:48.429,0.076,0.052,1.013
2026/05/07 08:39:48.449,0.082,0.051,1.01
2026/05/07 08:39:48.470,0.083,0.05,1.014
2026/05/07 08:39:48.490,0.081,0.052,1.014
2026/05/07 08:39:48.510,0.082,0.046,1.018
2026/05/07 08:39:48.530,0.082,0.05,1.015
2026/05/07 08:39:48.550,0.079,0.054,1.016
2026/05/07 08:39:48.571,0.08,0.055,1.001
2026/05/07 08:39:48.591,0.271,0.304,1.433
2026/05/07 08:39:48.611,0.154,-0.008,0.912
2026/05/07 08:39:48.631,0.079,-0.001,0.853
2026/05/07 08:39:48.651,0.106,0.052,0.919
2026/05/07 08:39:48.672,0.016,-0.036,1.07
2026/05/07 08:39:48.692,-0.007,0.016,0.969
2026/05/07 08:39:48.712,0.007,-0.004,1.035
2026/05/07 08:39:48.732,0.025,0.019,1.032
2026/05/07 08:39:48.752,0.072,0.085,0.919
2026/05/07 08:39:48.772,0.088,0.047,1.014
2026/05/07 08:39:48.793,0.081,0.047,1.022
2026/05/07 08:39:48.813,0.081,0.054,1.01
2026/05/07 08:39:48.833,0.088,0.049,1.019
2026/05/07 08:39:48.853,0.081,0.053,1.014
2026/05/07 08:39:48.873,0.079,0.052,1.014
2026/05/07 08:39:48.894,0.081,0.047,1.018
2026/05/07 08:39:48.914,0.089,0.049,1.012
2026/05/07 08:39:48.934,0.075,0.05,1.003
2026/05/07 08:39:48.954,0.081,0.051,1.02
2026/05/07 08:39:48.974,0.079,0.054,1.015
2026/05/07 08:39:48.995,0.079,0.052,1.025
2026/05/07 08:39:49.015,0.073,0.057,1.008
2026/05/07 08:39:49.035,0.076,0.057,1.014
2026/05/07 08:39:49.055,0.079,0.054,1.014
2026/05/07 08:39:49.075,0.08,0.05,1.017
2026/05/07 08:39:49.096,0.08,0.049,1.011
2026/05/07 08:39:49.116,0.081,0.05,1.012
2026/05/07 08:39:49.136,0.081,0.048,1.02
2026/05/07 08:39:49.156,0.081,0.052,1.014
2026/05/07 08:39:49.176,0.079,0.051,1.015
2026/05/07 08:39:49.197,0.081,0.051,1.016
2026/05/07 08:39:49.217,0.084,0.047,1.012
2026/05/07 08:39:49.237,0.082,0.053,1.018
2026/05/07 08:39:49.257,0.312,-0.014,1.079
2026/05/07 08:39:49.277,0.242,-0.045,1.025
2026/05/07 08:39:49.298,0.248,0.031,0.907
2026/05/07 08:39:49.318,0.213,0.043,1.008
2026/05/07 08:39:49.338,0.048,0.089,1.04
2026/05/07 08:39:49.358,0.068,0.083,0.995
2026/05/07 08:39:49.378,0.018,0.085,1.007
2026/05/07 08:39:49.399,-0.014,0.065,1.042
2026/05/07 08:39:49.419,-0.067,0.113,0.955
2026/05/07 08:39:49.439,-0.003,0.094,0.99
2026/05/07 08:39:49.459,-0.079,0.085,1.047
2026/05/07 08:39:49.479,-0.087,0.075,1.037
2026/05/07 08:39:49.499,-0.087,0.044,1.015
2026/05/07 08:39:49.520,0.028,0.04,1.071
2026/05/07 08:39:49.540,0.081,0.054,1.022
2026/05/07 08:39:49.560,0.082,0.048,1.021
2026/05/07 08:39:49.580,0.077,0.058,1.018
2026/05/07 08:39:49.600,0.084,0.054,1.019
2026/05/07 08:39:49.621,0.081,0.051,1.017
2026/05/07 08:39:49.641,0.083,0.056,1.009
2026/05/07 08:39:49.661,0.079,0.051,1.015
2026/05/07 08:39:49.681,0.076,0.049,1.015
2026/05/07 08:39:49.701,0.077,0.054,1.014
2026/05/07 08:39:49.722,0.081,0.057,1.014
2026/05/07 08:39:49.742,0.08,0.053,1.017
2026/05/07 08:39:49.762,0.082,0.052,1.019
2026/05/07 08:39:49.782,0.083,0.054,1.014
2026/05/07 08:39:49.802,0.082,0.053,1.015
2026/05/07 08:39:49.823,0.078,0.052,1.015
2026/05/07 08:39:49.843,0.078,0.055,1.017
2026/05/07 08:39:49.863,0.082,0.055,1.018
2026/05/07 08:39:49.883,0.081,0.052,1.01
2026/05/07 08:39:49.903,0.082,0.053,1.015
2026/05/07 08:39:49.924,0.084,0.056,1.015
2026/05/07 08:39:49.944,0.082,0.054,1.012
2026/05/07 08:39:49.964,0.08,0.053,1.012
2026/05/07 08:39:49.984,0.084,0.053,1.012
2026/05/07 08:39:50.004,0.08,0.053,1.017
2026/05/07 08:39:50.025,0.06,0.067,0.972
2026/05/07 08:39:50.045,0.069,0.037,1.026
2026/05/07 08:39:50.065,0.133,0.068,1.026
2026/05/07 08:39:50.085,0.093,0.038,0.989
2026/05/07 08:39:50.105,0.136,0.089,0.987
2026/05/07 08:39:50.126,0.088,0.017,0.995
2026/05/07 08:39:50.146,0.051,0.046,1.055
2026/05/07 08:39:50.166,0.078,0.052,1.017
2026/05/07 08:39:50.186,0.083,0.04,0.943
2026/05/07 08:39:50.206,0.068,0.076,1.146
2026/05/07 08:39:50.226,0.051,0.067,0.994
2026/05/07 08:39:50.247,0.101,0.068,0.678
2026/05/07 08:39:50.267,0.095,0.047,0.959
2026/05/07 08:39:50.287,0.049,0.074,1.1
2026/05/07 08:39:50.307,0.071,0.067,1.01
2026/05/07 08:39:50.327,0.108,0.034,1.028
2026/05/07 08:39:50.348,0.076,0.057,1.02
2026/05/07 08:39:50.368,0.078,0.058,1.014
2026/05/07 08:39:50.388,0.083,0.054,1.016
2026/05/07 08:39:50.408,0.08,0.058,1.01
2026/05/07 08:39:50.428,0.08,0.052,1.013
2026/05/07 08:39:50.449,0.081,0.051,1.021
2026/05/07 08:39:50.469,0.08,0.052,1.015
2026/05/07 08:39:50.489,0.081,0.054,1.013
2026/05/07 08:39:50.509,0.08,0.05,1.016
2026/05/07 08:39:50.529,-0.008,0.169,0.732
2026/05/07 08:39:50.550,0.144,-0.024,1.261
2026/05/07 08:39:50.570,0.075,0.029,1.149
2026/05/07 08:39:50.590,0.028,0.053,0.947
2026/05/07 08:39:50.610,0.073,0.079,1.075
2026/05/07 08:39:50.630,0.105,0.093,0.991
2026/05/07 08:39:50.651,0.078,0.031,1.027
2026/05/07 08:39:50.671,0.079,0.052,1.004
2026/05/07 08:39:50.691,0.097,0.052,1.015
2026/05/07 08:39:50.711,0.088,0.049,1.038
2026/05/07 08:39:50.731,0.084,0.052,0.958
2026/05/07 08:39:50.752,0.073,0.047,1.025
2026/05/07 08:39:50.772,0.113,0.042,0.991
2026/05/07 08:39:50.792,0.07,0.05,0.992
2026/05/07 08:39:50.812,0.065,0.067,1.014
2026/05/07 08:39:50.832,0.083,0.051,1.016
2026/05/07 08:39:50.853,0.08,0.054,1.01
2026/05/07 08:39:50.873,0.08,0.057,1.016
2026/05/07 08:39:50.893,0.085,0.052,1.021
2026/05/07 08:39:50.913,0.083,0.054,1.021
2026/05/07 08:39:50.933,0.084,0.054,1.013
2026/05/07 08:39:50.953,0.078,0.052,1.013
2026/05/07 08:39:50.974,0.08,0.056,1.012
2026/05/07 08:39:50.994,0.132,-0.009,1.328
2026/05/07 08:39:51.014,0.066,0.071,0.931
2026/05/07 08:39:51.034,0.093,0.007,1.107
2026/05/07 08:39:51.054,0.067,0.067,0.986
2026/05/07 08:39:51.075,0.083,0.054,0.998
2026/05/07 08:39:51.095,0.082,0.059,1.032
2026/05/07 08:39:51.115,0.074,0.06,1.017
2026/05/07 08:39:51.135,0.072,0.052,1.013
2026/05/07 08:39:51.155,0.082,0.052,1.016
2026/05/07 08:39:51.176,0.08,0.054,1.016
2026/05/07 08:39:51.196,0.084,0.052,1.015
2026/05/07 08:39:51.216,0.077,0.052,1.012
2026/05/07 08:39:51.236,0.082,0.057,1.016
2026/05/07 08:39:51.256,0.084,0.053,1.015
2026/05/07 08:39:51.277,0.08,0.054,1.014
2026/05/07 08:39:51.297,0.081,0.052,1.011
2026/05/07 08:39:51.317,0.075,0.049,1.009
2026/05/07 08:39:51.337,0.083,0.049,1.012
2026/05/07 08:39:51.357,0.084,0.057,1.019
2026/05/07 08:39:51.378,0.089,0.059,1.015
2026/05/07 08:39:51.398,0.098,0.014,1.11
2026/05/07 08:39:51.418,0.14,0.058,1.06
2026/05/07 08:39:51.438,0.071,0.052,1.024
2026/05/07 08:39:51.458,0.074,0.057,1.042
2026/05/07 08:39:51.479,0.098,0.058,1.027
2026/05/07 08:39:51.499,0.062,0.045,1.002
2026/05/07 08:39:51.519,0.069,0.068,0.999
2026/05/07 08:39:51.539,0.083,0.055,0.999
2026/05/07 08:39:51.559,0.061,0.044,1.011
2026/05/07 08:39:51.580,0.08,0.049,1.023
2026/05/07 08:39:51.600,0.082,0.054,1.014
2026/05/07 08:39:51.620,0.079,0.056,1.013
2026/05/07 08:39:51.640,0.08,0.056,1.018
2026/05/07 08:39:51.660,0.08,0.053,1.017
2026/05/07 08:39:51.680,0.084,0.049,1.011
2026/05/07 08:39:51.701,0.081,0.055,1.023
2026/05/07 08:39:51.721,0.084,0.053,1.012
2026/05/07 08:39:51.741,0.082,0.056,1.015
2026/05/07 08:39:51.761,0.081,0.052,1.017
2026/05/07 08:39:51.781,0.08,0.056,1.015
2026/05/07 08:39:51.802,0.081,0.052,1.02
2026/05/07 08:39:51.822,0.071,0.056,1.016
2026/05/07 08:39:51.842,0.09,0.042,1.002
2026/05/07 08:39:51.862,0.082,0.06,1.026
2026/05/07 08:39:51.882,0.085,0.054,1.019
2026/05/07 08:39:51.903,0.08,0.057,1.015
2026/05/07 08:39:51.923,0.079,0.056,1.014
2026/05/07 08:39:51.943,0.081,0.058,1.017
2026/05/07 08:39:51.963,0.079,0.056,1.017
2026/05/07 08:39:51.983,0.072,0.054,1.051
2026/05/07 08:39:52.004,0.074,0.056,1.021
2026/05/07 08:39:52.024,0.094,0.043,0.989
2026/05/07 08:39:52.044,0.084,0.051,1.024
2026/05/07 08:39:52.064,0.078,0.051,1.02
2026/05/07 08:39:52.084,0.084,0.054,1.016
2026/05/07 08:39:52.105,0.079,0.055,1.012
2026/05/07 08:39:52.125,0.079,0.052,1.007
2026/05/07 08:39:52.145,0.072,0.056,1.016
2026/05/07 08:39:52.165,0.107,0.062,1.02
2026/05/07 08:39:52.185,0.082,0.053,0.997
2026/05/07 08:39:52.206,0.081,0.05,1.04
2026/05/07 08:39:52.226,0.083,0.053,0.996
2026/05/07 08:39:52.246,0.08,0.055,1.02
2026/05/07 08:39:52.266,0.083,0.057,1.016
2026/05/07 08:39:52.286,0.084,0.056,1.016
2026/05/07 08:39:52.307,0.08,0.056,1.01
2026/05/07 08:39:52.327,0.083,0.057,1.01
2026/05/07 08:39:52.347,0.081,0.049,1.017
2026/05/07 08:39:52.367,0.08,0.053,1.025
2026/05/07 08:39:52.387,0.079,0.054,1.012
2026/05/07 08:39:52.407,0.077,0.052,1.011
2026/05/07 08:39:52.428,0.082,0.054,1.015
2026/05/07 08:39:52.448,0.078,0.056,1.014
2026/05/07 08:39:52.468,0.086,0.061,1.018
2026/05/07 08:39:52.488,0.087,0.074,1.029
2026/05/07 08:39:52.508,0.078,0.066,0.995
2026/05/07 08:39:52.529,0.082,0.045,1.033
2026/05/07 08:39:52.549,0.092,0.047,1.013
2026/05/07 08:39:52.569,0.08,0.052,1.01
2026/05/07 08:39:52.589,0.078,0.054,1.018
2026/05/07 08:39:52.609,0.071,0.063,1.015
2026/05/07 08:39:52.630,0.087,0.046,1.018
2026/05/07 08:39:52.650,0.074,0.059,1.019
2026/05/07 08:39:52.670,0.08,0.055,1.016
2026/05/07 08:39:52.690,0.08,0.053,1.009
2026/05/07 08:39:52.710,0.085,0.048,1.022
2026/05/07 08:39:52.731,0.083,0.046,1.004
2026/05/07 08:39:52.751,0.079,0.055,1.027
2026/05/07 08:39:52.771,0.075,0.058,1.013
2026/05/07 08:39:52.791,0.08,0.057,0.997
2026/05/07 08:39:52.811,0.084,0.052,1.011
2026/05/07 08:39:52.832,0.08,0.053,1.017
2026/05/07 08:39:52.852,0.078,0.057,1.01
2026/05/07 08:39:52.872,0.077,0.056,1.017
2026/05/07 08:39:52.892,0.086,0.049,1.025
2026/05/07 08:39:52.912,0.079,0.052,1.016
2026/05/07 08:39:52.933,0.081,0.054,1.02
2026/05/07 08:39:52.953,0.078,0.057,1.012
2026/05/07 08:39:52.973,0.08,0.054,1.014
2026/05/07 08:39:52.993,0.071,0.061,1.011
2026/05/07 08:39:53.013,0.078,0.054,1.014
2026/05/07 08:39:53.034,0.081,0.056,1.018
2026/05/07 08:39:53.054,0.08,0.058,0.986
2026/05/07 08:39:53.074,0.081,0.04,1.004
2026/05/07 08:39:53.094,0.086,0.047,1.04
2026/05/07 08:39:53.114,0.08,0.051,1.025
2026/05/07 08:39:53.134,0.084,0.057,1.017
2026/05/07 08:39:53.155,0.08,0.056,1.009
2026/05/07 08:39:53.175,0.08,0.054,1.024
2026/05/07 08:39:53.195,0.08,0.048,1.023
2026/05/07 08:39:53.215,0.079,0.043,1.029
2026/05/07 08:39:53.235,0.071,0.05,1.006
2026/05/07 08:39:53.256,0.079,0.051,1.021
2026/05/07 08:39:53.276,0.125,0.101,1.011
2026/05/07 08:39:53.296,0.1,0.05,1.101
2026/05/07 08:39:53.316,0.103,0.066,1.004
2026/05/07 08:39:53.336,0.08,0.071,1.021
2026/05/07 08:39:53.357,0.098,0.078,1.026
2026/05/07 08:39:53.377,0.076,0.054,1.016
2026/05/07 08:39:53.397,0.083,0.072,1.053
2026/05/07 08:39:53.417,0.07,0.061,1.012
2026/05/07 08:39:53.437,0.101,0.043,1.046
2026/05/07 08:39:53.458,0.061,0.06,0.961
2026/05/07 08:39:53.478,0.107,0.038,1.032
2026/05/07 08:39:53.498,0.091,0.051,1.013
2026/05/07 08:39:53.518,0.07,0.072,1.017
2026/05/07 08:39:53.538,0.081,0.056,1.037
2026/05/07 08:39:53.559,0.076,0.051,1.017
2026/05/07 08:39:53.579,0.076,0.028,1.106
2026/05/07 08:39:53.599,0.111,0.028,0.941
2026/05/07 08:39:53.619,0.091,0.06,0.977
2026/05/07 08:39:53.639,0.078,0.062,1.059
2026/05/07 08:39:53.659,0.067,0.071,0.838
2026/05/07 08:39:53.680,0.15,0.039,1.039
2026/05/07 08:39:53.700,-0.033,0.171,0.655
2026/05/07 08:39:53.720,0.095,0.023,1.055
2026/05/07 08:39:53.740,0.058,0.093,1.022
2026/05/07 08:39:53.760,0.221,-0.038,1.054
2026/05/07 08:39:53.781,0.113,-0.024,1.231
2026/05/07 08:39:53.801,0.072,0.05,1.088
2026/05/07 08:39:53.821,0.052,0.052,0.927
2026/05/07 08:39:53.841,0.09,-0.002,1.103
2026/05/07 08:39:53.861,0.071,-0.009,0.995
2026/05/07 08:39:53.882,0.072,0.047,1.014
2026/05/07 08:39:53.902,0.093,0.047,1.021
2026/05/07 08:39:53.922,0.084,0.041,1.026
2026/05/07 08:39:53.942,0.079,0.045,0.998
2026/05/07 08:39:53.962,0.067,0.106,1.008
2026/05/07 08:39:53.983,0.11,0.029,0.961
2026/05/07 08:39:54.003,0.094,0.016,1.373
2026/05/07 08:39:54.023,0.047,0.109,0.803
2026/05/07 08:39:54.043,-0.022,0.196,2.14
2026/05/07 08:39:54.063,0.0,-0.113,0.631
2026/05/07 08:39:54.084,0.622,0.275,0.7
2026/05/07 08:39:54.104,0.032,0.058,0.971
2026/05/07 08:39:54.124,0.257,-0.125,0.931
2026/05/07 08:39:54.144,0.035,0.028,0.975
2026/05/07 08:39:54.164,-0.066,0.194,0.689
2026/05/07 08:39:54.185,-0.168,0.171,1.677
2026/05/07 08:39:54.205,0.043,0.147,0.596
2026/05/07 08:39:54.225,0.085,0.023,1.07
2026/05/07 08:39:54.245,0.102,0.066,1.045
2026/05/07 08:39:54.265,0.072,0.046,1.025
2026/05/07 08:39:54.285,0.078,0.057,1.014
2026/05/07 08:39:54.306,0.071,0.06,1.028
2026/05/07 08:39:54.326,0.076,0.052,1.015
2026/05/07 08:39:54.346,0.061,0.053,1.013
2026/05/07 08:39:54.366,0.098,0.028,1.044
2026/05/07 08:39:54.386,0.059,0.051,1.079
2026/05/07 08:39:54.407,0.031,0.09,1.007
2026/05/07 08:39:54.427,0.102,0.038,1.033
2026/05/07 08:39:54.447,0.088,0.049,1.028
2026/05/07 08:39:54.467,0.088,0.052,1.013
2026/05/07 08:39:54.487,0.081,0.051,0.951
2026/05/07 08:39:54.508,0.266,-0.069,0.355
2026/05/07 08:39:54.528,0.085,0.046,0.908
2026/05/07 08:39:54.548,0.063,0.07,1.001
2026/05/07 08:39:54.568,0.092,0.048,1.005
2026/05/07 08:39:54.588,0.084,0.042,1.032
2026/05/07 08:39:54.609,0.079,0.064,0.978
2026/05/07 08:39:54.629,0.062,0.061,1.04
2026/05/07 08:39:54.649,0.069,0.033,1.012
2026/05/07 08:39:54.669,0.178,-0.068,1.447
2026/05/07 08:39:54.689,0.152,-0.011,1.487
2026/05/07 08:39:54.710,0.067,0.066,0.906
2026/05/07 08:39:54.730,0.081,0.051,0.972
2026/05/07 08:39:54.750,0.094,0.057,0.987
2026/05/07 08:39:54.770,0.086,0.053,1.02
2026/05/07 08:39:54.790,0.098,0.061,1.137
2026/05/07 08:39:54.811,0.091,0.058,1.064
2026/05/07 08:39:54.831,-0.031,0.168,0.67
2026/05/07 08:39:54.851,0.101,-0.023,1.08
2026/05/07 08:39:54.871,0.087,0.051,1.048
2026/05/07 08:39:54.891,0.094,0.039,1.035
2026/05/07 08:39:54.911,0.073,0.063,1.016
2026/05/07 08:39:54.932,0.041,0.119,0.706
2026/05/07 08:39:54.952,0.154,0.021,1.194
2026/05/07 08:39:54.972,0.028,0.114,0.701
2026/05/07 08:39:54.992,0.058,0.09,1.025
2026/05/07 08:39:55.012,0.097,0.077,0.983
2026/05/07 08:39:55.033,0.059,-0.009,1.166
2026/05/07 08:39:55.053,0.069,0.052,1.235
2026/05/07 08:39:55.073,0.062,0.027,1.102
2026/05/07 08:39:55.093,0.019,0.036,0.993
2026/05/07 08:39:55.113,0.068,-0.005,1.342
2026/05/07 08:39:55.134,0.099,0.038,1.007
2026/05/07 08:39:55.154,0.07,0.065,0.972
2026/05/07 08:39:55.174,0.084,0.059,1.056
2026/05/07 08:39:55.194,0.088,0.018,1.065
2026/05/07 08:39:55.214,0.081,0.043,0.965
2026/05/07 08:39:55.235,0.046,0.11,0.453
2026/05/07 08:39:55.255,0.053,0.051,0.971
2026/05/07 08:39:55.275,0.092,0.058,1.108
2026/05/07 08:39:55.295,0.098,0.04,1.029
2026/05/07 08:39:55.315,0.058,0.079,0.993
2026/05/07 08:39:55.336,0.071,0.032,1.038
2026/05/07 08:39:55.356,0.136,0.062,0.927
2026/05/07 08:39:55.376,0.069,0.059,0.942
2026/05/07 08:39:55.396,0.109,0.055,1.042
2026/05/07 08:39:55.416,0.096,0.041,0.967
2026/05/07 08:39:55.437,0.065,0.061,1.04
2026/05/07 08:39:55.457,0.069,0.073,1.011
2026/05/07 08:39:55.477,0.084,0.075,1.046
2026/05/07 08:39:55.497,0.109,0.082,0.86
2026/05/07 08:39:55.517,0.15,-0.007,1.152
2026/05/07 08:39:55.538,0.079,0.05,1.074
2026/05/07 08:39:55.558,0.068,0.069,0.97
2026/05/07 08:39:55.578,0.084,0.037,1.026
2026/05/07 08:39:55.598,0.046,0.042,0.983
2026/05/07 08:39:55.618,-0.089,0.006,0.907
2026/05/07 08:39:55.639,0.086,0.048,0.967
2026/05/07 08:39:55.659,0.073,0.064,1.038
2026/05/07 08:39:55.679,0.075,0.045,0.964
2026/05/07 08:39:55.699,0.088,0.072,0.958
2026/05/07 08:39:55.719,0.073,0.047,0.998
2026/05/07 08:39:55.739,0.064,0.089,1.004
2026/05/07 08:39:55.760,0.123,0.017,1.175
2026/05/07 08:39:55.780,0.081,0.074,1.014
2026/05/07 08:39:55.800,0.086,0.05,1.008
2026/05/07 08:39:55.820,0.1,0.068,0.987
2026/05/07 08:39:55.840,0.076,0.057,1.036
2026/05/07 08:39:55.861,0.089,0.06,1.002
2026/05/07 08:39:55.881,0.092,0.029,1.131
2026/05/07 08:39:55.901,0.077,0.046,0.983
2026/05/07 08:39:55.921,0.065,0.055,1.001
2026/05/07 08:39:55.941,0.098,0.069,1.011
2026/05/07 08:39:55.962,0.074,0.045,1.01
2026/05/07 08:39:55.982,0.085,0.055,1.019
2026/05/07 08:39:56.002,0.094,0.045,0.992
2026/05/07 08:39:56.022,0.087,0.049,1.005
2026/05/07 08:39:56.042,0.09,0.054,1.013
2026/05/07 08:39:56.063,0.085,0.054,1.009
2026/05/07 08:39:56.083,0.075,0.046,1.024
2026/05/07 08:39:56.103,0.064,0.048,1.014
2026/05/07 08:39:56.123,0.083,0.055,1.021
2026/05/07 08:39:56.143,0.095,0.052,1.028
2026/05/07 08:39:56.164,0.119,0.068,1.004
2026/05/07 08:39:56.184,0.082,0.075,0.985
2026/05/07 08:39:56.204,0.083,0.047,1.024
2026/05/07 08:39:56.224,0.084,0.047,1.004
2026/05/07 08:39:56.244,0.106,0.054,1.014
2026/05/07 08:39:56.265,0.08,0.054,1.026
2026/05/07 08:39:56.285,0.084,0.062,1.028
2026/05/07 08:39:56.305,0.083,0.049,1.013
2026/05/07 08:39:56.325,0.085,0.05,1.019
2026/05/07 08:39:56.345,0.043,0.026,1.017
2026/05/07 08:39:56.365,0.119,0.035,1.09
2026/05/07 08:39:56.386,0.074,0.054,1.005
2026/05/07 08:39:56.406,0.081,0.05,1.017
2026/05/07 08:39:56.426,0.076,0.052,1.029
2026/05/07 08:39:56.446,0.082,0.051,1.013
2026/05/07 08:39:56.466,0.08,0.056,1.011
2026/05/07 08:39:56.487,0.078,0.05,1.015
2026/05/07 08:39:56.507,0.081,0.053,1.02
2026/05/07 08:39:56.527,0.079,0.047,1.006
2026/05/07 08:39:56.547,0.043,0.048,1.0
2026/05/07 08:39:56.567,0.078,0.05,0.995
2026/05/07 08:39:56.588,0.074,0.064,1.035
2026/05/07 08:39:56.608,0.081,0.051,1.016
2026/05/07 08:39:56.628,0.083,0.055,1.02
2026/05/07 08:39:56.648,0.08,0.057,1.009
2026/05/07 08:39:56.668,0.083,0.05,1.015
2026/05/07 08:39:56.689,0.08,0.054,1.018
2026/05/07 08:39:56.709,0.055,0.067,1.004
2026/05/07 08:39:56.729,0.09,0.046,1.013
2026/05/07 08:39:56.749,0.074,0.052,1.018
2026/05/07 08:39:56.769,0.073,0.056,1.005
2026/05/07 08:39:56.790,0.082,0.051,1.01
2026/05/07 08:39:56.810,-0.027,-0.123,1.049
2026/05/07 08:39:56.830,0.086,0.053,0.983
2026/05/07 08:39:56.850,0.094,0.05,1.035
2026/05/07 08:39:56.870,0.081,0.059,1.012
2026/05/07 08:39:56.890,0.079,0.059,1.007
2026/05/07 08:39:56.911,-0.176,0.03,0.572
2026/05/07 08:39:56.931,0.075,0.018,0.851
2026/05/07 08:39:56.951,0.028,0.07,0.95
2026/05/07 08:39:56.971,0.259,0.018,1.028
2026/05/07 08:39:56.991,0.144,0.086,0.942
2026/05/07 08:39:57.012,0.004,0.025,1.097
2026/05/07 08:39:57.032,0.156,0.045,0.987
2026/05/07 08:39:57.052,0.043,0.03,1.047
2026/05/07 08:39:57.072,0.078,0.06,1.017
2026/05/07 08:39:57.092,0.084,0.063,1.007
2026/05/07 08:39:57.113,0.085,0.055,1.011
2026/05/07 08:39:57.133,0.08,0.051,1.008
2026/05/07 08:39:57.153,0.082,0.054,1.012
2026/05/07 08:39:57.173,0.079,0.056,1.035
2026/05/07 08:39:57.193,0.082,0.051,1.005
2026/05/07 08:39:57.214,0.077,0.053,1.035
2026/05/07 08:39:57.234,0.065,0.033,0.946
2026/05/07 08:39:57.254,0.096,0.073,1.063
2026/05/07 08:39:57.274,0.09,0.046,1.039
2026/05/07 08:39:57.294,0.084,0.046,1.035
2026/05/07 08:39:57.315,0.079,0.058,1.005
2026/05/07 08:39:57.335,0.076,0.076,1.021
2026/05/07 08:39:57.355,0.055,0.07,1.013
2026/05/07 08:39:57.375,0.065,0.06,1.12
2026/05/07 08:39:57.395,0.112,0.055,0.981
2026/05/07 08:39:57.415,0.081,0.063,1.022
2026/05/07 08:39:57.436,0.097,0.054,1.062
2026/05/07 08:39:57.456,0.043,0.056,1.03
2026/05/07 08:39:57.476,0.093,0.044,1.016
2026/05/07 08:39:57.496,0.058,0.06,1.002
2026/05/07 08:39:57.516,0.108,0.051,1.022
2026/05/07 08:39:57.537,0.097,0.032,1.003
2026/05/07 08:39:57.557,0.02,0.043,0.965
2026/05/07 08:39:57.577,0.115,0.046,1.007
2026/05/07 08:39:57.597,0.078,0.066,1.026
2026/05/07 08:39:57.617,0.116,0.053,0.969
2026/05/07 08:39:57.638,0.107,-0.038,1.0
2026/05/07 08:39:57.658,0.073,0.09,0.959
2026/05/07 08:39:57.678,0.089,0.052,0.997
2026/05/07 08:39:57.698,0.108,0.037,1.043
2026/05/07 08:39:57.718,0.073,0.065,0.98
2026/05/07 08:39:57.739,0.099,0.048,1.115
2026/05/07 08:39:57.759,0.108,0.068,1.014
2026/05/07 08:39:57.779,0.029,0.046,0.935
2026/05/07 08:39:57.799,0.061,0.035,1.069
2026/05/07 08:39:57.819,0.082,0.044,0.997
2026/05/07 08:39:57.840,0.07,0.085,1.086
2026/05/07 08:39:57.860,0.075,0.064,1.026
2026/05/07 08:39:57.880,0.092,0.057,0.998
2026/05/07 08:39:57.900,0.092,0.073,1.045
2026/05/07 08:39:57.920,0.08,0.041,1.003
2026/05/07 08:39:57.941,0.029,0.086,1.081
2026/05/07 08:39:57.961,0.078,0.075,0.925
2026/05/07 08:39:57.981,0.088,0.051,0.997
2026/05/07 08:39:58.001,0.095,0.034,1.032
2026/05/07 08:39:58.021,0.081,0.054,1.167
2026/05/07 08:39:58.041,0.061,0.038,0.926
2026/05/07 08:39:58.062,-0.084,0.28,1.013
2026/05/07 08:39:58.082,0.094,0.058,1.066
2026/05/07 08:39:58.102,0.092,0.045,0.978
2026/05/07 08:39:58.122,0.064,0.064,0.978
2026/05/07 08:39:58.142,0.046,0.086,1.005
2026/05/07 08:39:58.163,0.099,0.021,1.28
2026/05/07 08:39:58.183,0.101,0.079,1.008
2026/05/07 08:39:58.203,-0.034,0.21,0.611
2026/05/07 08:39:58.223,0.037,0.067,0.027
2026/05/07 08:39:58.243,0.029,0.092,0.055
2026/05/07 08:39:58.264,0.161,0.054,1.206
2026/05/07 08:39:58.284,0.045,0.027,1.135
2026/05/07 08:39:58.304,0.062,0.066,0.949
2026/05/07 08:39:58.324,0.071,0.063,0.993
2026/05/07 08:39:58.344,0.105,0.031,1.113
2026/05/07 08:39:58.365,0.05,0.067,1.035
2026/05/07 08:39:58.385,0.065,0.108,0.729
2026/05/07 08:39:58.405,0.125,0.004,1.075
2026/05/07 08:39:58.425,0.051,0.082,1.01
2026/05/07 08:39:58.445,0.047,0.093,0.281
2026/05/07 08:39:58.466,0.11,-0.02,1.087
2026/05/07 08:39:58.486,0.098,0.04,1.158
2026/05/07 08:39:58.506,0.075,0.076,1.058
2026/05/07 08:39:58.526,0.073,0.062,0.991
2026/05/07 08:39:58.546,0.095,0.07,1.021
2026/05/07 08:39:58.566,0.073,0.042,1.039
2026/05/07 08:39:58.587,0.072,0.09,1.157
2026/05/07 08:39:58.607,0.144,-0.022,1.047
2026/05/07 08:39:58.627,0.239,-0.081,1.15
2026/05/07 08:39:58.647,0.008,0.067,0.284
2026/05/07 08:39:58.667,0.205,-0.022,1.017
2026/05/07 08:39:58.688,0.105,0.046,1.05
2026/05/07 08:39:58.708,0.081,0.055,0.929
2026/05/07 08:39:58.728,0.085,0.05,1.034
2026/05/07 08:39:58.748,0.073,0.061,0.986
2026/05/07 08:39:58.768,0.101,0.065,1.074
2026/05/07 08:39:58.789,0.099,0.048,1.061
2026/05/07 08:39:58.809,0.06,0.066,1.037
2026/05/07 08:39:58.829,0.108,0.043,1.012
2026/05/07 08:39:58.849,-0.007,0.156,0.156
2026/05/07 08:39:58.869,-0.012,0.117,1.549
2026/05/07 08:39:58.890,0.05,-0.012,1.031
2026/05/07 08:39:58.910,0.164,0.016,1.061
2026/05/07 08:39:58.930,0.028,0.034,1.054
2026/05/07 08:39:58.950,0.043,0.06,1.039
2026/05/07 08:39:58.970,0.022,0.092,1.101
2026/05/07 08:39:58.991,0.071,0.077,0.932
2026/05/07 08:39:59.011,0.044,0.091,0.838
2026/05/07 08:39:59.031,0.1,0.052,0.401
2026/05/07 08:39:59.051,0.312,-0.186,1.549
2026/05/07 08:39:59.071,-0.02,0.12,0.744
2026/05/07 08:39:59.091,0.108,0.046,1.101
2026/05/07 08:39:59.112,0.072,0.065,0.976
2026/05/07 08:39:59.132,0.088,0.049,1.096
2026/05/07 08:39:59.152,0.319,0.041,1.164
2026/05/07 08:39:59.172,-0.13,0.215,1.211
2026/05/07 08:39:59.192,-0.068,-0.022,1.387
2026/05/07 08:39:59.213,-0.116,0.316,1.049
2026/05/07 08:39:59.233,0.082,0.172,0.368
2026/05/07 08:39:59.253,0.031,0.153,0.617
2026/05/07 08:39:59.273,0.12,0.027,1.087
2026/05/07 08:39:59.293,0.08,0.076,1.019
2026/05/07 08:39:59.314,0.088,0.058,1.003
2026/05/07 08:39:59.334,0.002,0.142,0.723
2026/05/07 08:39:59.354,0.108,0.031,1.057
2026/05/07 08:39:59.374,0.129,0.019,1.238
2026/05/07 08:39:59.394,0.106,0.028,1.111
2026/05/07 08:39:59.415,0.068,0.076,0.917
2026/05/07 08:39:59.435,0.056,0.062,1.062
2026/05/07 08:39:59.455,0.112,0.046,1.041
2026/05/07 08:39:59.475,0.097,0.06,0.958
2026/05/07 08:39:59.495,0.107,0.045,0.794
2026/05/07 08:39:59.516,0.022,0.093,0.857
2026/05/07 08:39:59.536,0.036,0.097,0.84
2026/05/07 08:39:59.556,0.124,0.047,1.002
2026/05/07 08:39:59.576,0.12,0.019,1.081
2026/05/07 08:39:59.596,0.079,0.084,1.06
2026/05/07 08:39:59.616,0.165,-0.059,1.328
2026/05/07 08:39:59.637,0.012,0.117,0.879
2026/05/07 08:39:59.657,-0.009,0.141,0.803
2026/05/07 08:39:59.677,0.185,0.057,0.773
2026/05/07 08:39:59.697,0.097,0.063,1.011
2026/05/07 08:39:59.717,0.073,0.063,1.018
2026/05/07 08:39:59.738,0.075,0.06,0.992
2026/05/07 08:39:59.758,0.101,0.045,0.985
2026/05/07 08:39:59.778,0.162,-0.007,0.981
2026/05/07 08:39:59.798,0.038,-0.005,1.275
2026/05/07 08:39:59.818,0.002,0.081,1.024
2026/05/07 08:39:59.839,0.078,0.037,1.082
2026/05/07 08:39:59.859,0.092,0.042,1.059
2026/05/07 08:39:59.879,0.071,0.06,1.053
2026/05/07 08:39:59.899,0.099,0.078,1.058
2026/05/07 08:39:59.919,-0.071,0.282,1.185
2026/05/07 08:39:59.940,0.268,-0.1,0.873
2026/05/07 08:39:59.960,0.04,0.096,1.142
2026/05/07 08:39:59.980,-0.039,0.217,0.861
2026/05/07 08:40:00.000,0.127,-0.014,1.187
2026/05/07 08:40:00.020,0.016,0.098,0.974
2026/05/07 08:40:00.041,0.081,0.039,1.019
2026/05/07 08:40:00.061,0.089,0.029,1.085
2026/05/07 08:40:00.081,0.074,0.049,0.994
2026/05/07 08:40:00.101,0.112,0.052,1.015
2026/05/07 08:40:00.121,0.091,0.03,1.045
2026/05/07 08:40:00.142,0.086,0.042,1.036
2026/05/07 08:40:00.162,0.076,0.048,1.048
2026/05/07 08:40:00.182,0.071,0.044,1.03
2026/05/07 08:40:00.202,0.063,0.082,0.976
2026/05/07 08:40:00.222,0.07,0.068,0.945
2026/05/07 08:40:00.243,0.083,0.038,1.033
2026/05/07 08:40:00.263,0.081,0.06,0.993
2026/05/07 08:40:00.283,0.077,0.038,1.018
2026/05/07 08:40:00.303,0.105,0.06,1.044
2026/05/07 08:40:00.323,0.078,0.06,1.002
2026/05/07 08:40:00.343,0.079,0.057,0.984
2026/05/07 08:40:00.364,0.081,0.059,0.983
2026/05/07 08:40:00.384,0.077,0.057,1.004
2026/05/07 08:40:00.404,0.083,0.054,1.029
2026/05/07 08:40:00.424,0.08,0.056,1.018
2026/05/07 08:40:00.444,0.077,0.051,1.001
2026/05/07 08:40:00.465,0.077,0.05,1.004
2026/05/07 08:40:00.485,0.08,0.062,1.028
2026/05/07 08:40:00.505,0.078,0.039,1.06
2026/05/07 08:40:00.525,0.081,0.042,1.047
2026/05/07 08:40:00.545,0.081,0.055,1.027
2026/05/07 08:40:00.566,0.078,0.058,1.008
2026/05/07 08:40:00.586,0.081,0.052,1.021
2026/05/07 08:40:00.606,0.084,0.055,1.016
2026/05/07 08:40:00.626,0.083,0.054,1.018
2026/05/07 08:40:00.646,0.08,0.054,1.018
2026/05/07 08:40:00.667,0.086,0.054,1.021
2026/05/07 08:40:00.687,0.08,0.055,1.01
2026/05/07 08:40:00.707,0.082,0.055,1.014
2026/05/07 08:40:00.727,0.084,0.049,1.028
2026/05/07 08:40:00.747,0.081,0.054,1.013
2026/05/07 08:40:00.768,0.074,0.058,1.02
2026/05/07 08:40:00.788,0.081,0.055,1.014
2026/05/07 08:40:00.808,0.08,0.054,1.019
2026/05/07 08:40:00.828,0.078,0.053,1.013
2026/05/07 08:40:00.848,0.082,0.051,1.017
2026/05/07 08:40:00.869,0.079,0.056,1.011
2026/05/07 08:40:00.889,0.082,0.052,1.006
2026/05/07 08:40:00.909,-0.381,-0.114,1.98
2026/05/07 08:40:00.929,0.259,0.099,0.753
2026/05/07 08:40:00.949,-0.03,0.028,0.874
2026/05/07 08:40:00.970,0.13,0.081,0.943
2026/05/07 08:40:00.990,0.127,0.073,1.056
2026/05/07 08:40:01.010,0.037,0.039,1.015
2026/05/07 08:40:01.030,0.098,0.085,1.027
2026/05/07 08:40:01.050,0.133,0.052,1.006
2026/05/07 08:40:01.071,0.059,0.036,1.006
2026/05/07 08:40:01.091,0.07,0.042,1.038
2026/05/07 08:40:01.111,0.078,0.047,1.033
2026/05/07 08:40:01.131,0.08,0.053,1.033
2026/05/07 08:40:01.151,0.085,0.048,1.025
2026/05/07 08:40:01.171,0.082,0.054,1.017
2026/05/07 08:40:01.192,0.08,0.057,1.016
2026/05/07 08:40:01.212,0.086,0.058,1.016
2026/05/07 08:40:01.232,0.081,0.056,1.006
2026/05/07 08:40:01.252,0.088,0.062,1.004
2026/05/07 08:40:01.272,0.082,0.055,1.017
2026/05/07 08:40:01.293,0.083,0.053,1.058
2026/05/07 08:40:01.313,0.081,0.053,1.005
2026/05/07 08:40:01.333,0.078,0.056,1.019
2026/05/07 08:40:01.353,0.075,0.058,1.016
2026/05/07 08:40:01.373,0.084,0.054,1.016
2026/05/07 08:40:01.394,0.095,0.023,1.096
2026/05/07 08:40:01.414,0.066,0.066,1.034
2026/05/07 08:40:01.434,0.081,0.059,0.99
2026/05/07 08:40:01.454,0.081,0.052,1.005
2026/05/07 08:40:01.474,0.07,0.054,1.009
2026/05/07 08:40:01.495,0.098,0.047,1.058
2026/05/07 08:40:01.515,0.104,0.031,1.056
2026/05/07 08:40:01.535,0.076,0.032,1.055
2026/05/07 08:40:01.555,0.084,0.068,0.998
2026/05/07 08:40:01.575,0.087,0.062,1.003
2026/05/07 08:40:01.596,0.083,0.047,1.014
2026/05/07 08:40:01.616,0.071,0.057,1.035
2026/05/07 08:40:01.636,0.064,0.052,1.038
2026/05/07 08:40:01.656,0.09,0.039,1.083
2026/05/07 08:40:01.676,0.068,0.062,0.982
2026/05/07 08:40:01.697,-0.057,0.216,1.018
2026/05/07 08:40:01.717,0.061,0.078,1.015
2026/05/07 08:40:01.737,0.09,0.05,1.073
2026/05/07 08:40:01.757,0.06,0.067,1.018
2026/05/07 08:40:01.777,0.094,0.041,1.002
2026/05/07 08:40:01.798,0.079,0.075,1.0
2026/05/07 08:40:01.818,0.081,0.042,0.968
2026/05/07 08:40:01.838,0.098,0.036,1.029
2026/05/07 08:40:01.858,0.157,-0.005,1.258
2026/05/07 08:40:01.878,0.149,-0.021,1.097
2026/05/07 08:40:01.898,0.072,0.067,0.988
2026/05/07 08:40:01.919,0.067,0.057,0.96
2026/05/07 08:40:01.939,0.062,0.079,1.046
2026/05/07 08:40:01.959,0.092,0.044,0.989
2026/05/07 08:40:01.979,0.103,0.027,1.186
2026/05/07 08:40:01.999,0.088,-0.007,1.388
2026/05/07 08:40:02.020,0.103,0.13,0.653
2026/05/07 08:40:02.040,0.031,0.085,0.004
2026/05/07 08:40:02.060,-0.071,0.209,1.292
2026/05/07 08:40:02.080,-0.039,0.25,1.161
2026/05/07 08:40:02.100,0.052,0.063,0.986
2026/05/07 08:40:02.121,0.053,0.066,1.038
2026/05/07 08:40:02.141,0.069,0.051,0.853
2026/05/07 08:40:02.161,0.088,0.073,1.14
2026/05/07 08:40:02.181,0.104,0.009,1.419
2026/05/07 08:40:02.201,0.025,0.114,0.905
2026/05/07 08:40:02.222,0.109,0.031,0.996
2026/05/07 08:40:02.242,0.071,0.062,1.034
2026/05/07 08:40:02.262,0.082,0.056,1.004
2026/05/07 08:40:02.282,0.082,0.056,1.019
2026/05/07 08:40:02.302,0.078,0.055,1.014
2026/05/07 08:40:02.323,0.08,0.058,1.01
2026/05/07 08:40:02.343,0.082,0.056,1.014
2026/05/07 08:40:02.363,0.084,0.054,1.014
2026/05/07 08:40:02.383,0.078,0.056,1.014
2026/05/07 08:40:02.403,0.081,0.055,1.018
2026/05/07 08:40:02.424,0.078,0.056,1.011
2026/05/07 08:40:02.444,0.081,0.057,1.015
2026/05/07 08:40:02.464,0.082,0.059,1.019
2026/05/07 08:40:02.484,0.083,0.053,1.03
2026/05/07 08:40:02.504,0.078,0.053,1.02
2026/05/07 08:40:02.525,0.082,0.056,1.012
2026/05/07 08:40:02.545,0.083,0.055,1.017
2026/05/07 08:40:02.565,0.08,0.054,1.009
2026/05/07 08:40:02.585,0.081,0.057,1.013
2026/05/07 08:40:02.605,0.081,0.052,1.011
2026/05/07 08:40:02.625,0.084,0.053,1.017
2026/05/07 08:40:02.646,0.083,0.053,1.013
2026/05/07 08:40:02.666,0.077,0.059,1.019
2026/05/07 08:40:02.686,0.081,0.056,1.014
2026/05/07 08:40:02.706,0.08,0.053,1.012
2026/05/07 08:40:02.726,0.077,0.055,1.016
2026/05/07 08:40:02.747,0.08,0.054,1.016
2026/05/07 08:40:02.767,0.083,0.059,1.016
2026/05/07 08:40:02.787,0.081,0.055,1.013
2026/05/07 08:40:02.807,0.083,0.054,1.016
2026/05/07 08:40:02.827,0.083,0.052,1.016
2026/05/07 08:40:02.848,0.081,0.055,1.017
2026/05/07 08:40:02.868,0.082,0.051,1.017
2026/05/07 08:40:02.888,0.082,0.055,1.014
2026/05/07 08:40:02.908,0.081,0.054,1.016
2026/05/07 08:40:02.928,0.079,0.055,1.02
2026/05/07 08:40:02.949,0.084,0.052,1.029
2026/05/07 08:40:02.969,0.027,0.129,1.327
2026/05/07 08:40:02.989,0.027,0.121,0.928
2026/05/07 08:40:03.009,0.103,0.026,1.039
2026/05/07 08:40:03.029,0.117,0.013,1.077
2026/05/07 08:40:03.050,0.062,0.069,0.999
2026/05/07 08:40:03.070,0.088,0.05,0.995
2026/05/07 08:40:03.090,0.062,0.071,0.975
2026/05/07 08:40:03.110,0.097,0.039,1.038
2026/05/07 08:40:03.130,0.097,0.021,1.598
2026/05/07 08:40:03.151,0.029,0.106,0.731
2026/05/07 08:40:03.171,0.127,-0.01,1.303
2026/05/07 08:40:03.191,0.05,0.087,0.909
2026/05/07 08:40:03.211,0.092,0.045,1.029
2026/05/07 08:40:03.231,0.08,0.061,1.049
2026/05/07 08:40:03.252,0.08,0.049,0.994
2026/05/07 08:40:03.272,0.028,0.1,1.025
2026/05/07 08:40:03.292,0.07,0.083,0.963
2026/05/07 08:40:03.312,0.125,0.024,1.081
2026/05/07 08:40:03.332,0.079,0.061,1.017
2026/05/07 08:40:03.352,0.09,0.035,1.003
2026/05/07 08:40:03.373,0.092,0.036,0.94
2026/05/07 08:40:03.393,0.062,0.073,1.018
2026/05/07 08:40:03.413,0.105,0.014,0.975
2026/05/07 08:40:03.433,0.143,-0.026,1.283
2026/05/07 08:40:03.453,0.084,0.075,0.981
2026/05/07 08:40:03.474,0.064,0.069,1.063
2026/05/07 08:40:03.494,0.083,0.051,1.012
2026/05/07 08:40:03.514,0.088,0.055,1.004
2026/05/07 08:40:03.534,0.082,0.048,0.961
2026/05/07 08:40:03.554,0.011,0.134,0.827
2026/05/07 08:40:03.575,0.025,0.084,1.065
2026/05/07 08:40:03.595,0.059,0.075,0.979
2026/05/07 08:40:03.615,0.086,0.049,1.02
2026/05/07 08:40:03.635,0.085,0.053,0.96
2026/05/07 08:40:03.655,0.088,0.063,0.986
2026/05/07 08:40:03.676,0.081,0.035,1.068
2026/05/07 08:40:03.696,0.07,0.065,1.022
2026/05/07 08:40:03.716,0.094,0.048,1.017
2026/05/07 08:40:03.736,0.088,0.048,1.039
2026/05/07 08:40:03.756,0.083,0.054,1.007
2026/05/07 08:40:03.777,0.083,0.064,0.997
2026/05/07 08:40:03.797,0.084,0.068,0.992
2026/05/07 08:40:03.817,0.089,0.062,0.996
2026/05/07 08:40:03.837,0.1,0.045,1.023
2026/05/07 08:40:03.857,0.08,0.05,0.986
2026/05/07 08:40:03.878,0.068,0.057,1.042
2026/05/07 08:40:03.898,0.101,0.049,0.966
2026/05/07 08:40:03.918,0.043,0.098,0.975
2026/05/07 08:40:03.938,0.101,0.05,1.013
2026/05/07 08:40:03.958,0.052,0.046,1.043
2026/05/07 08:40:03.978,0.084,0.052,1.049
2026/05/07 08:40:03.999,0.081,0.051,1.04
2026/05/07 08:40:04.019,0.08,0.053,1.035
2026/05/07 08:40:04.039,0.082,0.057,1.015
2026/05/07 08:40:04.059,0.076,0.06,1.007
2026/05/07 08:40:04.079,0.076,0.054,1.016
2026/05/07 08:40:04.100,0.083,0.058,1.011
2026/05/07 08:40:04.120,0.08,0.053,1.016
2026/05/07 08:40:04.140,0.085,0.054,1.013
2026/05/07 08:40:04.160,0.08,0.054,1.014
2026/05/07 08:40:04.180,0.083,0.053,1.007
2026/05/07 08:40:04.201,0.083,0.055,1.015
2026/05/07 08:40:04.221,0.082,0.051,1.016
2026/05/07 08:40:04.241,0.084,0.056,1.015
2026/05/07 08:40:04.261,0.082,0.056,1.014
2026/05/07 08:40:04.281,0.082,0.053,1.01
2026/05/07 08:40:04.302,0.078,0.057,1.016
2026/05/07 08:40:04.322,0.08,0.054,1.013
2026/05/07 08:40:04.342,0.08,0.056,1.011
2026/05/07 08:40:04.362,0.082,0.052,1.003
2026/05/07 08:40:04.382,0.079,0.054,1.028
2026/05/07 08:40:04.403,0.079,0.057,1.014
2026/05/07 08:40:04.423,0.082,0.056,1.015
2026/05/07 08:40:04.443,0.078,0.054,1.019
2026/05/07 08:40:04.463,0.081,0.054,1.012
2026/05/07 08:40:04.483,0.082,0.058,1.0
2026/05/07 08:40:04.504,0.074,0.061,1.059
2026/05/07 08:40:04.524,-0.139,-0.034,0.82
2026/05/07 08:40:04.544,0.143,0.107,0.983
2026/05/07 08:40:04.564,0.0,0.056,1.124
2026/05/07 08:40:04.584,0.157,0.065,0.963
2026/05/07 08:40:04.605,0.019,0.056,1.03
2026/05/07 08:40:04.625,0.085,0.075,0.96
2026/05/07 08:40:04.645,0.101,0.075,0.987
2026/05/07 08:40:04.665,0.091,0.058,1.001
2026/05/07 08:40:04.685,0.087,0.053,1.019
2026/05/07 08:40:04.705,0.082,0.054,1.016
2026/05/07 08:40:04.726,0.082,0.053,1.012
2026/05/07 08:40:04.746,0.081,0.056,1.011
2026/05/07 08:40:04.766,0.083,0.059,1.019
2026/05/07 08:40:04.786,0.086,0.057,1.012
2026/05/07 08:40:04.806,0.085,0.06,1.016
2026/05/07 08:40:04.827,0.089,0.049,1.025
2026/05/07 08:40:04.847,0.08,0.073,1.033
2026/05/07 08:40:04.867,0.085,0.05,1.01
2026/05/07 08:40:04.887,0.076,0.064,1.046
2026/05/07 08:40:04.907,0.074,0.052,1.018
2026/05/07 08:40:04.928,0.091,0.054,0.99
2026/05/07 08:40:04.948,0.093,0.051,1.046
2026/05/07 08:40:04.968,0.082,0.095,1.032
2026/05/07 08:40:04.988,0.071,0.062,1.02
2026/05/07 08:40:05.008,0.067,0.036,1.039
2026/05/07 08:40:05.029,0.087,0.065,1.156
2026/05/07 08:40:05.049,0.083,0.038,0.931
2026/05/07 08:40:05.069,0.054,0.107,1.035
2026/05/07 08:40:05.089,0.048,0.086,0.85
2026/05/07 08:40:05.109,0.106,0.035,1.042
2026/05/07 08:40:05.130,0.073,0.061,1.02
2026/05/07 08:40:05.150,0.093,0.032,1.029
2026/05/07 08:40:05.170,0.075,0.037,0.975
2026/05/07 08:40:05.190,0.064,0.064,1.073
2026/05/07 08:40:05.210,0.124,0.006,1.068
2026/05/07 08:40:05.231,0.082,0.057,0.997
2026/05/07 08:40:05.251,0.094,0.048,0.984
2026/05/07 08:40:05.271,0.075,0.051,0.837
2026/05/07 08:40:05.291,0.065,0.058,1.039
2026/05/07 08:40:05.311,0.106,0.023,1.062
2026/05/07 08:40:05.331,0.071,0.037,1.038
2026/05/07 08:40:05.352,0.089,0.042,1.074
2026/05/07 08:40:05.372,0.103,0.047,1.11
2026/05/07 08:40:05.392,0.126,0.057,0.877
2026/05/07 08:40:05.412,0.115,0.002,1.006
2026/05/07 08:40:05.432,-0.014,0.17,0.747
2026/05/07 08:40:05.453,0.186,0.046,0.876
2026/05/07 08:40:05.473,0.15,-0.01,1.343
2026/05/07 08:40:05.493,0.057,0.088,0.91
2026/05/07 08:40:05.513,0.113,0.037,1.046
2026/05/07 08:40:05.533,0.087,0.051,1.039
2026/05/07 08:40:05.554,0.069,0.066,0.83
2026/05/07 08:40:05.574,-0.086,0.108,1.049
2026/05/07 08:40:05.594,0.191,-0.019,1.11
2026/05/07 08:40:05.614,0.07,0.092,0.97
2026/05/07 08:40:05.634,0.08,0.105,0.918
2026/05/07 08:40:05.655,0.093,0.054,0.978
2026/05/07 08:40:05.675,0.081,0.054,1.033
2026/05/07 08:40:05.695,0.089,0.036,0.981
2026/05/07 08:40:05.715,0.087,0.049,1.031
2026/05/07 08:40:05.735,0.104,0.039,1.017
2026/05/07 08:40:05.756,-0.053,0.062,-0.182
2026/05/07 08:40:05.776,-0.052,0.105,0.877
2026/05/07 08:40:05.796,0.231,0.006,1.145
2026/05/07 08:40:05.816,0.069,0.15,0.852
2026/05/07 08:40:05.836,0.144,0.047,0.985
2026/05/07 08:40:05.857,0.11,0.073,1.009
2026/05/07 08:40:05.877,0.092,0.068,0.961
2026/05/07 08:40:05.897,0.105,0.037,1.127
2026/05/07 08:40:05.917,0.216,-0.017,1.0
2026/05/07 08:40:05.937,-0.111,0.332,0.804
2026/05/07 08:40:05.958,0.174,0.023,0.993
2026/05/07 08:40:05.978,0.023,0.134,0.803
2026/05/07 08:40:05.998,0.171,-0.027,1.246
2026/05/07 08:40:06.018,0.043,0.066,0.894
2026/05/07 08:40:06.038,0.116,0.028,1.057
2026/05/07 08:40:06.058,0.064,0.063,1.018
2026/05/07 08:40:06.079,0.105,0.035,1.019
2026/05/07 08:40:06.099,0.052,0.1,0.894
2026/05/07 08:40:06.119,0.105,0.034,0.951
2026/05/07 08:40:06.139,0.17,0.007,1.082
2026/05/07 08:40:06.159,0.091,0.061,1.095
2026/05/07 08:40:06.180,0.068,0.068,1.03
2026/05/07 08:40:06.200,0.09,0.052,0.989
2026/05/07 08:40:06.220,0.082,0.052,1.017
2026/05/07 08:40:06.240,0.079,0.057,1.019
2026/05/07 08:40:06.260,0.082,0.052,1.025
2026/05/07 08:40:06.281,0.08,0.046,0.928
2026/05/07 08:40:06.301,0.11,0.028,1.002
2026/05/07 08:40:06.321,0.092,0.052,0.852
2026/05/07 08:40:06.341,0.13,-0.006,1.132
2026/05/07 08:40:06.361,0.119,0.004,1.104
2026/05/07 08:40:06.382,0.066,0.067,1.002
2026/05/07 08:40:06.402,0.081,0.049,1.009
2026/05/07 08:40:06.422,0.063,0.067,1.02
2026/05/07 08:40:06.442,0.08,0.082,1.117
2026/05/07 08:40:06.462,0.04,0.103,1.059
2026/05/07 08:40:06.483,0.02,0.12,0.719
2026/05/07 08:40:06.503,0.023,0.136,0.686
2026/05/07 08:40:06.523,0.144,-0.012,1.141
2026/05/07 08:40:06.543,0.03,0.099,0.957
2026/05/07 08:40:06.563,0.105,0.038,1.001
2026/05/07 08:40:06.584,0.077,0.067,1.046
2026/05/07 08:40:06.604,0.079,0.058,1.017
2026/05/07 08:40:06.624,0.083,0.047,1.021
2026/05/07 08:40:06.644,0.103,0.064,0.904
2026/05/07 08:40:06.664,0.093,0.048,1.04
2026/05/07 08:40:06.684,0.09,0.054,1.007
2026/05/07 08:40:06.705,0.088,0.05,1.011
2026/05/07 08:40:06.725,0.073,0.051,1.011
2026/05/07 08:40:06.745,0.08,0.052,1.002
2026/05/07 08:40:06.765,0.081,0.05,0.991
2026/05/07 08:40:06.785,0.082,0.052,1.011
2026/05/07 08:40:06.806,0.078,0.064,1.019
2026/05/07 08:40:06.826,0.089,0.055,1.011
2026/05/07 08:40:06.846,0.075,0.058,1.019
2026/05/07 08:40:06.866,0.074,0.053,1.004
2026/05/07 08:40:06.886,0.07,0.072,0.982
2026/05/07 08:40:06.907,0.081,0.049,1.01
2026/05/07 08:40:06.927,0.082,0.063,1.016
2026/05/07 08:40:06.947,0.082,0.053,1.015
2026/05/07 08:40:06.967,0.084,0.055,1.018
2026/05/07 08:40:06.987,0.083,0.061,1.013
2026/05/07 08:40:07.008,0.087,0.059,1.008
2026/05/07 08:40:07.028,0.079,0.051,1.031
2026/05/07 08:40:07.048,0.088,0.052,1.021
2026/05/07 08:40:07.068,0.079,0.056,1.018
2026/05/07 08:40:07.088,0.081,0.052,1.015
2026/05/07 08:40:07.109,0.079,0.055,1.028
2026/05/07 08:40:07.129,0.08,0.054,1.011
2026/05/07 08:40:07.149,0.079,0.056,1.008
2026/05/07 08:40:07.169,0.079,0.056,1.013
2026/05/07 08:40:07.189,0.076,0.055,1.014
2026/05/07 08:40:07.210,0.079,0.052,1.011
2026/05/07 08:40:07.230,0.081,0.055,1.02
2026/05/07 08:40:07.250,0.083,0.054,1.014
2026/05/07 08:40:07.270,0.084,0.055,1.016
2026/05/07 08:40:07.290,0.082,0.052,1.017
2026/05/07 08:40:07.311,0.079,0.055,1.011
2026/05/07 08:40:07.331,0.084,0.054,1.014
2026/05/07 08:40:07.351,0.079,0.056,1.016
2026/05/07 08:40:07.371,0.084,0.051,1.04
2026/05/07 08:40:07.391,0.081,0.067,0.986
2026/05/07 08:40:07.411,0.09,0.05,1.014
2026/05/07 08:40:07.432,0.085,0.06,1.02
2026/05/07 08:40:07.452,0.083,0.048,1.015
2026/05/07 08:40:07.472,0.081,0.057,1.025
2026/05/07 08:40:07.492,0.082,0.059,1.024
2026/05/07 08:40:07.512,0.079,0.057,1.021
2026/05/07 08:40:07.533,0.089,0.05,1.013
2026/05/07 08:40:07.553,0.076,0.059,1.017
2026/05/07 08:40:07.573,0.077,0.059,0.996
2026/05/07 08:40:07.593,0.091,0.058,1.009
2026/05/07 08:40:07.613,0.086,0.053,1.052
2026/05/07 08:40:07.634,0.082,0.059,0.999
2026/05/07 08:40:07.654,0.072,0.066,0.982
2026/05/07 08:40:07.674,0.082,0.051,1.053
2026/05/07 08:40:07.694,0.078,0.059,1.007
2026/05/07 08:40:07.714,0.084,0.05,1.012
2026/05/07 08:40:07.735,0.078,0.053,1.02
2026/05/07 08:40:07.755,0.077,0.053,1.017
2026/05/07 08:40:07.775,0.081,0.059,1.016
2026/05/07 08:40:07.795,0.081,0.056,1.018
2026/05/07 08:40:07.815,0.079,0.055,1.024
2026/05/07 08:40:07.836,0.083,0.056,1.017
2026/05/07 08:40:07.856,0.077,0.056,1.015
2026/05/07 08:40:07.876,0.082,0.057,1.014
2026/05/07 08:40:07.896,0.083,0.056,1.017
2026/05/07 08:40:07.916,0.083,0.056,1.015
2026/05/07 08:40:07.937,0.079,0.055,1.014
2026/05/07 08:40:07.957,0.081,0.054,1.017
2026/05/07 08:40:07.977,0.079,0.054,1.015
2026/05/07 08:40:07.997,0.085,0.056,1.018
2026/05/07 08:40:08.017,0.08,0.053,1.019
2026/05/07 08:40:08.038,0.081,0.055,1.014
2026/05/07 08:40:08.058,0.085,0.053,1.015
2026/05/07 08:40:08.078,0.083,0.057,1.02
2026/05/07 08:40:08.098,0.083,0.053,1.022
2026/05/07 08:40:08.118,0.083,0.051,1.029
2026/05/07 08:40:08.138,0.083,0.058,1.012
2026/05/07 08:40:08.159,0.078,0.056,1.011
2026/05/07 08:40:08.179,0.081,0.056,1.012
2026/05/07 08:40:08.199,0.081,0.056,1.016
2026/05/07 08:40:08.219,0.08,0.057,1.017
2026/05/07 08:40:08.239,0.082,0.056,1.015
2026/05/07 08:40:08.260,0.079,0.059,1.014
2026/05/07 08:40:08.280,0.08,0.057,1.018
2026/05/07 08:40:08.300,0.078,0.053,1.016
2026/05/07 08:40:08.320,0.078,0.056,1.014
2026/05/07 08:40:08.340,0.081,0.057,1.014
2026/05/07 08:40:08.361,0.08,0.056,1.015
2026/05/07 08:40:08.381,0.079,0.054,1.016
2026/05/07 08:40:08.401,0.079,0.054,1.014
2026/05/07 08:40:08.421,0.082,0.054,1.016
2026/05/07 08:40:08.441,0.077,0.054,1.017
2026/05/07 08:40:08.462,0.079,0.056,1.015
2026/05/07 08:40:08.482,0.08,0.055,1.017
2026/05/07 08:40:08.502,0.082,0.054,1.013
2026/05/07 08:40:08.522,0.081,0.055,1.014
2026/05/07 08:40:08.542,0.08,0.056,1.017
2026/05/07 08:40:08.563,0.082,0.053,1.017
2026/05/07 08:40:08.583,0.081,0.057,1.02
2026/05/07 08:40:08.603,0.081,0.054,1.016
2026/05/07 08:40:08.623,0.083,0.055,1.017
2026/05/07 08:40:08.643,0.082,0.056,1.015
2026/05/07 08:40:08.664,0.078,0.052,1.015
2026/05/07 08:40:08.684,0.08,0.056,1.01
2026/05/07 08:40:08.704,0.08,0.055,1.017
2026/05/07 08:40:08.724,0.082,0.053,1.017
2026/05/07 08:40:08.744,0.081,0.057,1.018
2026/05/07 08:40:08.764,0.079,0.056,1.01
2026/05/07 08:40:08.785,0.082,0.057,1.018
2026/05/07 08:40:08.805,0.081,0.057,1.014
2026/05/07 08:40:08.825,0.081,0.056,1.016
2026/05/07 08:40:08.845,0.083,0.06,1.015
2026/05/07 08:40:08.865,0.082,0.055,1.02
2026/05/07 08:40:08.886,0.081,0.054,1.015
2026/05/07 08:40:08.906,0.08,0.054,1.022
2026/05/07 08:40:08.926,0.078,0.056,1.019
2026/05/07 08:40:08.946,0.083,0.052,1.014
2026/05/07 08:40:08.966,0.081,0.054,1.015
2026/05/07 08:40:08.987,0.083,0.057,1.018
2026/05/07 08:40:09.007,0.08,0.059,1.017
2026/05/07 08:40:09.027,0.079,0.056,1.018
2026/05/07 08:40:09.047,0.082,0.053,1.017
2026/05/07 08:40:09.067,0.079,0.055,1.022
2026/05/07 08:40:09.088,0.079,0.051,1.014
2026/05/07 08:40:09.108,0.077,0.055,1.012
2026/05/07 08:40:09.128,0.08,0.054,1.011
2026/05/07 08:40:09.148,0.08,0.055,1.015
2026/05/07 08:40:09.168,0.083,0.056,1.011
2026/05/07 08:40:09.189,0.079,0.057,1.016
2026/05/07 08:40:09.209,0.081,0.058,1.014
2026/05/07 08:40:09.229,0.081,0.056,1.02
2026/05/07 08:40:09.249,0.082,0.055,1.016
2026/05/07 08:40:09.269,0.083,0.051,1.017
2026/05/07 08:40:09.290,0.078,0.055,1.016
2026/05/07 08:40:09.310,0.084,0.055,1.014
2026/05/07 08:40:09.330,0.081,0.054,1.011
2026/05/07 08:40:09.350,0.08,0.06,1.016
2026/05/07 08:40:09.370,0.079,0.056,1.012
2026/05/07 08:40:09.391,0.078,0.053,1.014
2026/05/07 08:40:09.411,0.083,0.057,1.017
2026/05/07 08:40:09.431,0.08,0.052,1.016
2026/05/07 08:40:09.451,0.079,0.054,1.013
2026/05/07 08:40:09.471,0.083,0.051,1.011
2026/05/07 08:40:09.491,0.08,0.053,1.015
2026/05/07 08:40:09.512,0.081,0.057,1.012
2026/05/07 08:40:09.532,0.083,0.057,1.016
2026/05/07 08:40:09.552,0.08,0.053,1.016
2026/05/07 08:40:09.572,0.08,0.055,1.014
2026/05/07 08:40:09.592,0.08,0.055,1.02
2026/05/07 08:40:09.613,0.081,0.054,1.015
2026/05/07 08:40:09.633,0.082,0.055,1.015
2026/05/07 08:40:09.653,0.086,0.061,1.015
2026/05/07 08:40:09.673,0.083,0.058,1.013
2026/05/07 08:40:09.693,0.083,0.06,1.014
2026/05/07 08:40:09.714,0.081,0.058,1.015
2026/05/07 08:40:09.734,0.081,0.055,1.01
2026/05/07 08:40:09.754,0.082,0.055,1.015
2026/05/07 08:40:09.774,0.083,0.051,1.013
2026/05/07 08:40:09.794,0.08,0.057,1.015
2026/05/07 08:40:09.815,0.077,0.059,1.016
2026/05/07 08:40:09.835,0.08,0.057,1.016
2026/05/07 08:40:09.855,0.082,0.058,1.018
2026/05/07 08:40:09.875,0.08,0.056,1.012
2026/05/07 08:40:09.895,0.077,0.054,1.013
2026/05/07 08:40:09.916,0.082,0.055,1.02
2026/05/07 08:40:09.936,0.08,0.053,1.013
2026/05/07 08:40:09.956,0.081,0.055,1.016
2026/05/07 08:40:09.976,0.08,0.053,1.018
2026/05/07 08:40:09.996,0.081,0.057,1.008
2026/05/07 08:40:10.017,0.086,0.056,1.014
2026/05/07 08:40:10.037,0.079,0.055,1.014
2026/05/07 08:40:10.057,0.079,0.062,1.017
2026/05/07 08:40:10.077,0.081,0.054,1.02
2026/05/07 08:40:10.097,0.084,0.057,1.013
2026/05/07 08:40:10.117,0.082,0.057,1.014
2026/05/07 08:40:10.138,0.079,0.056,1.015
2026/05/07 08:40:10.158,0.078,0.056,1.019
2026/05/07 08:40:10.178,0.083,0.053,1.012
2026/05/07 08:40:10.198,0.081,0.054,1.017
2026/05/07 08:40:10.218,0.081,0.057,1.013
2026/05/07 08:40:10.239,0.08,0.059,1.016
2026/05/07 08:40:10.259,0.079,0.054,1.019
2026/05/07 08:40:10.279,0.08,0.056,1.012
2026/05/07 08:40:10.299,0.083,0.056,1.012
2026/05/07 08:40:10.319,0.08,0.05,1.021
2026/05/07 08:40:10.340,0.081,0.057,1.014
2026/05/07 08:40:10.360,0.079,0.056,1.015
2026/05/07 08:40:10.380,0.081,0.054,1.015
2026/05/07 08:40:10.400,0.08,0.057,1.015
2026/05/07 08:40:10.420,0.084,0.051,1.015
2026/05/07 08:40:10.441,0.077,0.057,1.016
2026/05/07 08:40:10.461,0.078,0.052,1.013
2026/05/07 08:40:10.481,0.074,0.055,1.016
2026/05/07 08:40:10.501,0.081,0.059,1.016
2026/05/07 08:40:10.521,0.084,0.057,1.019
2026/05/07 08:40:10.542,0.076,0.057,1.012
2026/05/07 08:40:10.562,0.078,0.057,1.012
2026/05/07 08:40:10.582,0.079,0.054,1.015
2026/05/07 08:40:10.602,0.083,0.054,1.018
2026/05/07 08:40:10.622,0.084,0.057,1.015
2026/05/07 08:40:10.643,0.081,0.057,1.015
2026/05/07 08:40:10.663,0.086,0.055,1.011
2026/05/07 08:40:10.683,0.086,0.055,1.016
2026/05/07 08:40:10.703,0.083,0.052,1.018
2026/05/07 08:40:10.723,0.08,0.056,1.016
2026/05/07 08:40:10.743,0.082,0.054,1.014
2026/05/07 08:40:10.764,0.081,0.054,1.016
2026/05/07 08:40:10.784,0.084,0.058,1.012
2026/05/07 08:40:10.804,0.079,0.055,1.017
2026/05/07 08:40:10.824,0.08,0.055,1.013
2026/05/07 08:40:10.844,0.081,0.051,1.014
2026/05/07 08:40:10.865,0.081,0.055,1.017
2026/05/07 08:40:10.885,0.082,0.056,1.015
2026/05/07 08:40:10.905,0.081,0.055,1.013
2026/05/07 08:40:10.925,0.079,0.055,1.013
2026/05/07 08:40:10.945,0.08,0.053,1.015
2026/05/07 08:40:10.966,0.08,0.054,1.016
2026/05/07 08:40:10.986,0.08,0.053,1.016
2026/05/07 08:40:11.006,0.082,0.051,1.014
2026/05/07 08:40:11.026,0.084,0.055,1.013
2026/05/07 08:40:11.046,0.082,0.055,1.016
2026/05/07 08:40:11.067,0.081,0.055,1.02
2026/05/07 08:40:11.087,0.081,0.057,1.013
2026/05/07 08:40:11.107,0.081,0.056,1.016
2026/05/07 08:40:11.127,0.083,0.056,1.014
2026/05/07 08:40:11.147,0.081,0.055,1.018
2026/05/07 08:40:11.168,0.08,0.056,1.017
2026/05/07 08:40:11.188,0.083,0.056,1.014
2026/05/07 08:40:11.208,0.08,0.053,1.017
2026/05/07 08:40:11.228,0.079,0.056,1.015
2026/05/07 08:40:11.248,0.078,0.058,1.014
2026/05/07 08:40:11.268,0.081,0.057,1.017
2026/05/07 08:40:11.289,0.082,0.053,1.009
2026/05/07 08:40:11.309,0.081,0.056,1.014
2026/05/07 08:40:11.329,0.079,0.056,1.014
2026/05/07 08:40:11.349,0.081,0.055,1.027
2026/05/07 08:40:11.369,0.082,0.057,1.009
2026/05/07 08:40:11.390,0.081,0.055,1.005
2026/05/07 08:40:11.410,0.085,0.057,1.027
2026/05/07 08:40:11.430,0.08,0.059,1.024
2026/05/07 08:40:11.450,0.081,0.053,1.013
2026/05/07 08:40:11.470,0.081,0.059,1.008
2026/05/07 08:40:11.491,0.081,0.056,1.029
2026/05/07 08:40:11.511,0.083,0.057,1.01
2026/05/07 08:40:11.531,0.083,0.053,1.019
2026/05/07 08:40:11.551,0.081,0.054,1.014
2026/05/07 08:40:11.571,0.082,0.057,1.019
2026/05/07 08:40:11.592,0.079,0.054,1.022
2026/05/07 08:40:11.612,0.08,0.052,1.015
2026/05/07 08:40:11.632,0.082,0.054,1.016
2026/05/07 08:40:11.652,0.084,0.059,1.016
2026/05/07 08:40:11.672,0.08,0.054,1.018
2026/05/07 08:40:11.693,0.08,0.057,1.005
2026/05/07 08:40:11.713,0.083,0.054,1.017
2026/05/07 08:40:11.733,0.082,0.054,1.02
2026/05/07 08:40:11.753,0.084,0.055,1.017
2026/05/07 08:40:11.773,0.082,0.056,1.016
2026/05/07 08:40:11.793,0.081,0.058,1.012
2026/05/07 08:40:11.814,0.081,0.055,1.014
2026/05/07 08:40:11.834,0.079,0.056,1.012
2026/05/07 08:40:11.854,0.081,0.055,1.014
2026/05/07 08:40:11.874,0.08,0.052,1.015
2026/05/07 08:40:11.894,0.081,0.057,1.021
2026/05/07 08:40:11.915,0.079,0.052,1.016
2026/05/07 08:40:11.935,0.08,0.058,1.018
2026/05/07 08:40:11.955,0.083,0.054,1.015
2026/05/07 08:40:11.975,0.08,0.056,1.018
2026/05/07 08:40:11.995,0.079,0.054,1.016
2026/05/07 08:40:12.016,0.079,0.057,1.016
2026/05/07 08:40:12.036,0.083,0.053,1.019
2026/05/07 08:40:12.056,0.079,0.059,1.016
2026/05/07 08:40:12.076,0.081,0.055,1.014
2026/05/07 08:40:12.096,0.082,0.054,1.015
2026/05/07 08:40:12.117,0.081,0.052,1.013
2026/05/07 08:40:12.137,0.082,0.055,1.015
2026/05/07 08:40:12.157,0.083,0.054,1.018
2026/05/07 08:40:12.177,0.124,0.003,1.112
2026/05/07 08:40:12.197,0.048,0.104,1.036
2026/05/07 08:40:12.218,0.084,0.046,1.047
2026/05/07 08:40:12.238,0.081,0.052,1.002
2026/05/07 08:40:12.258,0.08,0.058,1.012
2026/05/07 08:40:12.278,0.075,0.058,1.023
2026/05/07 08:40:12.298,0.011,0.076,1.722
2026/05/07 08:40:12.319,0.111,0.028,0.289
2026/05/07 08:40:12.339,0.061,0.096,0.1
2026/05/07 08:40:12.359,-0.001,0.182,0.969
2026/05/07 08:40:12.379,0.081,0.033,1.103
2026/05/07 08:40:12.399,0.065,0.074,0.984
2026/05/07 08:40:12.419,0.081,0.045,1.035
2026/05/07 08:40:12.440,0.092,0.042,0.981
2026/05/07 08:40:12.460,0.004,0.114,1.179
2026/05/07 08:40:12.480,0.088,0.075,1.416
2026/05/07 08:40:12.500,0.027,0.071,0.887
2026/05/07 08:40:12.520,-0.046,0.164,0.551
2026/05/07 08:40:12.541,0.17,-0.007,1.195
2026/05/07 08:40:12.561,0.104,0.098,0.948
2026/05/07 08:40:12.581,0.157,0.063,1.188
2026/05/07 08:40:12.601,0.078,0.063,0.773
2026/05/07 08:40:12.621,0.026,0.087,1.102
2026/05/07 08:40:12.642,0.137,0.028,1.254
2026/05/07 08:40:12.662,0.044,0.117,0.884
2026/05/07 08:40:12.682,0.045,0.098,1.075
2026/05/07 08:40:12.702,0.067,0.08,0.966
2026/05/07 08:40:12.722,0.089,0.04,0.992
2026/05/07 08:40:12.743,0.075,0.074,0.976
2026/05/07 08:40:12.763,0.112,0.016,1.082
2026/05/07 08:40:12.783,0.077,0.092,0.904
2026/05/07 08:40:12.803,0.064,0.087,1.093
2026/05/07 08:40:12.823,0.186,0.013,1.341
2026/05/07 08:40:12.844,0.015,0.134,0.772
2026/05/07 08:40:12.864,0.115,0.028,1.054
2026/05/07 08:40:12.884,0.059,0.081,1.018
2026/05/07 08:40:12.904,0.106,0.047,0.98
2026/05/07 08:40:12.924,0.042,0.105,0.886
2026/05/07 08:40:12.944,0.075,0.185,-0.164
2026/05/07 08:40:12.965,0.092,0.042,1.023
2026/05/07 08:40:12.985,0.109,-0.016,0.973
2026/05/07 08:40:13.005,0.057,0.053,1.026
2026/05/07 08:40:13.025,0.074,0.049,1.031
2026/05/07 08:40:13.045,0.088,0.064,1.015
2026/05/07 08:40:13.066,0.085,0.052,0.933
2026/05/07 08:40:13.086,0.089,0.055,1.096
2026/05/07 08:40:13.106,-0.002,0.158,0.579
2026/05/07 08:40:13.126,-0.006,0.151,0.53
2026/05/07 08:40:13.146,0.126,0.068,0.973
2026/05/07 08:40:13.167,0.073,0.058,0.985
2026/05/07 08:40:13.187,0.097,0.042,1.023
2026/05/07 08:40:13.207,0.095,0.072,0.949
2026/05/07 08:40:13.227,0.104,0.016,1.161
2026/05/07 08:40:13.247,0.161,-0.006,2.182
2026/05/07 08:40:13.268,0.089,0.038,0.944
2026/05/07 08:40:13.288,0.093,0.044,1.041
2026/05/07 08:40:13.308,0.062,0.078,0.972
2026/05/07 08:40:13.328,0.086,0.055,1.0
2026/05/07 08:40:13.348,0.081,0.069,0.999
2026/05/07 08:40:13.369,0.083,0.049,1.01
2026/05/07 08:40:13.389,0.107,0.021,1.15
2026/05/07 08:40:13.409,0.158,-0.013,1.242
2026/05/07 08:40:13.429,0.061,0.081,0.979
2026/05/07 08:40:13.449,0.113,0.037,1.102
2026/05/07 08:40:13.469,0.083,0.048,0.998
2026/05/07 08:40:13.490,0.086,0.043,0.963
2026/05/07 08:40:13.510,0.091,0.044,1.024
2026/05/07 08:40:13.530,0.079,0.051,1.026
2026/05/07 08:40:13.550,0.085,0.051,1.008
2026/05/07 08:40:13.570,0.072,0.062,1.008
2026/05/07 08:40:13.591,0.08,0.053,0.995
2026/05/07 08:40:13.611,0.073,0.054,1.02
2026/05/07 08:40:13.631,0.079,0.057,1.019
2026/05/07 08:40:13.651,0.051,0.068,0.995
2026/05/07 08:40:13.671,0.132,0.05,0.998
2026/05/07 08:40:13.692,0.074,0.074,1.02
2026/05/07 08:40:13.712,0.086,0.052,1.008
2026/05/07 08:40:13.732,0.09,0.05,1.011
2026/05/07 08:40:13.752,0.077,0.054,1.028
2026/05/07 08:40:13.772,0.083,0.05,1.012
2026/05/07 08:40:13.793,0.078,0.056,1.006
2026/05/07 08:40:13.813,0.081,0.054,1.027
2026/05/07 08:40:13.833,0.079,0.052,1.028
2026/05/07 08:40:13.853,0.087,0.061,1.017
2026/05/07 08:40:13.873,0.081,0.059,0.984
2026/05/07 08:40:13.894,0.066,0.054,1.006
2026/05/07 08:40:13.914,0.075,0.052,1.042
2026/05/07 08:40:13.934,0.069,0.068,1.004
2026/05/07 08:40:13.954,0.079,0.055,1.014
2026/05/07 08:40:13.974,0.08,0.05,1.003
2026/05/07 08:40:13.995,0.085,0.052,1.034
2026/05/07 08:40:14.015,0.083,0.057,0.994
2026/05/07 08:40:14.035,0.085,0.049,1.031
2026/05/07 08:40:14.055,0.084,0.057,1.017
2026/05/07 08:40:14.075,0.085,0.058,0.99
2026/05/07 08:40:14.096,0.081,0.053,1.013
2026/05/07 08:40:14.116,0.08,0.055,1.017
2026/05/07 08:40:14.136,0.08,0.057,1.009
2026/05/07 08:40:14.156,0.077,0.06,1.034
2026/05/07 08:40:14.176,0.086,0.049,1.006
2026/05/07 08:40:14.196,0.083,0.059,1.024
2026/05/07 08:40:14.217,0.076,0.055,1.019
2026/05/07 08:40:14.237,0.083,0.057,1.012
2026/05/07 08:40:14.257,0.079,0.057,1.02
2026/05/07 08:40:14.277,0.082,0.053,1.01
2026/05/07 08:40:14.297,0.081,0.054,1.012
2026/05/07 08:40:14.318,0.08,0.054,1.014
2026/05/07 08:40:14.338,0.084,0.057,1.013
2026/05/07 08:40:14.358,0.082,0.058,1.016
2026/05/07 08:40:14.378,0.08,0.052,1.008
2026/05/07 08:40:14.398,0.08,0.057,1.011
2026/05/07 08:40:14.419,0.078,0.056,1.017
2026/05/07 08:40:14.439,0.083,0.054,1.015
2026/05/07 08:40:14.459,0.082,0.056,1.012
2026/05/07 08:40:14.479,0.078,0.054,1.015
2026/05/07 08:40:14.499,0.083,0.054,1.012
2026/05/07 08:40:14.520,0.082,0.059,1.015
2026/05/07 08:40:14.540,0.082,0.053,1.011
2026/05/07 08:40:14.560,0.081,0.055,1.012
2026/05/07 08:40:14.580,0.075,0.061,1.007
2026/05/07 08:40:14.600,0.085,0.053,1.013
2026/05/07 08:40:14.621,0.082,0.054,1.025
2026/05/07 08:40:14.641,0.086,0.052,1.014
2026/05/07 08:40:14.661,0.079,0.054,1.018
2026/05/07 08:40:14.681,0.078,0.057,1.013
2026/05/07 08:40:14.701,0.081,0.055,1.015
2026/05/07 08:40:14.722,0.081,0.061,1.017
2026/05/07 08:40:14.742,0.081,0.057,1.013
2026/05/07 08:40:14.762,0.085,0.05,1.026
2026/05/07 08:40:14.782,0.084,0.057,1.015
2026/05/07 08:40:14.802,0.091,0.044,1.021
2026/05/07 08:40:14.822,0.084,0.049,1.044
2026/05/07 08:40:14.843,0.085,0.053,1.0
2026/05/07 08:40:14.863,0.081,0.052,1.011
2026/05/07 08:40:14.883,0.082,0.058,1.025
2026/05/07 08:40:14.903,0.082,0.056,1.014
2026/05/07 08:40:14.923,0.081,0.06,1.015
2026/05/07 08:40:14.944,0.084,0.055,1.017
2026/05/07 08:40:14.964,0.081,0.052,1.018
2026/05/07 08:40:14.984,0.081,0.057,1.009
2026/05/07 08:40:15.004,0.082,0.064,1.004
2026/05/07 08:40:15.024,0.074,0.056,1.012
2026/05/07 08:40:15.045,0.084,0.057,1.004
2026/05/07 08:40:15.065,0.059,0.048,1.049
2026/05/07 08:40:15.085,0.047,0.073,1.019
2026/05/07 08:40:15.105,0.086,0.024,1.11
2026/05/07 08:40:15.125,0.071,0.068,1.009
2026/05/07 08:40:15.146,0.075,0.066,0.965
2026/05/07 08:40:15.166,0.07,0.063,0.953
2026/05/07 08:40:15.186,0.061,0.034,1.022
2026/05/07 08:40:15.206,0.061,0.068,1.037
2026/05/07 08:40:15.226,0.091,0.037,1.002
2026/05/07 08:40:15.247,0.071,0.069,1.001
2026/05/07 08:40:15.267,0.074,0.092,1.004
2026/05/07 08:40:15.287,0.059,0.07,1.24
2026/05/07 08:40:15.307,0.065,0.099,0.867
2026/05/07 08:40:15.327,0.034,0.123,1.075
2026/05/07 08:40:15.348,0.09,0.057,1.033
2026/05/07 08:40:15.368,0.066,0.064,1.012
2026/05/07 08:40:15.388,0.105,0.049,1.023
2026/05/07 08:40:15.408,0.115,0.018,1.081
2026/05/07 08:40:15.428,0.107,-0.072,1.636
2026/05/07 08:40:15.448,0.016,0.131,0.701
2026/05/07 08:40:15.469,0.014,0.108,0.635
2026/05/07 08:40:15.489,0.125,-0.013,1.011
2026/05/07 08:40:15.509,0.048,0.071,1.006
2026/05/07 08:40:15.529,0.083,0.033,0.895
2026/05/07 08:40:15.549,0.12,0.073,1.028
2026/05/07 08:40:15.570,-0.339,0.695,4.826
2026/05/07 08:40:15.590,0.339,-0.081,1.889
2026/05/07 08:40:15.610,0.041,0.002,1.185
2026/05/07 08:40:15.630,-0.038,0.209,0.901
2026/05/07 08:40:15.650,0.089,0.037,1.067
2026/05/07 08:40:15.671,0.052,0.084,1.008
2026/05/07 08:40:15.691,0.091,0.021,0.915
2026/05/07 08:40:15.711,0.092,0.036,1.056
2026/05/07 08:40:15.731,0.03,0.079,1.027
2026/05/07 08:40:15.751,0.035,0.105,0.735
2026/05/07 08:40:15.772,0.134,-0.06,1.228
2026/05/07 08:40:15.792,0.107,0.036,1.133
2026/05/07 08:40:15.812,0.081,0.074,0.983
2026/05/07 08:40:15.832,0.081,0.06,1.056
2026/05/07 08:40:15.852,0.025,0.056,1.273
2026/05/07 08:40:15.873,0.146,0.008,0.663
2026/05/07 08:40:15.893,-0.032,0.191,0.078
