Timestamp,ACC X,ACC Y,ACC Z
2026/05/07 08:38:08.575,-0.141,-0.039,1.144
2026/05/07 08:38:08.594,-0.049,-0.113,0.953
2026/05/07 08:38:08.613,0.009,0.051,0.959
2026/05/07 08:38:08.633,-0.075,0.127,1.022
2026/05/07 08:38:08.652,-0.035,0.058,0.998
2026/05/07 08:38:08.671,-0.026,0.0,1.007
2026/05/07 08:38:08.690,-0.059,0.006,0.99
2026/05/07 08:38:08.709,-0.048,0.009,1.002
2026/05/07 08:38:08.729,-0.047,0.007,1.014
2026/05/07 08:38:08.748,-0.047,0.012,0.99
2026/05/07 08:38:08.767,-0.049,0.012,0.995
2026/05/07 08:38:08.786,-0.048,0.015,1.006
2026/05/07 08:38:08.806,-0.029,0.017,0.962
2026/05/07 08:38:08.825,-0.04,0.033,1.059
2026/05/07 08:38:08.844,-0.09,-0.021,0.873
2026/05/07 08:38:08.863,-0.049,0.042,1.181
2026/05/07 08:38:08.883,-0.043,0.003,1.04
2026/05/07 08:38:08.902,-0.049,0.01,0.991
2026/05/07 08:38:08.921,-0.04,0.008,1.023
2026/05/07 08:38:08.940,-0.043,0.012,1.002
2026/05/07 08:38:08.959,-0.033,0.017,0.886
2026/05/07 08:38:08.979,-0.045,0.009,1.033
2026/05/07 08:38:08.998,-0.049,0.012,1.0
2026/05/07 08:38:09.017,-0.047,0.008,0.99
2026/05/07 08:38:09.036,-0.047,0.014,1.008
2026/05/07 08:38:09.056,-0.042,0.004,0.998
2026/05/07 08:38:09.075,-0.032,0.017,1.05
2026/05/07 08:38:09.094,-0.094,-0.076,1.12
2026/05/07 08:38:09.113,0.04,-0.001,1.052
2026/05/07 08:38:09.133,-0.042,0.068,0.916
2026/05/07 08:38:09.152,-0.115,0.036,0.961
2026/05/07 08:38:09.171,-0.081,0.005,1.038
2026/05/07 08:38:09.190,-0.042,0.048,0.935
2026/05/07 08:38:09.209,-0.003,-0.051,1.06
2026/05/07 08:38:09.229,-0.086,0.0,1.043
2026/05/07 08:38:09.248,-0.017,-0.014,1.023
2026/05/07 08:38:09.267,-0.017,-0.006,1.008
2026/05/07 08:38:09.286,-0.053,0.038,0.991
2026/05/07 08:38:09.306,-0.044,0.019,0.961
2026/05/07 08:38:09.325,-0.04,0.005,1.005
2026/05/07 08:38:09.344,-0.07,-0.029,1.001
2026/05/07 08:38:09.363,-0.055,0.034,1.012
2026/05/07 08:38:09.383,-0.017,0.057,0.989
2026/05/07 08:38:09.402,-0.029,-0.005,0.99
2026/05/07 08:38:09.421,-0.017,0.038,0.992
2026/05/07 08:38:09.440,-0.122,-0.01,1.05
2026/05/07 08:38:09.459,0.045,0.062,0.977
2026/05/07 08:38:09.479,-0.03,0.001,1.012
2026/05/07 08:38:09.498,-0.079,0.009,1.0
2026/05/07 08:38:09.517,-0.021,0.008,1.013
2026/05/07 08:38:09.536,-0.078,0.008,1.016
2026/05/07 08:38:09.556,-0.025,0.013,1.001
2026/05/07 08:38:09.575,-0.051,0.009,1.007
2026/05/07 08:38:09.594,-0.046,0.009,1.007
2026/05/07 08:38:09.613,-0.042,0.017,1.006
2026/05/07 08:38:09.633,-0.051,0.006,1.006
2026/05/07 08:38:09.652,-0.038,0.011,1.001
2026/05/07 08:38:09.671,-0.044,0.012,1.004
2026/05/07 08:38:09.690,-0.045,0.013,1.002
2026/05/07 08:38:09.709,-0.047,0.008,1.007
2026/05/07 08:38:09.729,-0.047,0.011,1.001
2026/05/07 08:38:09.748,-0.046,0.013,0.999
2026/05/07 08:38:09.767,-0.04,0.009,1.001
2026/05/07 08:38:09.786,-0.045,0.015,1.01
2026/05/07 08:38:09.806,-0.044,0.012,1.0
2026/05/07 08:38:09.825,-0.044,0.009,1.007
2026/05/07 08:38:09.844,-0.044,0.008,1.007
2026/05/07 08:38:09.863,-0.046,0.009,0.998
2026/05/07 08:38:09.883,-0.045,0.007,1.001
2026/05/07 08:38:09.902,-0.046,0.01,1.012
2026/05/07 08:38:09.921,-0.044,0.012,1.001
2026/05/07 08:38:09.940,-0.043,0.008,0.995
2026/05/07 08:38:09.959,-0.046,0.013,1.012
2026/05/07 08:38:09.979,-0.046,0.011,1.006
2026/05/07 08:38:09.999,-0.046,0.008,0.992
2026/05/07 08:38:10.019,-0.034,-0.05,0.983
2026/05/07 08:38:10.039,-0.024,-0.002,0.905
2026/05/07 08:38:10.058,-0.05,0.002,1.065
2026/05/07 08:38:10.078,-0.051,0.016,0.96
2026/05/07 08:38:10.098,-0.049,-0.073,1.215
2026/05/07 08:38:10.118,-0.054,0.018,1.044
2026/05/07 08:38:10.138,0.029,0.039,0.963
2026/05/07 08:38:10.157,-0.056,-0.017,0.948
2026/05/07 08:38:10.177,-0.042,0.01,1.042
2026/05/07 08:38:10.197,-0.042,0.012,1.05
2026/05/07 08:38:10.217,-0.07,0.037,0.981
2026/05/07 08:38:10.237,-0.038,0.04,1.097
2026/05/07 08:38:10.256,-0.05,0.02,1.103
2026/05/07 08:38:10.276,-0.054,0.053,0.885
2026/05/07 08:38:10.296,-0.043,0.017,0.919
2026/05/07 08:38:10.316,-0.074,-0.008,1.092
2026/05/07 08:38:10.336,-0.055,0.007,1.09
2026/05/07 08:38:10.355,-0.04,0.028,1.005
2026/05/07 08:38:10.375,-0.045,0.025,0.973
2026/05/07 08:38:10.395,-0.033,0.016,0.964
2026/05/07 08:38:10.415,-0.053,0.004,1.028
2026/05/07 08:38:10.434,-0.044,0.009,1.018
2026/05/07 08:38:10.454,-0.046,0.005,0.999
2026/05/07 08:38:10.474,-0.04,0.012,0.991
2026/05/07 08:38:10.494,-0.041,0.013,0.985
2026/05/07 08:38:10.514,-0.039,0.012,1.006
2026/05/07 08:38:10.533,-0.034,0.037,0.994
2026/05/07 08:38:10.553,-0.052,0.013,0.976
2026/05/07 08:38:10.573,-0.04,-0.008,1.007
2026/05/07 08:38:10.593,-0.042,0.015,0.981
2026/05/07 08:38:10.613,-0.037,0.015,1.018
2026/05/07 08:38:10.632,-0.044,0.005,1.042
2026/05/07 08:38:10.652,-0.005,0.047,0.985
2026/05/07 08:38:10.672,-0.06,-0.015,1.051
2026/05/07 08:38:10.692,-0.033,0.019,1.011
2026/05/07 08:38:10.712,-0.032,-0.007,1.02
2026/05/07 08:38:10.731,-0.053,-0.016,0.927
2026/05/07 08:38:10.751,-0.02,0.044,0.904
2026/05/07 08:38:10.771,-0.038,0.003,1.019
2026/05/07 08:38:10.791,-0.044,0.018,1.006
2026/05/07 08:38:10.811,-0.045,0.008,0.997
2026/05/07 08:38:10.830,-0.049,-0.003,0.992
2026/05/07 08:38:10.850,-0.044,0.015,1.032
2026/05/07 08:38:10.870,-0.041,0.017,0.969
2026/05/07 08:38:10.890,-0.043,0.006,1.026
2026/05/07 08:38:10.909,-0.039,0.011,0.996
2026/05/07 08:38:10.929,-0.044,0.014,1.037
2026/05/07 08:38:10.949,-0.041,0.011,1.021
2026/05/07 08:38:10.969,-0.043,0.011,1.01
2026/05/07 08:38:10.989,-0.032,0.02,1.008
2026/05/07 08:38:11.008,-0.062,0.008,1.003
2026/05/07 08:38:11.028,-0.051,0.073,1.346
2026/05/07 08:38:11.048,-0.037,0.017,1.283
2026/05/07 08:38:11.068,-0.06,0.013,0.947
2026/05/07 08:38:11.088,-0.059,0.019,1.062
2026/05/07 08:38:11.107,-0.04,0.011,1.044
2026/05/07 08:38:11.127,-0.046,0.017,1.011
2026/05/07 08:38:11.147,-0.067,0.05,0.983
2026/05/07 08:38:11.167,-0.031,-0.004,1.031
2026/05/07 08:38:11.187,-0.045,0.011,1.011
2026/05/07 08:38:11.206,-0.046,0.017,1.0
2026/05/07 08:38:11.226,-0.048,0.008,1.001
2026/05/07 08:38:11.246,-0.044,0.008,1.005
2026/05/07 08:38:11.266,-0.045,0.006,1.017
2026/05/07 08:38:11.285,-0.047,0.012,1.003
2026/05/07 08:38:11.305,-0.045,0.015,1.007
2026/05/07 08:38:11.325,-0.042,0.009,1.004
2026/05/07 08:38:11.345,-0.045,0.012,1.022
2026/05/07 08:38:11.365,-0.043,0.01,1.005
2026/05/07 08:38:11.384,-0.047,0.01,0.99
2026/05/07 08:38:11.404,-0.036,0.018,0.938
2026/05/07 08:38:11.424,-0.019,0.006,1.0
2026/05/07 08:38:11.444,-0.042,0.02,0.999
2026/05/07 08:38:11.464,-0.044,0.012,1.015
2026/05/07 08:38:11.483,-0.049,0.014,1.006
2026/05/07 08:38:11.503,-0.048,0.02,0.998
2026/05/07 08:38:11.523,-0.037,0.012,1.01
2026/05/07 08:38:11.543,-0.033,-0.013,1.026
2026/05/07 08:38:11.563,-0.051,0.015,0.986
2026/05/07 08:38:11.582,-0.044,0.006,1.021
2026/05/07 08:38:11.602,-0.015,0.007,1.029
2026/05/07 08:38:11.622,-0.05,0.019,1.026
2026/05/07 08:38:11.642,-0.049,0.012,0.976
2026/05/07 08:38:11.662,-0.053,0.02,0.991
2026/05/07 08:38:11.681,-0.055,0.01,0.999
2026/05/07 08:38:11.701,-0.039,0.015,1.028
2026/05/07 08:38:11.721,-0.054,0.009,1.076
2026/05/07 08:38:11.741,-0.059,-0.071,1.179
2026/05/07 08:38:11.760,-0.052,0.026,0.895
2026/05/07 08:38:11.780,-0.026,-0.043,1.018
2026/05/07 08:38:11.800,-0.039,-0.001,1.039
2026/05/07 08:38:11.820,-0.046,0.013,1.007
2026/05/07 08:38:11.840,-0.047,0.009,0.999
2026/05/07 08:38:11.859,-0.047,0.012,1.001
2026/05/07 08:38:11.879,-0.044,0.012,1.006
2026/05/07 08:38:11.899,-0.043,0.009,1.015
2026/05/07 08:38:11.919,-0.044,0.009,0.999
2026/05/07 08:38:11.939,-0.056,0.081,1.236
2026/05/07 08:38:11.958,-0.047,0.11,0.624
2026/05/07 08:38:11.978,-0.062,0.016,1.108
2026/05/07 08:38:11.998,-0.108,-0.167,0.558
2026/05/07 08:38:12.018,-0.04,0.016,1.119
2026/05/07 08:38:12.038,-0.042,0.014,0.958
2026/05/07 08:38:12.057,-0.044,0.021,1.039
2026/05/07 08:38:12.077,-0.039,0.013,0.992
2026/05/07 08:38:12.097,-0.032,-0.073,1.257
2026/05/07 08:38:12.117,-0.047,0.031,0.913
2026/05/07 08:38:12.137,-0.041,0.0,1.046
2026/05/07 08:38:12.156,-0.043,0.005,0.998
2026/05/07 08:38:12.176,-0.046,0.007,1.002
2026/05/07 08:38:12.196,-0.045,0.013,1.052
2026/05/07 08:38:12.216,-0.035,0.043,0.884
2026/05/07 08:38:12.235,-0.048,-0.027,1.021
2026/05/07 08:38:12.255,-0.037,0.036,1.085
2026/05/07 08:38:12.275,-0.051,0.014,1.01
2026/05/07 08:38:12.295,-0.031,0.025,1.001
2026/05/07 08:38:12.315,-0.043,0.011,1.005
2026/05/07 08:38:12.334,-0.05,0.015,1.011
2026/05/07 08:38:12.354,-0.05,0.0,1.0
2026/05/07 08:38:12.374,-0.069,0.213,1.13
2026/05/07 08:38:12.394,-0.075,0.016,0.954
2026/05/07 08:38:12.414,-0.076,0.187,0.976
2026/05/07 08:38:12.433,-0.078,-0.143,1.089
2026/05/07 08:38:12.453,0.012,-0.258,1.073
2026/05/07 08:38:12.473,-0.052,-0.238,1.11
2026/05/07 08:38:12.493,-0.142,-0.06,1.052
2026/05/07 08:38:12.513,-0.006,-0.14,1.091
2026/05/07 08:38:12.532,-0.011,-0.126,1.127
2026/05/07 08:38:12.552,-0.111,-0.008,1.056
2026/05/07 08:38:12.572,-0.021,0.084,0.983
2026/05/07 08:38:12.592,-0.003,0.01,1.017
2026/05/07 08:38:12.611,-0.136,-0.072,0.812
2026/05/07 08:38:12.631,-0.058,0.028,1.039
2026/05/07 08:38:12.651,-0.008,0.002,0.969
2026/05/07 08:38:12.671,-0.03,0.052,1.017
2026/05/07 08:38:12.691,-0.022,0.022,1.032
2026/05/07 08:38:12.710,-0.03,0.006,0.984
2026/05/07 08:38:12.730,-0.082,0.011,1.0
2026/05/07 08:38:12.750,-0.029,0.009,1.004
2026/05/07 08:38:12.770,-0.057,0.012,1.011
2026/05/07 08:38:12.790,-0.041,0.009,1.001
2026/05/07 08:38:12.809,-0.046,0.01,1.003
2026/05/07 08:38:12.829,-0.048,0.013,1.002
2026/05/07 08:38:12.849,-0.049,0.014,1.001
2026/05/07 08:38:12.869,-0.047,0.011,1.002
2026/05/07 08:38:12.889,-0.043,0.009,1.007
2026/05/07 08:38:12.908,-0.044,0.01,1.008
2026/05/07 08:38:12.928,-0.045,0.009,0.997
2026/05/07 08:38:12.948,-0.041,0.008,1.007
2026/05/07 08:38:12.968,-0.044,0.008,1.014
2026/05/07 08:38:12.988,-0.046,0.013,0.999
2026/05/07 08:38:13.007,-0.049,0.01,1.0
2026/05/07 08:38:13.027,-0.046,0.012,1.008
2026/05/07 08:38:13.047,-0.045,0.011,1.001
2026/05/07 08:38:13.067,-0.049,0.011,1.012
2026/05/07 08:38:13.086,-0.045,0.006,0.992
2026/05/07 08:38:13.106,-0.045,0.007,1.001
2026/05/07 08:38:13.126,-0.047,0.007,1.005
2026/05/07 08:38:13.146,-0.045,0.009,1.003
2026/05/07 08:38:13.166,-0.046,0.017,0.99
2026/05/07 08:38:13.185,-0.046,0.009,0.994
2026/05/07 08:38:13.205,-0.044,0.009,1.004
2026/05/07 08:38:13.225,-0.047,0.013,1.004
2026/05/07 08:38:13.245,-0.046,0.013,0.996
2026/05/07 08:38:13.265,-0.043,0.012,1.007
2026/05/07 08:38:13.284,-0.045,0.01,1.0
2026/05/07 08:38:13.304,-0.049,0.012,1.005
2026/05/07 08:38:13.324,-0.047,0.01,1.003
2026/05/07 08:38:13.344,-0.046,0.013,0.996
2026/05/07 08:38:13.364,-0.045,0.014,0.994
2026/05/07 08:38:13.383,-0.045,0.011,0.962
2026/05/07 08:38:13.403,-0.05,0.012,1.001
2026/05/07 08:38:13.423,-0.044,0.009,1.038
2026/05/07 08:38:13.443,-0.042,0.011,1.039
2026/05/07 08:38:13.463,-0.049,0.012,1.018
2026/05/07 08:38:13.482,-0.06,0.003,0.996
2026/05/07 08:38:13.502,-0.045,0.024,0.977
2026/05/07 08:38:13.522,-0.041,0.022,1.015
2026/05/07 08:38:13.542,-0.049,0.003,0.972
2026/05/07 08:38:13.561,-0.06,0.019,0.883
2026/05/07 08:38:13.581,-0.04,0.007,1.004
2026/05/07 08:38:13.601,-0.042,0.01,1.028
2026/05/07 08:38:13.621,-0.047,0.008,1.015
2026/05/07 08:38:13.641,-0.044,0.024,1.002
2026/05/07 08:38:13.660,-0.042,0.005,0.982
2026/05/07 08:38:13.680,-0.04,0.007,1.008
2026/05/07 08:38:13.700,-0.077,-0.382,0.573
2026/05/07 08:38:13.720,0.001,-0.024,1.032
2026/05/07 08:38:13.740,-0.07,-0.073,0.989
2026/05/07 08:38:13.759,-0.168,0.028,0.97
2026/05/07 08:38:13.779,-0.12,0.058,0.867
2026/05/07 08:38:13.799,0.017,0.119,1.079
2026/05/07 08:38:13.819,-0.085,-0.022,1.059
2026/05/07 08:38:13.839,-0.046,0.004,1.023
2026/05/07 08:38:13.858,-0.018,0.03,0.958
2026/05/07 08:38:13.878,-0.095,0.0,0.958
2026/05/07 08:38:13.898,-0.027,0.006,1.09
2026/05/07 08:38:13.918,-0.033,0.009,1.033
2026/05/07 08:38:13.938,-0.052,0.012,0.929
2026/05/07 08:38:13.957,-0.023,0.005,1.003
2026/05/07 08:38:13.977,-0.058,0.015,0.993
2026/05/07 08:38:13.997,-0.041,0.013,0.991
2026/05/07 08:38:14.017,-0.042,0.014,1.028
2026/05/07 08:38:14.036,-0.033,0.02,1.016
2026/05/07 08:38:14.056,-0.032,0.006,1.014
2026/05/07 08:38:14.076,-0.04,0.004,1.03
2026/05/07 08:38:14.096,-0.039,-0.006,1.042
2026/05/07 08:38:14.116,0.063,-0.012,0.104
2026/05/07 08:38:14.135,0.001,0.249,0.718
2026/05/07 08:38:14.155,-0.021,0.029,0.966
2026/05/07 08:38:14.175,-0.105,-0.086,0.944
2026/05/07 08:38:14.195,-0.081,-0.037,1.039
2026/05/07 08:38:14.215,-0.293,0.012,0.871
2026/05/07 08:38:14.234,-0.346,-0.026,1.062
2026/05/07 08:38:14.254,0.152,0.054,1.042
2026/05/07 08:38:14.274,-0.136,0.086,0.892
2026/05/07 08:38:14.294,-0.059,0.022,1.04
2026/05/07 08:38:14.314,-0.064,0.006,1.016
2026/05/07 08:38:14.333,-0.11,0.047,1.013
2026/05/07 08:38:14.353,-0.082,0.013,1.048
2026/05/07 08:38:14.373,-0.098,0.009,1.081
2026/05/07 08:38:14.393,-0.067,0.008,0.945
2026/05/07 08:38:14.412,-0.043,0.001,1.0
2026/05/07 08:38:14.432,-0.058,0.009,0.997
2026/05/07 08:38:14.452,-0.041,0.009,0.984
2026/05/07 08:38:14.472,-0.048,0.01,1.029
2026/05/07 08:38:14.492,0.007,0.01,0.791
2026/05/07 08:38:14.511,-0.176,-0.026,1.09
2026/05/07 08:38:14.531,0.084,0.083,0.97
2026/05/07 08:38:14.551,-0.12,0.031,1.001
2026/05/07 08:38:14.571,-0.037,0.017,0.989
2026/05/07 08:38:14.591,-0.059,0.008,1.003
2026/05/07 08:38:14.610,-0.048,0.006,1.001
2026/05/07 08:38:14.630,-0.047,0.011,0.999
2026/05/07 08:38:14.650,-0.052,0.005,1.005
2026/05/07 08:38:14.670,-0.048,0.009,1.004
2026/05/07 08:38:14.690,-0.05,0.006,1.007
2026/05/07 08:38:14.709,-0.053,0.008,1.008
2026/05/07 08:38:14.729,-0.049,0.01,1.002
2026/05/07 08:38:14.749,-0.049,0.008,1.001
2026/05/07 08:38:14.769,-0.053,0.014,1.008
2026/05/07 08:38:14.789,-0.052,0.008,1.005
2026/05/07 08:38:14.808,-0.053,0.007,1.005
2026/05/07 08:38:14.828,-0.045,0.006,1.009
2026/05/07 08:38:14.848,-0.049,0.005,1.006
2026/05/07 08:38:14.868,-0.051,0.008,1.014
2026/05/07 08:38:14.887,-0.048,0.008,0.999
2026/05/07 08:38:14.907,-0.051,0.01,0.995
2026/05/07 08:38:14.927,-0.048,0.008,1.005
2026/05/07 08:38:14.947,-0.05,0.01,1.007
2026/05/07 08:38:14.967,-0.047,0.009,1.0
2026/05/07 08:38:14.986,-0.051,0.004,0.995
2026/05/07 08:38:15.006,-0.056,0.009,1.011
2026/05/07 08:38:15.026,-0.05,0.006,1.008
2026/05/07 08:38:15.046,-0.052,0.012,1.001
2026/05/07 08:38:15.066,-0.052,0.011,1.006
2026/05/07 08:38:15.085,-0.051,0.009,1.006
2026/05/07 08:38:15.105,-0.048,0.008,1.0
2026/05/07 08:38:15.125,-0.051,0.008,1.006
2026/05/07 08:38:15.145,-0.051,0.007,1.006
2026/05/07 08:38:15.165,-0.049,0.008,0.999
2026/05/07 08:38:15.184,-0.049,0.008,1.002
2026/05/07 08:38:15.204,-0.056,0.01,1.002
2026/05/07 08:38:15.224,-0.054,0.021,0.967
2026/05/07 08:38:15.244,-0.047,0.027,0.874
2026/05/07 08:38:15.264,-0.055,-0.001,1.045
2026/05/07 08:38:15.283,-0.047,0.002,1.006
2026/05/07 08:38:15.303,-0.038,0.011,1.002
2026/05/07 08:38:15.323,-0.032,0.024,1.035
2026/05/07 08:38:15.343,-0.01,0.054,1.175
2026/05/07 08:38:15.362,-0.052,-0.028,0.736
2026/05/07 08:38:15.382,-0.042,0.036,1.032
2026/05/07 08:38:15.402,0.102,0.092,1.236
2026/05/07 08:38:15.422,-0.041,0.161,1.221
2026/05/07 08:38:15.442,-0.06,-0.023,1.05
2026/05/07 08:38:15.461,-0.033,0.026,1.044
2026/05/07 08:38:15.481,-0.047,0.007,0.98
2026/05/07 08:38:15.501,-0.026,-0.146,0.425
2026/05/07 08:38:15.521,-0.049,-0.011,1.117
2026/05/07 08:38:15.541,-0.047,0.02,1.074
2026/05/07 08:38:15.560,-0.003,-0.018,0.829
2026/05/07 08:38:15.580,-0.044,-0.003,0.998
2026/05/07 08:38:15.600,-0.051,0.008,1.006
2026/05/07 08:38:15.620,-0.053,0.006,1.006
2026/05/07 08:38:15.640,0.009,-0.002,0.876
2026/05/07 08:38:15.659,-0.056,0.013,1.032
2026/05/07 08:38:15.679,-0.046,0.008,1.011
2026/05/07 08:38:15.699,-0.064,-0.006,1.006
2026/05/07 08:38:15.719,-0.049,0.017,1.0
2026/05/07 08:38:15.739,-0.052,0.001,0.993
2026/05/07 08:38:15.758,-0.048,0.006,1.029
2026/05/07 08:38:15.778,-0.055,0.007,1.01
2026/05/07 08:38:15.798,0.012,0.039,1.049
2026/05/07 08:38:15.818,0.076,0.125,0.689
2026/05/07 08:38:15.837,-0.033,0.023,0.926
2026/05/07 08:38:15.857,-0.056,-0.004,1.03
2026/05/07 08:38:15.877,-0.048,0.009,0.991
2026/05/07 08:38:15.897,-0.048,0.009,1.0
2026/05/07 08:38:15.917,-0.047,0.01,1.005
2026/05/07 08:38:15.936,-0.053,0.007,1.003
2026/05/07 08:38:15.956,0.225,0.141,1.301
2026/05/07 08:38:15.976,0.062,0.264,1.118
2026/05/07 08:38:15.996,-0.281,-0.192,1.02
2026/05/07 08:38:16.016,-0.155,-0.131,0.893
2026/05/07 08:38:16.035,-0.063,0.015,1.048
2026/05/07 08:38:16.055,-0.073,0.0,0.989
2026/05/07 08:38:16.075,-0.061,-0.001,1.007
2026/05/07 08:38:16.095,-0.061,0.006,0.997
2026/05/07 08:38:16.115,-0.064,0.003,1.001
2026/05/07 08:38:16.134,-0.062,0.002,1.003
2026/05/07 08:38:16.154,-0.066,0.031,0.946
2026/05/07 08:38:16.174,-0.053,0.005,0.994
2026/05/07 08:38:16.194,-0.056,0.006,1.002
2026/05/07 08:38:16.214,-0.066,0.006,1.0
2026/05/07 08:38:16.233,-0.061,0.003,1.01
2026/05/07 08:38:16.253,-0.064,0.009,1.005
2026/05/07 08:38:16.273,-0.064,0.003,0.996
2026/05/07 08:38:16.293,-0.061,0.004,1.007
2026/05/07 08:38:16.312,-0.062,0.004,1.003
2026/05/07 08:38:16.332,-0.066,0.003,1.001
2026/05/07 08:38:16.352,-0.059,0.002,1.006
2026/05/07 08:38:16.372,-0.061,0.004,1.0
2026/05/07 08:38:16.392,-0.06,0.005,1.003
2026/05/07 08:38:16.411,-0.062,-0.001,1.006
2026/05/07 08:38:16.431,-0.061,0.004,1.009
2026/05/07 08:38:16.451,-0.063,0.004,1.005
2026/05/07 08:38:16.471,-0.062,-0.001,1.002
2026/05/07 08:38:16.491,-0.063,0.006,0.996
2026/05/07 08:38:16.510,-0.065,0.005,0.996
2026/05/07 08:38:16.530,-0.061,0.007,1.001
2026/05/07 08:38:16.550,-0.061,0.003,1.004
2026/05/07 08:38:16.570,-0.062,0.003,1.005
2026/05/07 08:38:16.590,-0.061,0.002,1.004
2026/05/07 08:38:16.609,-0.066,0.003,1.001
2026/05/07 08:38:16.629,-0.062,0.002,1.002
2026/05/07 08:38:16.649,-0.059,0.002,1.002
2026/05/07 08:38:16.669,-0.059,0.004,1.002
2026/05/07 08:38:16.689,-0.061,0.005,1.005
2026/05/07 08:38:16.708,-0.062,0.006,1.004
2026/05/07 08:38:16.728,-0.063,0.006,0.999
2026/05/07 08:38:16.748,-0.063,0.002,1.003
2026/05/07 08:38:16.768,-0.061,0.003,1.006
2026/05/07 08:38:16.788,-0.058,0.004,1.003
2026/05/07 08:38:16.807,-0.059,0.007,1.002
2026/05/07 08:38:16.827,-0.06,0.007,1.006
2026/05/07 08:38:16.847,-0.062,0.008,1.002
2026/05/07 08:38:16.867,-0.064,0.005,1.003
2026/05/07 08:38:16.886,-0.059,-0.001,1.003
2026/05/07 08:38:16.906,-0.063,0.005,0.999
2026/05/07 08:38:16.926,-0.06,0.006,1.003
2026/05/07 08:38:16.946,-0.061,0.006,1.003
2026/05/07 08:38:16.966,-0.059,0.006,1.003
2026/05/07 08:38:16.985,-0.054,0.001,1.01
2026/05/07 08:38:17.005,0.028,0.022,0.871
2026/05/07 08:38:17.025,-0.064,-0.036,1.183
2026/05/07 08:38:17.045,-0.054,0.024,0.962
2026/05/07 08:38:17.065,-0.049,0.009,0.988
2026/05/07 08:38:17.084,-0.101,-0.004,1.042
2026/05/07 08:38:17.104,-0.052,0.01,1.051
2026/05/07 08:38:17.124,-0.033,-0.006,0.962
2026/05/07 08:38:17.144,-0.069,-0.018,1.059
2026/05/07 08:38:17.164,-0.056,-0.015,0.983
2026/05/07 08:38:17.183,-0.052,-0.011,1.052
2026/05/07 08:38:17.203,-0.064,0.07,1.02
2026/05/07 08:38:17.223,-0.204,0.286,1.237
2026/05/07 08:38:17.243,0.012,-0.008,0.66
2026/05/07 08:38:17.263,-0.164,-0.199,1.262
2026/05/07 08:38:17.282,-0.035,-0.005,0.931
2026/05/07 08:38:17.302,-0.06,0.01,1.036
2026/05/07 08:38:17.322,-0.067,-0.016,1.076
2026/05/07 08:38:17.342,-0.058,-0.001,0.986
2026/05/07 08:38:17.361,-0.049,0.002,0.96
2026/05/07 08:38:17.381,-0.027,-0.012,1.016
2026/05/07 08:38:17.401,-0.053,0.002,1.005
2026/05/07 08:38:17.421,-0.055,0.004,1.0
2026/05/07 08:38:17.441,-0.058,0.006,0.998
2026/05/07 08:38:17.460,-0.072,0.007,1.034
2026/05/07 08:38:17.480,-0.06,0.003,0.995
2026/05/07 08:38:17.500,-0.063,0.007,1.003
2026/05/07 08:38:17.520,-0.063,0.001,1.003
2026/05/07 08:38:17.540,-0.062,0.011,1.001
2026/05/07 08:38:17.559,-0.057,0.005,1.002
2026/05/07 08:38:17.579,-0.06,0.005,1.007
2026/05/07 08:38:17.599,-0.06,0.005,1.001
2026/05/07 08:38:17.619,-0.062,0.002,1.002
2026/05/07 08:38:17.639,-0.06,0.003,0.997
2026/05/07 08:38:17.658,-0.059,0.004,1.005
2026/05/07 08:38:17.678,-0.059,0.004,1.004
2026/05/07 08:38:17.698,-0.059,0.004,0.998
2026/05/07 08:38:17.718,-0.06,0.005,1.001
2026/05/07 08:38:17.738,-0.059,0.003,1.002
2026/05/07 08:38:17.757,-0.059,0.006,1.001
2026/05/07 08:38:17.777,-0.063,0.005,1.004
2026/05/07 08:38:17.797,-0.058,0.005,1.005
2026/05/07 08:38:17.817,-0.061,0.008,1.003
2026/05/07 08:38:17.837,-0.06,0.005,1.002
2026/05/07 08:38:17.856,-0.063,0.004,1.002
2026/05/07 08:38:17.876,-0.056,0.005,1.002
2026/05/07 08:38:17.896,-0.061,0.005,0.997
2026/05/07 08:38:17.916,-0.058,0.003,1.003
2026/05/07 08:38:17.935,-0.06,0.005,1.005
2026/05/07 08:38:17.955,-0.059,0.008,0.998
2026/05/07 08:38:17.975,-0.061,0.001,1.002
2026/05/07 08:38:17.995,-0.061,0.007,1.003
2026/05/07 08:38:18.015,-0.059,0.008,1.003
2026/05/07 08:38:18.034,-0.055,0.006,0.991
2026/05/07 08:38:18.054,-0.059,0.002,1.006
2026/05/07 08:38:18.074,-0.06,0.002,1.002
2026/05/07 08:38:18.094,-0.063,0.007,1.001
2026/05/07 08:38:18.114,-0.061,0.005,1.003
2026/05/07 08:38:18.133,-0.059,0.001,1.005
2026/05/07 08:38:18.153,-0.06,0.006,1.003
2026/05/07 08:38:18.173,-0.059,0.006,1.003
2026/05/07 08:38:18.193,-0.06,0.007,1.006
2026/05/07 08:38:18.213,-0.061,0.004,1.004
2026/05/07 08:38:18.232,-0.059,0.006,1.002
2026/05/07 08:38:18.252,-0.062,0.004,1.007
2026/05/07 08:38:18.272,-0.062,0.004,1.002
2026/05/07 08:38:18.292,-0.062,0.004,1.004
2026/05/07 08:38:18.312,-0.062,0.005,1.003
2026/05/07 08:38:18.331,-0.06,0.004,1.005
2026/05/07 08:38:18.351,-0.06,0.002,0.999
2026/05/07 08:38:18.371,-0.054,0.008,1.005
2026/05/07 08:38:18.391,-0.058,0.007,1.002
2026/05/07 08:38:18.410,-0.059,0.005,1.004
2026/05/07 08:38:18.430,-0.059,0.0,1.0
2026/05/07 08:38:18.450,-0.06,0.005,1.001
2026/05/07 08:38:18.470,-0.059,0.003,1.002
2026/05/07 08:38:18.490,-0.06,0.003,1.0
2026/05/07 08:38:18.509,-0.059,0.003,1.004
2026/05/07 08:38:18.529,-0.061,0.005,1.0
2026/05/07 08:38:18.549,-0.054,-0.002,0.995
2026/05/07 08:38:18.569,-0.063,0.007,1.001
2026/05/07 08:38:18.589,-0.06,0.0,1.009
2026/05/07 08:38:18.608,-0.059,0.006,1.008
2026/05/07 08:38:18.628,-0.06,0.003,1.005
2026/05/07 08:38:18.648,-0.058,0.045,1.026
2026/05/07 08:38:18.668,-0.04,0.004,0.999
2026/05/07 08:38:18.688,-0.217,0.007,1.584
2026/05/07 08:38:18.707,-0.042,-0.014,0.899
2026/05/07 08:38:18.727,-0.074,-0.008,1.046
2026/05/07 08:38:18.747,-0.067,0.005,1.0
2026/05/07 08:38:18.767,-0.056,0.004,0.987
2026/05/07 08:38:18.787,-0.071,0.008,0.99
2026/05/07 08:38:18.806,-0.064,0.006,1.005
2026/05/07 08:38:18.826,0.068,0.068,0.491
2026/05/07 08:38:18.846,-0.075,-0.019,1.03
2026/05/07 08:38:18.866,-0.061,0.002,0.999
2026/05/07 08:38:18.885,-0.063,0.003,0.986
2026/05/07 08:38:18.905,-0.059,0.002,0.991
2026/05/07 08:38:18.925,-0.081,0.021,1.044
2026/05/07 08:38:18.945,-0.063,-0.003,1.013
2026/05/07 08:38:18.965,-0.198,0.032,1.607
2026/05/07 08:38:18.984,-0.051,0.019,0.921
2026/05/07 08:38:19.004,-0.001,-0.126,1.335
2026/05/07 08:38:19.024,-0.027,-0.088,0.739
2026/05/07 08:38:19.044,-0.069,0.005,1.021
2026/05/07 08:38:19.064,-0.102,0.035,1.048
2026/05/07 08:38:19.083,-0.018,-0.053,1.059
2026/05/07 08:38:19.103,0.012,-0.043,0.876
2026/05/07 08:38:19.123,-0.107,0.072,0.87
2026/05/07 08:38:19.143,-0.074,-0.016,1.064
2026/05/07 08:38:19.163,-0.054,0.003,1.025
2026/05/07 08:38:19.182,-0.079,0.012,0.986
2026/05/07 08:38:19.202,0.075,0.149,1.089
2026/05/07 08:38:19.222,-0.059,-0.003,1.117
2026/05/07 08:38:19.242,0.235,0.054,1.258
2026/05/07 08:38:19.262,0.011,0.147,1.064
2026/05/07 08:38:19.281,-0.084,-0.114,1.351
2026/05/07 08:38:19.301,0.044,-0.068,1.129
2026/05/07 08:38:19.321,0.066,-0.194,1.046
2026/05/07 08:38:19.341,-0.177,0.017,0.829
2026/05/07 08:38:19.360,-0.221,0.184,0.676
2026/05/07 08:38:19.380,-0.277,0.173,0.914
2026/05/07 08:38:19.400,-0.051,-0.099,1.208
2026/05/07 08:38:19.420,-0.162,0.152,0.963
2026/05/07 08:38:19.440,-0.119,0.096,1.02
2026/05/07 08:38:19.459,-0.074,0.044,1.044
2026/05/07 08:38:19.479,-0.215,-0.2,0.815
2026/05/07 08:38:19.499,-0.124,-0.124,1.09
2026/05/07 08:38:19.519,0.265,0.273,0.774
2026/05/07 08:38:19.539,-0.156,-0.079,1.019
2026/05/07 08:38:19.558,0.008,0.16,0.81
2026/05/07 08:38:19.578,-0.184,0.063,1.05
2026/05/07 08:38:19.598,-0.093,0.009,0.76
2026/05/07 08:38:19.618,0.039,-0.295,1.051
2026/05/07 08:38:19.638,-0.018,-0.239,1.151
2026/05/07 08:38:19.657,-0.068,0.188,0.906
2026/05/07 08:38:19.677,-0.102,0.099,1.086
2026/05/07 08:38:19.697,-0.011,0.07,1.068
2026/05/07 08:38:19.717,-0.034,-0.215,0.916
2026/05/07 08:38:19.737,-0.076,-0.055,1.196
2026/05/07 08:38:19.756,0.024,0.138,1.555
2026/05/07 08:38:19.776,-0.071,0.011,1.06
2026/05/07 08:38:19.796,-0.06,0.009,0.973
2026/05/07 08:38:19.816,-0.059,0.008,1.021
2026/05/07 08:38:19.835,-0.065,0.011,0.945
2026/05/07 08:38:19.855,-0.061,0.015,1.002
2026/05/07 08:38:19.875,-0.058,0.012,1.004
2026/05/07 08:38:19.895,-0.06,0.007,1.001
2026/05/07 08:38:19.915,-0.055,0.01,0.999
2026/05/07 08:38:19.934,-0.058,0.009,0.998
2026/05/07 08:38:19.954,-0.062,0.011,1.002
2026/05/07 08:38:19.974,-0.061,0.011,1.004
2026/05/07 08:38:19.994,-0.058,0.016,1.0
2026/05/07 08:38:20.014,-0.059,0.013,1.003
2026/05/07 08:38:20.033,-0.06,0.011,1.001
2026/05/07 08:38:20.053,-0.066,0.01,1.006
2026/05/07 08:38:20.073,-0.064,0.013,1.005
2026/05/07 08:38:20.093,-0.06,0.011,1.003
2026/05/07 08:38:20.113,-0.06,0.012,0.999
2026/05/07 08:38:20.132,-0.06,0.008,1.002
2026/05/07 08:38:20.152,-0.06,0.013,1.003
2026/05/07 08:38:20.172,-0.058,0.009,1.001
2026/05/07 08:38:20.192,-0.062,0.012,1.006
2026/05/07 08:38:20.211,-0.06,0.01,1.006
2026/05/07 08:38:20.231,-0.06,0.012,1.003
2026/05/07 08:38:20.251,-0.061,0.015,0.996
2026/05/07 08:38:20.271,-0.059,0.014,1.004
2026/05/07 08:38:20.291,-0.057,0.009,1.001
2026/05/07 08:38:20.310,-0.058,0.011,1.004
2026/05/07 08:38:20.330,-0.058,0.011,0.98
2026/05/07 08:38:20.350,-0.058,0.008,1.002
2026/05/07 08:38:20.370,-0.058,0.007,0.998
2026/05/07 08:38:20.390,-0.057,0.013,1.0
2026/05/07 08:38:20.409,-0.058,0.01,1.007
2026/05/07 08:38:20.429,-0.056,0.008,1.001
2026/05/07 08:38:20.449,-0.059,0.013,1.005
2026/05/07 08:38:20.469,-0.061,0.014,1.005
2026/05/07 08:38:20.489,-0.062,0.012,1.003
2026/05/07 08:38:20.508,-0.061,0.014,1.001
2026/05/07 08:38:20.528,-0.058,0.012,1.005
2026/05/07 08:38:20.548,-0.056,0.011,1.003
2026/05/07 08:38:20.568,-0.059,0.016,1.003
2026/05/07 08:38:20.588,-0.061,0.011,1.0
2026/05/07 08:38:20.607,-0.063,0.008,1.005
2026/05/07 08:38:20.627,-0.057,0.009,0.999
2026/05/07 08:38:20.647,-0.061,0.013,1.005
2026/05/07 08:38:20.667,-0.061,0.009,1.004
2026/05/07 08:38:20.686,-0.057,0.009,1.002
2026/05/07 08:38:20.706,-0.061,0.012,1.002
2026/05/07 08:38:20.726,-0.062,0.013,1.001
2026/05/07 08:38:20.746,-0.06,0.009,1.002
2026/05/07 08:38:20.766,-0.062,0.012,1.002
2026/05/07 08:38:20.785,-0.064,0.01,1.005
2026/05/07 08:38:20.805,-0.061,0.015,1.004
2026/05/07 08:38:20.825,-0.063,0.01,1.003
2026/05/07 08:38:20.845,-0.059,0.012,1.003
2026/05/07 08:38:20.865,-0.063,0.012,1.005
2026/05/07 08:38:20.884,-0.062,0.01,1.003
2026/05/07 08:38:20.904,-0.003,-0.079,0.593
2026/05/07 08:38:20.924,-0.067,0.063,0.936
2026/05/07 08:38:20.944,-0.066,0.007,1.036
2026/05/07 08:38:20.964,-0.052,0.014,1.026
2026/05/07 08:38:20.983,-0.06,0.013,0.987
2026/05/07 08:38:21.003,-0.059,0.008,1.045
2026/05/07 08:38:21.023,-0.053,0.049,0.911
2026/05/07 08:38:21.043,-0.082,0.077,0.815
2026/05/07 08:38:21.063,-0.058,0.003,1.018
2026/05/07 08:38:21.082,-0.101,0.023,0.988
2026/05/07 08:38:21.102,-0.049,0.008,0.999
2026/05/07 08:38:21.122,-0.054,0.006,1.08
2026/05/07 08:38:21.142,-0.056,0.031,1.076
2026/05/07 08:38:21.161,-0.072,0.013,1.037
2026/05/07 08:38:21.181,-0.044,0.017,1.025
2026/05/07 08:38:21.201,-0.149,-0.063,1.056
2026/05/07 08:38:21.221,0.006,0.018,0.514
2026/05/07 08:38:21.241,-0.032,0.011,0.807
2026/05/07 08:38:21.260,-0.048,-0.045,1.534
2026/05/07 08:38:21.280,-0.062,0.019,1.049
2026/05/07 08:38:21.300,-0.14,-0.087,1.064
2026/05/07 08:38:21.320,-0.069,0.02,0.985
2026/05/07 08:38:21.340,-0.067,0.008,1.026
2026/05/07 08:38:21.359,-0.058,0.016,0.99
2026/05/07 08:38:21.379,-0.062,0.01,1.004
2026/05/07 08:38:21.399,-0.063,0.011,1.003
2026/05/07 08:38:21.419,-0.06,0.008,1.001
2026/05/07 08:38:21.439,-0.059,0.014,1.001
2026/05/07 08:38:21.458,-0.045,-0.071,1.209
2026/05/07 08:38:21.478,-0.058,0.012,0.938
2026/05/07 08:38:21.498,-0.036,-0.011,1.01
2026/05/07 08:38:21.518,-0.068,0.022,0.909
2026/05/07 08:38:21.538,-0.025,-0.013,1.087
2026/05/07 08:38:21.557,-0.06,0.015,0.989
2026/05/07 08:38:21.577,-0.059,0.031,1.009
2026/05/07 08:38:21.597,-0.074,0.016,0.983
2026/05/07 08:38:21.617,-0.071,0.021,1.009
2026/05/07 08:38:21.636,-0.119,-0.021,0.792
2026/05/07 08:38:21.656,-0.084,0.007,1.011
2026/05/07 08:38:21.676,-0.073,0.016,0.97
2026/05/07 08:38:21.696,-0.064,0.014,0.996
2026/05/07 08:38:21.716,-0.059,0.011,1.006
2026/05/07 08:38:21.735,-0.062,0.011,1.011
2026/05/07 08:38:21.755,-0.064,0.012,1.003
2026/05/07 08:38:21.775,-0.06,0.016,1.002
2026/05/07 08:38:21.795,-0.063,0.012,1.006
2026/05/07 08:38:21.815,-0.062,0.012,0.994
2026/05/07 08:38:21.834,-0.303,0.028,1.006
2026/05/07 08:38:21.854,-0.115,0.019,0.955
2026/05/07 08:38:21.874,-0.005,0.014,1.025
2026/05/07 08:38:21.894,0.036,0.043,0.923
2026/05/07 08:38:21.914,-0.058,0.006,1.029
2026/05/07 08:38:21.933,-0.099,0.057,0.795
2026/05/07 08:38:21.953,-0.095,0.04,1.02
2026/05/07 08:38:21.973,-0.032,0.028,1.047
2026/05/07 08:38:21.993,-0.029,0.007,0.865
2026/05/07 08:38:22.013,-0.007,-0.024,0.896
2026/05/07 08:38:22.032,-0.102,0.022,1.015
2026/05/07 08:38:22.052,-0.053,0.04,0.971
2026/05/07 08:38:22.072,-0.034,0.013,1.005
2026/05/07 08:38:22.092,-0.048,-0.002,1.012
2026/05/07 08:38:22.111,-0.035,-0.095,1.026
2026/05/07 08:38:22.131,-0.069,0.024,1.006
2026/05/07 08:38:22.151,-0.061,0.011,1.011
2026/05/07 08:38:22.171,-0.06,0.006,1.023
2026/05/07 08:38:22.191,-0.054,0.018,0.999
2026/05/07 08:38:22.210,-0.057,0.011,0.997
2026/05/07 08:38:22.230,-0.061,0.013,1.003
2026/05/07 08:38:22.250,-0.062,0.011,1.004
2026/05/07 08:38:22.270,-0.059,0.015,1.004
2026/05/07 08:38:22.290,-0.062,0.011,1.005
2026/05/07 08:38:22.309,-0.061,0.011,1.006
2026/05/07 08:38:22.329,-0.063,0.012,1.002
2026/05/07 08:38:22.349,-0.06,0.014,1.001
2026/05/07 08:38:22.369,-0.062,0.013,1.001
2026/05/07 08:38:22.389,-0.065,0.011,1.003
2026/05/07 08:38:22.408,-0.06,0.012,1.003
2026/05/07 08:38:22.428,-0.062,0.01,1.004
2026/05/07 08:38:22.448,-0.06,0.011,1.004
2026/05/07 08:38:22.468,-0.06,0.01,1.007
2026/05/07 08:38:22.488,-0.059,0.009,1.01
2026/05/07 08:38:22.507,-0.062,0.013,1.002
2026/05/07 08:38:22.527,-0.057,0.014,1.003
2026/05/07 08:38:22.547,-0.063,0.013,1.002
2026/05/07 08:38:22.567,-0.062,0.009,1.001
2026/05/07 08:38:22.586,-0.061,0.016,1.001
2026/05/07 08:38:22.606,-0.061,0.011,0.999
2026/05/07 08:38:22.626,-0.06,0.009,1.004
2026/05/07 08:38:22.646,-0.061,0.011,1.003
2026/05/07 08:38:22.666,-0.062,0.012,1.003
2026/05/07 08:38:22.685,-0.062,0.014,1.003
2026/05/07 08:38:22.705,-0.063,0.014,1.003
2026/05/07 08:38:22.725,-0.062,0.01,1.005
2026/05/07 08:38:22.745,-0.061,0.011,1.007
2026/05/07 08:38:22.765,-0.063,0.015,1.004
2026/05/07 08:38:22.784,-0.063,0.015,1.002
2026/05/07 08:38:22.804,-0.067,0.01,1.006
2026/05/07 08:38:22.824,-0.065,0.008,1.004
2026/05/07 08:38:22.844,-0.063,0.016,1.006
2026/05/07 08:38:22.864,-0.061,0.014,1.004
2026/05/07 08:38:22.883,-0.061,0.009,1.003
2026/05/07 08:38:22.903,-0.064,0.015,1.002
2026/05/07 08:38:22.923,-0.061,0.016,1.0
2026/05/07 08:38:22.943,-0.059,0.011,1.006
2026/05/07 08:38:22.963,-0.062,0.012,0.998
2026/05/07 08:38:22.982,-0.064,0.013,1.006
2026/05/07 08:38:23.002,-0.062,0.012,1.005
2026/05/07 08:38:23.022,-0.06,0.01,1.0
2026/05/07 08:38:23.042,-0.064,0.012,0.998
2026/05/07 08:38:23.061,-0.046,0.036,1.019
2026/05/07 08:38:23.081,-0.095,-0.083,1.36
2026/05/07 08:38:23.101,-0.066,0.013,1.0
2026/05/07 08:38:23.121,-0.096,0.004,1.116
2026/05/07 08:38:23.141,-0.068,0.013,0.996
2026/05/07 08:38:23.160,-0.07,0.009,1.018
2026/05/07 08:38:23.180,-0.063,0.015,0.973
2026/05/07 08:38:23.200,-0.065,0.014,0.956
2026/05/07 08:38:23.220,-0.063,0.02,1.005
2026/05/07 08:38:23.240,0.038,-0.101,0.538
2026/05/07 08:38:23.259,-0.071,0.011,1.104
2026/05/07 08:38:23.279,-0.063,0.004,1.024
2026/05/07 08:38:23.299,0.007,-0.016,0.789
2026/05/07 08:38:23.319,-0.092,0.021,1.115
2026/05/07 08:38:23.339,-0.11,-0.045,1.486
2026/05/07 08:38:23.358,-0.059,0.018,0.969
2026/05/07 08:38:23.378,-0.059,0.075,0.794
2026/05/07 08:38:23.398,-0.033,-0.121,0.985
2026/05/07 08:38:23.418,-0.046,-0.142,1.3
2026/05/07 08:38:23.437,-0.084,0.021,1.029
2026/05/07 08:38:23.457,-0.057,0.005,1.043
2026/05/07 08:38:23.477,-0.057,-0.056,1.085
2026/05/07 08:38:23.497,-0.046,-0.006,1.09
2026/05/07 08:38:23.517,-0.069,0.021,0.979
2026/05/07 08:38:23.536,-0.055,0.011,1.003
2026/05/07 08:38:23.556,-0.066,-0.03,1.083
2026/05/07 08:38:23.576,-0.047,-0.003,0.993
2026/05/07 08:38:23.596,-0.061,0.032,0.948
2026/05/07 08:38:23.616,-0.055,0.019,0.983
2026/05/07 08:38:23.635,-0.067,-0.036,1.123
2026/05/07 08:38:23.655,-0.04,0.031,0.879
2026/05/07 08:38:23.675,-0.056,-0.011,1.044
2026/05/07 08:38:23.695,0.006,-0.015,0.91
2026/05/07 08:38:23.715,-0.197,-0.107,0.843
2026/05/07 08:38:23.734,-0.069,0.014,1.007
2026/05/07 08:38:23.754,-0.067,0.009,1.013
2026/05/07 08:38:23.774,-0.066,0.012,0.999
2026/05/07 08:38:23.794,-0.056,0.009,0.998
2026/05/07 08:38:23.814,-0.061,0.005,1.025
2026/05/07 08:38:23.833,-0.033,0.019,1.006
2026/05/07 08:38:23.853,-0.048,0.017,0.986
2026/05/07 08:38:23.873,-0.064,0.014,0.999
2026/05/07 08:38:23.893,-0.064,0.014,1.004
2026/05/07 08:38:23.912,-0.065,0.004,1.005
2026/05/07 08:38:23.932,0.052,0.091,0.816
2026/05/07 08:38:23.952,-0.01,-0.017,0.883
2026/05/07 08:38:23.972,-0.049,0.013,0.99
2026/05/07 08:38:23.992,-0.035,0.01,1.019
2026/05/07 08:38:24.011,-0.066,0.009,1.018
2026/05/07 08:38:24.031,-0.064,0.01,1.005
2026/05/07 08:38:24.051,-0.06,0.016,1.005
2026/05/07 08:38:24.071,-0.065,0.012,1.004
2026/05/07 08:38:24.091,-0.063,0.012,1.0
2026/05/07 08:38:24.110,-0.062,0.015,1.001
2026/05/07 08:38:24.130,-0.059,0.013,1.006
2026/05/07 08:38:24.150,-0.06,0.013,1.003
2026/05/07 08:38:24.170,-0.059,0.014,1.005
2026/05/07 08:38:24.190,-0.061,0.014,1.004
2026/05/07 08:38:24.209,-0.062,0.014,1.002
2026/05/07 08:38:24.229,-0.062,0.015,1.002
2026/05/07 08:38:24.249,-0.063,0.011,0.999
2026/05/07 08:38:24.269,-0.062,0.011,1.001
2026/05/07 08:38:24.289,-0.063,0.014,1.005
2026/05/07 08:38:24.308,-0.061,0.012,1.003
2026/05/07 08:38:24.328,-0.06,0.011,1.001
2026/05/07 08:38:24.348,-0.062,0.015,1.006
2026/05/07 08:38:24.368,-0.062,0.016,1.002
2026/05/07 08:38:24.387,-0.057,0.009,1.002
2026/05/07 08:38:24.407,-0.062,0.01,1.002
2026/05/07 08:38:24.427,-0.063,0.01,1.004
2026/05/07 08:38:24.447,-0.063,0.012,1.006
2026/05/07 08:38:24.467,-0.061,0.011,1.007
2026/05/07 08:38:24.486,-0.06,0.008,1.004
2026/05/07 08:38:24.506,-0.062,0.017,1.002
2026/05/07 08:38:24.526,-0.061,0.015,1.004
2026/05/07 08:38:24.546,-0.061,0.014,1.007
2026/05/07 08:38:24.566,-0.063,0.013,1.003
2026/05/07 08:38:24.585,-0.062,0.013,1.005
2026/05/07 08:38:24.605,-0.061,0.012,1.004
2026/05/07 08:38:24.625,-0.058,0.009,1.005
2026/05/07 08:38:24.645,-0.062,0.013,1.003
2026/05/07 08:38:24.665,-0.059,0.014,1.006
2026/05/07 08:38:24.684,-0.058,0.01,1.004
2026/05/07 08:38:24.704,-0.061,0.016,1.004
2026/05/07 08:38:24.724,-0.058,0.014,1.0
2026/05/07 08:38:24.744,-0.064,0.015,1.003
2026/05/07 08:38:24.764,-0.059,0.014,1.002
2026/05/07 08:38:24.783,-0.062,0.013,1.001
2026/05/07 08:38:24.803,-0.061,0.014,1.005
2026/05/07 08:38:24.823,-0.064,0.016,1.004
2026/05/07 08:38:24.843,-0.064,0.014,1.004
2026/05/07 08:38:24.862,-0.06,0.011,1.0
2026/05/07 08:38:24.882,-0.062,0.013,1.002
2026/05/07 08:38:24.902,-0.066,0.013,1.003
2026/05/07 08:38:24.922,-0.062,0.012,1.004
2026/05/07 08:38:24.942,-0.061,0.012,1.001
2026/05/07 08:38:24.961,-0.061,0.015,1.002
2026/05/07 08:38:24.981,-0.06,0.013,1.005
2026/05/07 08:38:25.001,-0.063,0.014,0.999
2026/05/07 08:38:25.021,-0.06,0.013,1.001
2026/05/07 08:38:25.041,-0.061,0.012,1.004
2026/05/07 08:38:25.060,-0.062,0.013,1.005
2026/05/07 08:38:25.080,-0.06,0.009,1.002
2026/05/07 08:38:25.100,-0.062,0.01,1.004
2026/05/07 08:38:25.120,-0.058,0.016,1.005
2026/05/07 08:38:25.140,-0.061,0.013,1.002
2026/05/07 08:38:25.159,-0.06,0.014,1.002
2026/05/07 08:38:25.179,-0.061,0.013,1.001
2026/05/07 08:38:25.199,-0.061,0.014,1.004
2026/05/07 08:38:25.219,-0.059,0.013,1.004
2026/05/07 08:38:25.239,-0.061,0.018,1.0
2026/05/07 08:38:25.258,-0.062,0.011,1.0
2026/05/07 08:38:25.278,-0.059,0.01,1.001
2026/05/07 08:38:25.298,-0.062,0.013,1.006
2026/05/07 08:38:25.318,0.047,0.028,0.053
2026/05/07 08:38:25.337,-0.064,0.008,1.083
2026/05/07 08:38:25.357,-0.032,0.003,1.017
2026/05/07 08:38:25.377,-0.071,0.06,0.909
2026/05/07 08:38:25.397,-0.061,0.005,1.008
2026/05/07 08:38:25.417,-0.097,0.003,1.104
2026/05/07 08:38:25.436,-0.087,-0.142,1.138
2026/05/07 08:38:25.456,-0.046,-0.011,1.066
2026/05/07 08:38:25.476,-0.003,0.018,0.865
2026/05/07 08:38:25.496,-0.063,0.004,0.984
2026/05/07 08:38:25.516,-0.071,0.007,1.021
2026/05/07 08:38:25.535,-0.212,0.044,1.067
2026/05/07 08:38:25.555,-0.077,0.02,1.048
2026/05/07 08:38:25.575,-0.094,0.103,0.926
2026/05/07 08:38:25.595,-0.061,0.027,0.996
2026/05/07 08:38:25.615,-0.086,0.001,1.096
2026/05/07 08:38:25.634,-0.067,0.01,1.035
2026/05/07 08:38:25.654,-0.125,0.046,1.18
2026/05/07 08:38:25.674,0.033,-0.127,1.431
2026/05/07 08:38:25.694,-0.04,0.009,0.96
2026/05/07 08:38:25.713,-0.062,0.01,0.995
2026/05/07 08:38:25.733,-0.061,0.011,1.001
2026/05/07 08:38:25.753,-0.063,0.014,1.008
2026/05/07 08:38:25.773,-0.059,0.011,0.992
2026/05/07 08:38:25.793,-0.059,0.007,0.989
2026/05/07 08:38:25.812,-0.08,0.035,1.001
2026/05/07 08:38:25.832,-0.031,0.018,0.952
2026/05/07 08:38:25.852,-0.071,0.015,0.993
2026/05/07 08:38:25.872,-0.056,0.011,1.008
2026/05/07 08:38:25.892,-0.065,0.01,1.006
2026/05/07 08:38:25.911,-0.063,0.014,0.995
2026/05/07 08:38:25.931,-0.036,-0.077,1.299
2026/05/07 08:38:25.951,-0.045,0.006,1.118
2026/05/07 08:38:25.971,-0.045,0.0,0.997
2026/05/07 08:38:25.991,-0.064,-0.007,1.098
2026/05/07 08:38:26.010,-0.12,0.021,1.115
2026/05/07 08:38:26.030,-0.055,0.021,0.912
2026/05/07 08:38:26.050,-0.079,0.016,1.056
2026/05/07 08:38:26.070,-0.064,0.019,1.007
2026/05/07 08:38:26.089,-0.064,0.025,0.967
2026/05/07 08:38:26.109,-0.065,0.013,1.007
2026/05/07 08:38:26.129,-0.064,0.024,0.987
2026/05/07 08:38:26.149,-0.072,0.001,0.987
2026/05/07 08:38:26.169,-0.071,0.099,0.948
2026/05/07 08:38:26.188,-0.072,0.03,1.108
2026/05/07 08:38:26.208,0.051,-0.039,0.609
2026/05/07 08:38:26.228,-0.067,0.001,1.034
2026/05/07 08:38:26.248,-0.06,0.013,1.006
2026/05/07 08:38:26.268,-0.075,0.006,1.0
2026/05/07 08:38:26.287,-0.087,0.017,1.028
2026/05/07 08:38:26.307,-0.042,0.025,0.804
2026/05/07 08:38:26.327,-0.055,0.008,1.051
2026/05/07 08:38:26.347,-0.073,0.003,1.035
2026/05/07 08:38:26.367,-0.056,0.02,0.975
2026/05/07 08:38:26.386,-0.055,0.011,0.996
2026/05/07 08:38:26.406,-0.072,0.015,0.99
2026/05/07 08:38:26.426,-0.1,0.01,1.034
2026/05/07 08:38:26.446,-0.078,0.059,0.97
2026/05/07 08:38:26.465,-0.06,0.007,1.049
2026/05/07 08:38:26.485,-0.061,0.014,0.989
2026/05/07 08:38:26.505,-0.063,0.011,1.013
2026/05/07 08:38:26.525,-0.057,0.019,0.984
2026/05/07 08:38:26.545,-0.066,0.009,1.022
2026/05/07 08:38:26.564,-0.061,0.018,0.997
2026/05/07 08:38:26.584,-0.063,0.007,1.005
2026/05/07 08:38:26.604,-0.09,0.076,0.876
2026/05/07 08:38:26.624,-0.166,0.324,4.047
2026/05/07 08:38:26.644,0.05,-0.248,1.552
2026/05/07 08:38:26.663,-0.044,0.082,0.941
2026/05/07 08:38:26.683,-0.06,-0.08,1.191
2026/05/07 08:38:26.703,0.011,0.107,1.19
2026/05/07 08:38:26.723,-0.058,0.027,0.968
2026/05/07 08:38:26.743,-0.076,0.026,0.94
2026/05/07 08:38:26.762,-0.101,0.008,0.988
2026/05/07 08:38:26.782,-0.055,0.013,0.996
2026/05/07 08:38:26.802,-0.046,0.014,1.022
2026/05/07 08:38:26.822,-0.062,0.018,1.005
2026/05/07 08:38:26.841,-0.089,0.011,1.05
2026/05/07 08:38:26.861,-0.077,0.006,1.004
2026/05/07 08:38:26.881,-0.064,0.019,1.017
2026/05/07 08:38:26.901,-0.062,0.013,1.006
2026/05/07 08:38:26.921,-0.062,0.012,1.002
2026/05/07 08:38:26.940,-0.065,0.012,1.001
2026/05/07 08:38:26.960,-0.061,0.014,0.999
2026/05/07 08:38:26.980,-0.06,0.013,1.003
2026/05/07 08:38:27.000,-0.062,0.016,1.003
2026/05/07 08:38:27.020,-0.062,0.008,1.004
2026/05/07 08:38:27.039,-0.061,0.013,1.003
2026/05/07 08:38:27.059,-0.063,0.013,1.0
2026/05/07 08:38:27.079,-0.061,0.013,1.005
2026/05/07 08:38:27.099,-0.063,0.013,1.007
2026/05/07 08:38:27.119,-0.064,0.012,1.001
2026/05/07 08:38:27.138,-0.062,0.01,1.002
2026/05/07 08:38:27.158,-0.063,0.01,1.0
2026/05/07 08:38:27.178,-0.064,0.01,1.002
2026/05/07 08:38:27.198,-0.059,0.009,1.004
2026/05/07 08:38:27.217,-0.062,0.011,1.0
2026/05/07 08:38:27.237,-0.06,0.012,1.005
2026/05/07 08:38:27.257,-0.063,0.012,1.004
2026/05/07 08:38:27.277,-0.059,0.012,1.006
2026/05/07 08:38:27.297,-0.058,0.015,1.004
2026/05/07 08:38:27.316,-0.061,0.012,1.006
2026/05/07 08:38:27.336,-0.06,0.014,1.003
2026/05/07 08:38:27.356,-0.06,0.012,1.005
2026/05/07 08:38:27.376,-0.061,0.014,1.003
2026/05/07 08:38:27.396,-0.061,0.009,1.006
2026/05/07 08:38:27.415,-0.06,0.01,1.001
2026/05/07 08:38:27.435,-0.062,0.013,1.002
2026/05/07 08:38:27.455,-0.062,0.011,1.002
2026/05/07 08:38:27.475,-0.062,0.016,1.002
2026/05/07 08:38:27.495,-0.063,0.013,1.003
2026/05/07 08:38:27.514,-0.063,0.015,1.005
2026/05/07 08:38:27.534,-0.065,0.011,0.998
2026/05/07 08:38:27.554,-0.061,0.018,1.002
2026/05/07 08:38:27.574,-0.06,0.014,1.001
2026/05/07 08:38:27.593,-0.059,0.012,1.004
2026/05/07 08:38:27.613,-0.059,0.013,1.004
2026/05/07 08:38:27.633,-0.067,0.012,1.006
2026/05/07 08:38:27.653,-0.061,0.01,1.002
2026/05/07 08:38:27.673,-0.06,0.013,1.003
2026/05/07 08:38:27.692,-0.061,0.012,1.004
2026/05/07 08:38:27.712,-0.059,0.01,1.001
2026/05/07 08:38:27.732,-0.06,0.013,1.001
2026/05/07 08:38:27.752,-0.065,0.01,1.006
2026/05/07 08:38:27.772,-0.063,0.012,1.003
2026/05/07 08:38:27.791,-0.045,-0.009,0.995
2026/05/07 08:38:27.811,-0.053,0.002,0.988
2026/05/07 08:38:27.831,-0.393,-0.636,4.902
2026/05/07 08:38:27.851,-0.009,-0.108,0.853
2026/05/07 08:38:27.870,-0.074,0.043,0.986
2026/05/07 08:38:27.890,-0.062,0.017,1.026
2026/05/07 08:38:27.910,-0.067,0.033,0.901
2026/05/07 08:38:27.930,-0.052,0.017,1.001
2026/05/07 08:38:27.950,-0.072,0.035,0.991
2026/05/07 08:38:27.969,-0.069,0.007,0.978
2026/05/07 08:38:27.989,-0.051,0.022,0.94
2026/05/07 08:38:28.009,-0.071,0.013,1.004
2026/05/07 08:38:28.029,-0.175,0.062,1.277
2026/05/07 08:38:28.049,-0.04,0.023,0.937
2026/05/07 08:38:28.068,-0.062,0.011,1.002
2026/05/07 08:38:28.088,0.044,0.034,0.047
2026/05/07 08:38:28.108,-0.045,0.027,0.996
2026/05/07 08:38:28.128,-0.058,0.012,1.01
2026/05/07 08:38:28.148,-0.059,0.009,0.885
2026/05/07 08:38:28.167,0.002,0.017,0.798
2026/05/07 08:38:28.187,-0.012,0.03,0.625
2026/05/07 08:38:28.207,-0.072,0.056,0.855
2026/05/07 08:38:28.227,-0.056,0.019,0.994
2026/05/07 08:38:28.246,-0.071,0.006,0.955
2026/05/07 08:38:28.266,-0.059,0.003,0.964
2026/05/07 08:38:28.286,-0.061,0.009,1.004
2026/05/07 08:38:28.306,-0.048,0.027,1.271
2026/05/07 08:38:28.326,-0.054,0.015,1.039
2026/05/07 08:38:28.345,-0.061,0.013,0.997
2026/05/07 08:38:28.365,-0.061,0.004,1.009
2026/05/07 08:38:28.385,-0.064,0.014,1.005
2026/05/07 08:38:28.405,-0.112,0.012,0.946
2026/05/07 08:38:28.425,-0.09,-0.027,1.087
2026/05/07 08:38:28.444,-0.051,0.023,0.99
2026/05/07 08:38:28.464,-0.053,0.014,1.02
2026/05/07 08:38:28.484,-0.026,-0.005,1.026
2026/05/07 08:38:28.504,-0.067,0.053,1.005
2026/05/07 08:38:28.524,-0.225,0.147,0.987
2026/05/07 08:38:28.543,-0.077,-0.047,1.06
2026/05/07 08:38:28.563,-0.04,0.011,1.031
2026/05/07 08:38:28.583,0.104,-0.182,0.995
2026/05/07 08:38:28.603,-0.072,-0.004,1.006
2026/05/07 08:38:28.622,-0.072,-0.012,1.049
2026/05/07 08:38:28.642,-0.053,0.018,0.986
2026/05/07 08:38:28.662,-0.06,0.018,1.021
2026/05/07 08:38:28.682,-0.068,0.009,1.016
2026/05/07 08:38:28.702,-0.069,0.006,1.041
2026/05/07 08:38:28.721,-0.039,-0.029,1.026
2026/05/07 08:38:28.741,-0.056,0.018,1.0
2026/05/07 08:38:28.761,-0.083,0.009,1.009
2026/05/07 08:38:28.781,-0.061,0.012,1.0
2026/05/07 08:38:28.801,-0.062,0.011,1.0
2026/05/07 08:38:28.820,-0.063,0.013,1.0
2026/05/07 08:38:28.840,-0.062,0.011,1.006
2026/05/07 08:38:28.860,-0.061,0.015,1.003
2026/05/07 08:38:28.880,-0.063,0.014,1.006
2026/05/07 08:38:28.900,-0.06,0.012,1.0
2026/05/07 08:38:28.919,-0.058,0.015,1.001
2026/05/07 08:38:28.939,-0.057,0.011,1.005
2026/05/07 08:38:28.959,-0.059,0.011,1.003
2026/05/07 08:38:28.979,-0.061,0.015,1.006
2026/05/07 08:38:28.999,-0.062,0.013,1.006
2026/05/07 08:38:29.018,-0.064,0.01,1.002
2026/05/07 08:38:29.038,-0.064,0.015,1.002
2026/05/07 08:38:29.058,-0.064,0.013,1.005
2026/05/07 08:38:29.078,-0.062,0.011,1.003
2026/05/07 08:38:29.097,-0.061,0.015,1.003
2026/05/07 08:38:29.117,-0.063,0.01,1.001
2026/05/07 08:38:29.137,-0.061,0.011,1.002
2026/05/07 08:38:29.157,-0.062,0.009,1.003
2026/05/07 08:38:29.177,-0.066,0.014,1.003
2026/05/07 08:38:29.196,-0.06,0.014,1.002
2026/05/07 08:38:29.216,-0.065,0.015,1.004
2026/05/07 08:38:29.236,-0.063,0.009,1.004
2026/05/07 08:38:29.256,-0.064,0.017,1.005
2026/05/07 08:38:29.276,-0.065,0.012,1.007
2026/05/07 08:38:29.295,-0.064,0.01,0.996
2026/05/07 08:38:29.315,-0.065,0.012,0.999
2026/05/07 08:38:29.335,-0.06,0.01,1.005
2026/05/07 08:38:29.355,-0.063,0.015,1.002
2026/05/07 08:38:29.375,-0.062,0.014,1.003
2026/05/07 08:38:29.394,-0.064,0.013,1.003
2026/05/07 08:38:29.414,-0.059,0.016,1.005
2026/05/07 08:38:29.434,-0.063,0.012,0.998
2026/05/07 08:38:29.454,-0.063,0.014,0.999
2026/05/07 08:38:29.473,-0.066,0.014,1.0
2026/05/07 08:38:29.493,-0.059,0.011,0.997
2026/05/07 08:38:29.513,-0.063,0.012,0.999
2026/05/07 08:38:29.533,-0.064,0.014,1.005
2026/05/07 08:38:29.553,-0.061,0.012,1.0
2026/05/07 08:38:29.572,-0.061,0.012,1.003
2026/05/07 08:38:29.592,-0.064,0.015,1.005
2026/05/07 08:38:29.612,-0.062,0.014,1.004
2026/05/07 08:38:29.632,-0.064,0.013,1.002
2026/05/07 08:38:29.652,-0.063,0.011,1.004
2026/05/07 08:38:29.671,-0.061,0.011,1.006
2026/05/07 08:38:29.691,-0.063,0.012,1.0
2026/05/07 08:38:29.711,-0.06,0.01,1.003
2026/05/07 08:38:29.731,-0.063,0.014,1.006
2026/05/07 08:38:29.751,-0.063,0.01,0.998
2026/05/07 08:38:29.770,-0.063,0.011,1.001
2026/05/07 08:38:29.790,-0.064,0.014,1.005
2026/05/07 08:38:29.810,-0.063,0.017,1.006
2026/05/07 08:38:29.830,-0.059,0.013,1.004
2026/05/07 08:38:29.849,-0.063,0.017,1.002
2026/05/07 08:38:29.869,-0.062,0.015,1.001
2026/05/07 08:38:29.889,-0.058,0.011,1.005
2026/05/07 08:38:29.909,-0.061,0.012,1.002
2026/05/07 08:38:29.929,-0.063,0.011,1.004
2026/05/07 08:38:29.948,-0.064,0.015,1.002
2026/05/07 08:38:29.968,-0.062,0.011,1.002
2026/05/07 08:38:29.988,-0.065,0.01,1.003
2026/05/07 08:38:30.008,-0.063,0.007,1.0
2026/05/07 08:38:30.028,-0.061,0.015,1.002
2026/05/07 08:38:30.047,-0.063,0.013,1.001
2026/05/07 08:38:30.067,-0.06,0.013,1.003
2026/05/07 08:38:30.087,-0.061,0.012,1.003
2026/05/07 08:38:30.107,-0.063,0.015,1.005
2026/05/07 08:38:30.127,-0.063,0.015,1.0
2026/05/07 08:38:30.146,-0.061,0.009,1.003
2026/05/07 08:38:30.166,-0.068,0.01,1.002
2026/05/07 08:38:30.186,-0.06,0.012,1.001
2026/05/07 08:38:30.206,-0.062,0.014,1.004
2026/05/07 08:38:30.226,-0.065,0.012,1.001
2026/05/07 08:38:30.245,-0.063,0.013,1.001
2026/05/07 08:38:30.265,-0.063,0.009,1.003
2026/05/07 08:38:30.285,-0.062,0.015,1.004
2026/05/07 08:38:30.305,-0.062,0.015,1.004
2026/05/07 08:38:30.324,-0.065,0.014,1.006
2026/05/07 08:38:30.344,-0.064,0.01,1.002
2026/05/07 08:38:30.364,-0.062,0.013,1.002
2026/05/07 08:38:30.384,-0.065,0.01,1.005
2026/05/07 08:38:30.404,-0.064,0.012,1.002
2026/05/07 08:38:30.423,-0.059,0.014,1.012
2026/05/07 08:38:30.443,-0.053,0.011,0.98
2026/05/07 08:38:30.463,-0.061,0.016,1.004
2026/05/07 08:38:30.483,-0.06,0.008,1.012
2026/05/07 08:38:30.503,-0.064,0.014,0.988
2026/05/07 08:38:30.522,-0.061,0.166,1.027
2026/05/07 08:38:30.542,-0.046,0.018,0.99
2026/05/07 08:38:30.562,-0.066,0.011,0.998
2026/05/07 08:38:30.582,-0.101,0.036,1.11
2026/05/07 08:38:30.602,-0.027,0.07,1.108
2026/05/07 08:38:30.621,-0.067,0.02,1.006
2026/05/07 08:38:30.641,-0.136,-0.26,1.077
2026/05/07 08:38:30.661,-0.027,-0.043,1.01
2026/05/07 08:38:30.681,-0.041,-0.007,1.046
2026/05/07 08:38:30.701,-0.028,0.012,0.989
2026/05/07 08:38:30.720,-0.066,0.031,1.023
2026/05/07 08:38:30.740,-0.161,0.074,1.051
2026/05/07 08:38:30.760,-0.142,0.102,0.978
2026/05/07 08:38:30.780,-0.067,0.009,1.003
2026/05/07 08:38:30.799,-0.052,0.009,1.122
2026/05/07 08:38:30.819,-0.037,-0.033,1.132
2026/05/07 08:38:30.839,-0.067,0.033,1.014
2026/05/07 08:38:30.859,-0.071,0.0,0.997
2026/05/07 08:38:30.879,-0.104,0.037,1.045
2026/05/07 08:38:30.898,-0.07,0.016,1.035
2026/05/07 08:38:30.918,-0.038,0.009,1.001
2026/05/07 08:38:30.938,-0.087,0.006,1.085
2026/05/07 08:38:30.958,-0.057,0.015,1.004
2026/05/07 08:38:30.978,-0.059,0.011,0.999
2026/05/07 08:38:30.997,-0.062,0.014,1.006
2026/05/07 08:38:31.017,-0.061,0.011,1.001
2026/05/07 08:38:31.037,-0.064,0.014,1.003
2026/05/07 08:38:31.057,-0.06,0.014,1.003
2026/05/07 08:38:31.077,-0.062,0.013,1.004
2026/05/07 08:38:31.096,-0.059,0.01,1.002
2026/05/07 08:38:31.116,-0.064,0.01,1.001
2026/05/07 08:38:31.136,-0.06,0.014,0.998
2026/05/07 08:38:31.156,-0.061,0.013,0.997
2026/05/07 08:38:31.176,-0.058,0.0,0.994
2026/05/07 08:38:31.195,-0.062,0.011,1.01
2026/05/07 08:38:31.215,-0.059,0.007,1.017
2026/05/07 08:38:31.235,-0.06,0.012,1.002
2026/05/07 08:38:31.255,-0.061,0.016,1.004
2026/05/07 08:38:31.274,-0.06,0.014,1.003
2026/05/07 08:38:31.294,-0.062,0.013,1.001
2026/05/07 08:38:31.314,-0.062,0.011,1.009
2026/05/07 08:38:31.334,-0.058,0.015,1.0
2026/05/07 08:38:31.354,-0.062,0.014,1.005
2026/05/07 08:38:31.373,-0.063,0.013,1.005
2026/05/07 08:38:31.393,-0.062,0.009,1.004
2026/05/07 08:38:31.413,-0.06,0.011,1.004
2026/05/07 08:38:31.433,-0.06,0.01,1.001
2026/05/07 08:38:31.453,-0.063,0.016,1.009
2026/05/07 08:38:31.472,-0.072,0.017,0.973
2026/05/07 08:38:31.492,-0.074,0.017,1.032
2026/05/07 08:38:31.512,-0.058,0.015,1.001
2026/05/07 08:38:31.532,-0.06,0.011,1.001
2026/05/07 08:38:31.552,-0.059,0.01,1.005
2026/05/07 08:38:31.571,-0.063,0.015,1.001
2026/05/07 08:38:31.591,-0.061,0.012,0.999
2026/05/07 08:38:31.611,-0.062,0.01,1.002
2026/05/07 08:38:31.631,-0.062,0.014,0.999
2026/05/07 08:38:31.651,-0.064,0.012,1.004
2026/05/07 08:38:31.670,-0.061,0.014,1.005
2026/05/07 08:38:31.690,-0.065,0.013,0.995
2026/05/07 08:38:31.710,-0.062,0.011,1.006
2026/05/07 08:38:31.730,-0.062,0.009,1.004
2026/05/07 08:38:31.749,-0.066,0.012,1.005
2026/05/07 08:38:31.769,-0.064,0.011,1.004
2026/05/07 08:38:31.789,-0.066,0.01,1.004
2026/05/07 08:38:31.809,-0.062,0.011,1.001
2026/05/07 08:38:31.829,-0.062,0.009,1.003
2026/05/07 08:38:31.848,-0.064,0.012,1.002
2026/05/07 08:38:31.868,-0.06,0.012,1.004
2026/05/07 08:38:31.888,-0.062,0.013,1.003
2026/05/07 08:38:31.908,-0.06,0.008,1.0
2026/05/07 08:38:31.928,-0.063,0.01,1.005
2026/05/07 08:38:31.947,-0.059,0.011,1.004
2026/05/07 08:38:31.967,-0.063,0.012,1.003
2026/05/07 08:38:31.987,-0.06,0.011,1.0
2026/05/07 08:38:32.007,-0.06,0.008,0.999
2026/05/07 08:38:32.027,-0.062,0.012,1.0
2026/05/07 08:38:32.046,-0.063,0.009,1.005
2026/05/07 08:38:32.066,-0.063,0.013,1.001
2026/05/07 08:38:32.086,-0.06,0.015,1.001
2026/05/07 08:38:32.106,-0.064,0.011,1.007
2026/05/07 08:38:32.125,-0.062,0.011,1.007
2026/05/07 08:38:32.145,-0.064,0.014,1.004
2026/05/07 08:38:32.165,-0.064,0.011,1.001
2026/05/07 08:38:32.185,-0.061,0.015,1.005
2026/05/07 08:38:32.205,-0.062,0.012,1.003
2026/05/07 08:38:32.224,-0.061,0.011,1.004
2026/05/07 08:38:32.244,-0.063,0.016,1.002
2026/05/07 08:38:32.264,-0.063,0.011,1.003
2026/05/07 08:38:32.284,-0.06,0.011,0.999
2026/05/07 08:38:32.304,-0.059,0.013,1.003
2026/05/07 08:38:32.323,-0.063,0.012,1.004
2026/05/07 08:38:32.343,-0.064,0.009,1.0
2026/05/07 08:38:32.363,-0.062,0.015,1.011
2026/05/07 08:38:32.383,-0.06,0.015,1.006
2026/05/07 08:38:32.403,-0.061,0.009,1.004
2026/05/07 08:38:32.422,-0.062,0.014,1.006
2026/05/07 08:38:32.442,-0.056,0.013,1.003
2026/05/07 08:38:32.462,-0.06,0.011,1.005
2026/05/07 08:38:32.482,-0.065,0.008,1.003
2026/05/07 08:38:32.502,-0.062,0.011,1.002
2026/05/07 08:38:32.521,-0.066,0.01,1.004
2026/05/07 08:38:32.541,-0.059,0.015,1.004
2026/05/07 08:38:32.561,-0.06,0.015,1.004
2026/05/07 08:38:32.581,-0.062,0.009,1.003
2026/05/07 08:38:32.600,-0.062,0.014,1.002
2026/05/07 08:38:32.620,-0.062,0.009,1.006
2026/05/07 08:38:32.640,-0.059,0.014,1.003
2026/05/07 08:38:32.660,-0.062,0.013,1.003
2026/05/07 08:38:32.680,-0.062,0.009,1.002
2026/05/07 08:38:32.699,-0.06,0.014,1.006
2026/05/07 08:38:32.719,-0.061,0.009,1.006
2026/05/07 08:38:32.739,-0.06,0.008,1.006
2026/05/07 08:38:32.759,-0.06,0.01,1.003
2026/05/07 08:38:32.779,-0.066,0.016,1.002
2026/05/07 08:38:32.798,-0.059,0.013,1.002
2026/05/07 08:38:32.818,-0.059,0.012,1.003
2026/05/07 08:38:32.838,-0.059,0.01,1.002
2026/05/07 08:38:32.858,-0.064,0.013,1.006
2026/05/07 08:38:32.878,-0.059,0.01,1.002
2026/05/07 08:38:32.897,-0.059,0.01,1.006
2026/05/07 08:38:32.917,-0.059,0.016,1.002
2026/05/07 08:38:32.937,-0.064,0.013,1.007
2026/05/07 08:38:32.957,-0.064,0.012,1.001
2026/05/07 08:38:32.977,-0.058,0.012,1.006
2026/05/07 08:38:32.996,-0.062,0.011,1.005
2026/05/07 08:38:33.016,-0.059,0.014,1.005
2026/05/07 08:38:33.036,-0.061,0.01,0.999
2026/05/07 08:38:33.056,-0.062,0.012,1.003
2026/05/07 08:38:33.075,-0.06,0.012,0.999
2026/05/07 08:38:33.095,-0.062,0.012,0.999
2026/05/07 08:38:33.115,-0.06,0.012,1.007
2026/05/07 08:38:33.135,-0.063,0.009,1.004
2026/05/07 08:38:33.155,-0.061,0.013,1.002
2026/05/07 08:38:33.174,-0.062,0.014,1.004
2026/05/07 08:38:33.194,-0.061,0.016,1.001
2026/05/07 08:38:33.214,-0.059,0.009,0.988
2026/05/07 08:38:33.234,-0.064,0.012,1.002
2026/05/07 08:38:33.254,-0.062,0.01,0.976
2026/05/07 08:38:33.273,-0.059,0.007,0.998
2026/05/07 08:38:33.293,-0.068,-0.002,1.0
2026/05/07 08:38:33.313,-0.067,0.014,1.006
2026/05/07 08:38:33.333,-0.057,0.014,1.015
2026/05/07 08:38:33.353,-0.074,0.019,0.992
2026/05/07 08:38:33.372,-0.064,0.015,0.97
2026/05/07 08:38:33.392,-0.056,0.01,1.03
2026/05/07 08:38:33.412,-0.057,0.008,0.992
2026/05/07 08:38:33.432,-0.07,0.018,1.0
2026/05/07 08:38:33.452,-0.067,0.014,0.999
2026/05/07 08:38:33.471,-0.061,0.013,1.002
2026/05/07 08:38:33.491,-0.062,0.011,1.003
2026/05/07 08:38:33.511,-0.061,0.009,1.004
2026/05/07 08:38:33.531,-0.065,0.015,1.002
2026/05/07 08:38:33.550,-0.059,0.007,0.999
2026/05/07 08:38:33.570,-0.063,0.012,1.0
2026/05/07 08:38:33.590,-0.065,0.011,1.007
2026/05/07 08:38:33.610,-0.061,0.015,1.01
2026/05/07 08:38:33.630,-0.059,0.013,0.999
2026/05/07 08:38:33.649,-0.062,0.013,1.0
2026/05/07 08:38:33.669,-0.058,0.011,0.997
2026/05/07 08:38:33.689,-0.067,0.009,1.01
2026/05/07 08:38:33.709,-0.061,0.01,1.001
2026/05/07 08:38:33.729,-0.06,0.012,1.002
2026/05/07 08:38:33.748,-0.062,0.014,1.006
2026/05/07 08:38:33.768,-0.059,0.014,1.007
2026/05/07 08:38:33.788,-0.064,0.011,1.008
2026/05/07 08:38:33.808,0.013,-0.207,0.808
2026/05/07 08:38:33.828,-0.061,0.04,0.936
2026/05/07 08:38:33.847,-0.05,0.006,1.048
2026/05/07 08:38:33.867,-0.067,0.005,1.053
2026/05/07 08:38:33.887,-0.063,0.018,0.993
2026/05/07 08:38:33.907,-0.06,0.015,0.993
2026/05/07 08:38:33.927,-0.06,0.016,1.003
2026/05/07 08:38:33.946,-0.059,0.014,1.004
2026/05/07 08:38:33.966,-0.059,0.014,0.998
2026/05/07 08:38:33.986,-0.056,0.014,0.997
2026/05/07 08:38:34.006,-0.058,0.011,1.003
2026/05/07 08:38:34.025,-0.06,0.015,1.004
2026/05/07 08:38:34.045,-0.06,0.013,1.001
2026/05/07 08:38:34.065,-0.064,0.011,0.998
2026/05/07 08:38:34.085,-0.059,0.011,1.006
2026/05/07 08:38:34.105,-0.059,0.016,1.003
2026/05/07 08:38:34.124,-0.061,0.012,1.0
2026/05/07 08:38:34.144,-0.059,0.013,1.003
2026/05/07 08:38:34.164,-0.06,0.01,1.003
2026/05/07 08:38:34.184,-0.061,0.017,1.008
2026/05/07 08:38:34.204,-0.057,0.012,0.997
2026/05/07 08:38:34.223,-0.061,0.009,1.0
2026/05/07 08:38:34.243,-0.06,0.01,0.997
2026/05/07 08:38:34.263,-0.062,0.015,1.004
2026/05/07 08:38:34.283,-0.059,0.015,1.003
2026/05/07 08:38:34.303,-0.058,0.013,1.003
2026/05/07 08:38:34.322,-0.058,0.016,0.999
2026/05/07 08:38:34.342,-0.062,0.007,1.0
2026/05/07 08:38:34.362,-0.057,0.012,1.004
2026/05/07 08:38:34.382,-0.063,0.014,1.003
2026/05/07 08:38:34.401,-0.061,0.013,1.0
2026/05/07 08:38:34.421,-0.062,0.01,1.004
2026/05/07 08:38:34.441,-0.06,0.01,1.001
2026/05/07 08:38:34.461,-0.06,0.015,1.002
2026/05/07 08:38:34.481,-0.06,0.012,1.006
2026/05/07 08:38:34.500,-0.063,0.012,1.003
2026/05/07 08:38:34.520,-0.057,0.015,1.003
2026/05/07 08:38:34.540,-0.061,0.01,1.01
2026/05/07 08:38:34.560,-0.062,0.013,1.003
2026/05/07 08:38:34.580,-0.058,0.011,1.001
2026/05/07 08:38:34.599,-0.06,0.01,1.002
2026/05/07 08:38:34.619,-0.062,0.012,1.003
2026/05/07 08:38:34.639,-0.062,0.012,1.007
2026/05/07 08:38:34.659,-0.064,0.013,1.002
2026/05/07 08:38:34.679,-0.062,0.012,1.002
2026/05/07 08:38:34.698,-0.056,0.013,1.0
2026/05/07 08:38:34.718,-0.058,0.012,0.996
2026/05/07 08:38:34.738,-0.059,0.011,1.001
2026/05/07 08:38:34.758,-0.062,0.015,1.003
2026/05/07 08:38:34.778,-0.062,0.012,1.002
2026/05/07 08:38:34.797,-0.063,0.01,1.0
2026/05/07 08:38:34.817,-0.06,0.012,1.005
2026/05/07 08:38:34.837,-0.064,0.012,1.007
2026/05/07 08:38:34.857,-0.061,0.012,1.005
2026/05/07 08:38:34.876,-0.059,0.01,1.003
2026/05/07 08:38:34.896,-0.061,0.009,1.007
2026/05/07 08:38:34.916,-0.055,0.011,1.003
2026/05/07 08:38:34.936,-0.063,0.009,1.005
2026/05/07 08:38:34.956,-0.06,0.011,1.006
2026/05/07 08:38:34.975,-0.062,0.013,1.0
2026/05/07 08:38:34.995,-0.06,0.012,1.002
2026/05/07 08:38:35.015,-0.06,0.011,1.006
2026/05/07 08:38:35.035,-0.062,0.012,1.001
2026/05/07 08:38:35.055,-0.064,0.008,1.001
2026/05/07 08:38:35.074,-0.049,-0.007,1.11
2026/05/07 08:38:35.094,-0.047,0.013,0.989
2026/05/07 08:38:35.114,-0.052,0.012,0.998
2026/05/07 08:38:35.134,-0.062,0.011,1.004
2026/05/07 08:38:35.154,-0.06,0.014,1.001
2026/05/07 08:38:35.173,-0.054,0.011,1.0
2026/05/07 08:38:35.193,-0.061,0.018,0.992
2026/05/07 08:38:35.213,-0.062,0.013,1.012
2026/05/07 08:38:35.233,-0.061,0.013,1.008
2026/05/07 08:38:35.252,-0.061,0.01,0.998
2026/05/07 08:38:35.272,-0.06,0.011,1.005
2026/05/07 08:38:35.292,-0.062,0.014,1.004
2026/05/07 08:38:35.312,-0.066,0.013,1.003
2026/05/07 08:38:35.332,-0.067,0.015,1.002
2026/05/07 08:38:35.351,-0.058,0.015,0.999
2026/05/07 08:38:35.371,-0.055,0.011,0.983
2026/05/07 08:38:35.391,-0.057,0.012,0.996
2026/05/07 08:38:35.411,-0.054,0.002,0.96
2026/05/07 08:38:35.431,-0.044,-0.006,1.02
2026/05/07 08:38:35.450,-0.059,0.006,1.003
2026/05/07 08:38:35.470,-0.058,0.015,1.004
2026/05/07 08:38:35.490,-0.059,0.014,0.987
2026/05/07 08:38:35.510,-0.064,0.009,1.001
2026/05/07 08:38:35.530,-0.06,0.007,0.997
2026/05/07 08:38:35.549,-0.062,0.005,0.994
2026/05/07 08:38:35.569,-0.065,0.007,0.993
2026/05/07 08:38:35.589,-0.059,0.017,0.993
2026/05/07 08:38:35.609,-0.063,0.013,1.003
2026/05/07 08:38:35.629,-0.059,0.013,1.009
2026/05/07 08:38:35.648,-0.063,0.012,1.002
2026/05/07 08:38:35.668,-0.06,0.01,1.003
2026/05/07 08:38:35.688,-0.061,0.009,1.002
2026/05/07 08:38:35.708,-0.068,0.011,1.005
2026/05/07 08:38:35.727,-0.065,0.006,1.009
2026/05/07 08:38:35.747,-0.061,0.026,1.016
2026/05/07 08:38:35.767,-0.061,0.007,1.001
2026/05/07 08:38:35.787,-0.063,0.013,1.001
2026/05/07 08:38:35.807,-0.064,0.009,1.009
2026/05/07 08:38:35.826,-0.062,0.01,1.006
2026/05/07 08:38:35.846,-0.061,0.012,1.001
2026/05/07 08:38:35.866,-0.063,0.013,0.999
2026/05/07 08:38:35.886,-0.062,0.011,1.007
2026/05/07 08:38:35.906,-0.06,0.015,1.002
2026/05/07 08:38:35.925,-0.056,0.015,0.995
2026/05/07 08:38:35.945,-0.059,0.013,0.999
2026/05/07 08:38:35.965,-0.061,0.014,0.991
2026/05/07 08:38:35.985,-0.059,0.007,1.006
2026/05/07 08:38:36.005,-0.058,0.008,1.006
2026/05/07 08:38:36.024,-0.06,0.009,1.0
2026/05/07 08:38:36.044,-0.059,0.015,1.004
2026/05/07 08:38:36.064,-0.06,0.014,1.003
2026/05/07 08:38:36.084,-0.061,0.009,1.006
2026/05/07 08:38:36.104,-0.057,0.01,1.005
2026/05/07 08:38:36.123,-0.062,0.014,1.001
2026/05/07 08:38:36.143,-0.058,0.013,1.003
2026/05/07 08:38:36.163,-0.06,0.014,1.002
2026/05/07 08:38:36.183,-0.06,0.009,1.002
2026/05/07 08:38:36.202,-0.062,0.009,1.001
2026/05/07 08:38:36.222,-0.063,0.01,1.002
2026/05/07 08:38:36.242,-0.064,0.012,1.001
2026/05/07 08:38:36.262,-0.061,0.012,1.004
2026/05/07 08:38:36.282,-0.061,0.014,1.001
2026/05/07 08:38:36.301,-0.06,0.013,1.0
2026/05/07 08:38:36.321,-0.059,0.013,1.0
2026/05/07 08:38:36.341,-0.066,0.01,0.995
2026/05/07 08:38:36.361,-0.064,0.017,0.992
2026/05/07 08:38:36.381,-0.069,0.018,1.027
2026/05/07 08:38:36.400,-0.058,0.012,1.004
2026/05/07 08:38:36.420,-0.059,0.012,1.005
2026/05/07 08:38:36.440,-0.06,0.012,1.003
2026/05/07 08:38:36.460,-0.057,0.009,1.003
2026/05/07 08:38:36.480,-0.063,0.011,1.004
2026/05/07 08:38:36.499,-0.059,0.011,1.004
2026/05/07 08:38:36.519,-0.061,0.013,1.0
2026/05/07 08:38:36.539,-0.059,0.011,1.002
2026/05/07 08:38:36.559,-0.061,0.013,1.004
2026/05/07 08:38:36.578,-0.059,0.011,1.006
2026/05/07 08:38:36.598,-0.061,0.01,1.001
2026/05/07 08:38:36.618,-0.061,0.012,0.999
2026/05/07 08:38:36.638,-0.058,0.011,1.004
2026/05/07 08:38:36.658,-0.062,0.014,1.007
2026/05/07 08:38:36.677,-0.06,0.013,0.998
2026/05/07 08:38:36.697,-0.057,0.013,1.006
2026/05/07 08:38:36.717,-0.059,0.016,1.003
2026/05/07 08:38:36.737,-0.06,0.013,1.005
2026/05/07 08:38:36.757,-0.059,0.012,1.007
2026/05/07 08:38:36.776,-0.061,0.014,1.003
2026/05/07 08:38:36.796,-0.062,0.01,1.004
2026/05/07 08:38:36.816,-0.06,0.009,1.005
2026/05/07 08:38:36.836,-0.062,0.013,1.001
2026/05/07 08:38:36.856,-0.06,0.012,1.001
2026/05/07 08:38:36.875,-0.066,0.01,1.005
2026/05/07 08:38:36.895,-0.06,0.012,1.006
2026/05/07 08:38:36.915,-0.06,0.01,1.006
2026/05/07 08:38:36.935,-0.06,0.013,1.0
2026/05/07 08:38:36.954,-0.06,0.012,1.007
2026/05/07 08:38:36.974,-0.06,0.013,1.004
2026/05/07 08:38:36.994,-0.061,0.012,1.005
2026/05/07 08:38:37.014,-0.059,0.013,1.003
2026/05/07 08:38:37.034,-0.058,0.012,1.004
2026/05/07 08:38:37.053,-0.061,0.016,1.003
2026/05/07 08:38:37.073,-0.059,0.014,1.002
2026/05/07 08:38:37.093,-0.058,0.015,1.003
2026/05/07 08:38:37.113,-0.058,0.01,1.004
2026/05/07 08:38:37.133,-0.063,0.014,1.004
2026/05/07 08:38:37.152,-0.06,0.016,0.996
2026/05/07 08:38:37.172,-0.064,0.01,1.005
2026/05/07 08:38:37.192,-0.061,0.013,1.003
2026/05/07 08:38:37.212,-0.062,0.016,1.0
2026/05/07 08:38:37.232,-0.059,0.009,1.007
2026/05/07 08:38:37.251,-0.059,0.012,1.001
2026/05/07 08:38:37.271,-0.06,0.014,1.005
2026/05/07 08:38:37.291,-0.06,0.015,1.004
2026/05/07 08:38:37.311,-0.061,0.011,1.002
2026/05/07 08:38:37.331,-0.061,0.013,1.003
2026/05/07 08:38:37.350,-0.06,0.012,1.002
2026/05/07 08:38:37.370,-0.06,0.014,1.003
2026/05/07 08:38:37.390,-0.061,0.01,1.004
2026/05/07 08:38:37.410,-0.058,0.012,1.005
2026/05/07 08:38:37.429,-0.064,0.011,1.004
2026/05/07 08:38:37.449,-0.058,0.011,1.005
2026/05/07 08:38:37.469,-0.059,0.013,1.002
2026/05/07 08:38:37.489,-0.061,0.019,1.001
2026/05/07 08:38:37.509,-0.059,0.013,1.006
2026/05/07 08:38:37.528,-0.055,0.012,1.005
2026/05/07 08:38:37.548,-0.059,0.015,1.004
2026/05/07 08:38:37.568,-0.063,0.012,1.005
2026/05/07 08:38:37.588,-0.062,0.012,1.005
2026/05/07 08:38:37.608,-0.056,0.014,1.004
2026/05/07 08:38:37.627,-0.059,0.011,1.0
2026/05/07 08:38:37.647,-0.065,0.016,1.005
2026/05/07 08:38:37.667,-0.062,0.012,1.001
2026/05/07 08:38:37.687,-0.056,0.011,1.001
2026/05/07 08:38:37.707,-0.059,0.016,1.001
2026/05/07 08:38:37.726,-0.062,0.014,1.005
2026/05/07 08:38:37.746,-0.059,0.012,1.001
2026/05/07 08:38:37.766,-0.061,0.012,1.002
2026/05/07 08:38:37.786,-0.061,0.012,1.001
2026/05/07 08:38:37.805,-0.061,0.011,1.002
2026/05/07 08:38:37.825,-0.059,0.014,1.002
2026/05/07 08:38:37.845,-0.058,0.012,1.003
2026/05/07 08:38:37.865,-0.061,0.01,1.003
2026/05/07 08:38:37.885,-0.059,0.016,1.005
2026/05/07 08:38:37.904,-0.063,0.012,1.002
2026/05/07 08:38:37.924,-0.065,0.011,1.004
2026/05/07 08:38:37.944,-0.065,0.007,1.003
2026/05/07 08:38:37.964,-0.059,0.014,1.003
2026/05/07 08:38:37.984,-0.062,0.015,1.002
2026/05/07 08:38:38.003,-0.062,0.019,1.002
2026/05/07 08:38:38.023,-0.057,0.009,1.004
2026/05/07 08:38:38.043,-0.061,0.011,1.004
2026/05/07 08:38:38.063,-0.051,0.011,1.003
2026/05/07 08:38:38.083,-0.054,0.013,0.993
2026/05/07 08:38:38.102,-0.063,0.013,1.015
2026/05/07 08:38:38.122,-0.056,0.015,0.997
2026/05/07 08:38:38.142,-0.061,0.016,1.002
2026/05/07 08:38:38.162,-0.061,0.011,1.007
2026/05/07 08:38:38.182,-0.066,0.014,1.001
2026/05/07 08:38:38.201,-0.064,0.017,0.994
2026/05/07 08:38:38.221,-0.055,0.016,0.985
2026/05/07 08:38:38.241,-0.057,0.011,0.994
2026/05/07 08:38:38.261,-0.061,0.01,1.013
2026/05/07 08:38:38.280,-0.059,0.015,0.999
2026/05/07 08:38:38.300,-0.057,0.009,1.002
2026/05/07 08:38:38.320,-0.059,0.016,0.997
2026/05/07 08:38:38.340,-0.059,0.016,1.0
2026/05/07 08:38:38.360,-0.06,0.019,0.999
2026/05/07 08:38:38.379,-0.076,0.02,1.006
2026/05/07 08:38:38.399,-0.063,0.007,1.016
2026/05/07 08:38:38.419,-0.061,0.013,0.997
2026/05/07 08:38:38.439,-0.063,0.013,1.006
2026/05/07 08:38:38.459,-0.061,0.012,1.002
2026/05/07 08:38:38.478,-0.06,0.015,1.007
2026/05/07 08:38:38.498,-0.061,0.013,0.991
2026/05/07 08:38:38.518,-0.063,0.013,1.002
2026/05/07 08:38:38.538,-0.062,0.01,0.998
2026/05/07 08:38:38.558,-0.062,0.01,1.003
2026/05/07 08:38:38.577,-0.065,0.012,1.001
2026/05/07 08:38:38.597,-0.061,0.014,1.002
2026/05/07 08:38:38.617,-0.063,0.011,1.007
2026/05/07 08:38:38.637,-0.061,0.012,1.005
2026/05/07 08:38:38.656,-0.061,0.011,1.006
2026/05/07 08:38:38.676,-0.06,0.014,1.0
2026/05/07 08:38:38.696,-0.126,0.237,0.919
2026/05/07 08:38:38.716,-0.046,-0.074,1.0
2026/05/07 08:38:38.736,-0.038,-0.068,1.017
2026/05/07 08:38:38.755,-0.086,0.023,0.962
2026/05/07 08:38:38.775,-0.065,0.017,1.002
2026/05/07 08:38:38.795,-0.061,0.011,1.0
2026/05/07 08:38:38.815,-0.059,0.011,1.003
2026/05/07 08:38:38.835,-0.066,0.014,1.007
2026/05/07 08:38:38.854,-0.063,0.013,1.006
2026/05/07 08:38:38.874,-0.059,0.013,0.999
2026/05/07 08:38:38.894,-0.056,0.014,1.002
2026/05/07 08:38:38.914,-0.059,0.013,1.004
2026/05/07 08:38:38.934,-0.061,0.011,1.004
2026/05/07 08:38:38.953,-0.065,0.021,0.998
2026/05/07 08:38:38.973,-0.063,0.012,1.005
2026/05/07 08:38:38.993,-0.064,0.013,1.002
2026/05/07 08:38:39.013,-0.059,0.014,1.002
2026/05/07 08:38:39.033,-0.054,0.014,1.04
2026/05/07 08:38:39.052,-0.046,0.014,0.975
2026/05/07 08:38:39.072,-0.062,0.015,1.0
2026/05/07 08:38:39.092,-0.06,0.012,1.007
2026/05/07 08:38:39.112,-0.059,0.012,1.0
2026/05/07 08:38:39.131,-0.061,0.012,1.004
2026/05/07 08:38:39.151,-0.06,0.011,1.002
2026/05/07 08:38:39.171,-0.06,0.012,1.002
2026/05/07 08:38:39.191,-0.06,0.01,0.999
2026/05/07 08:38:39.211,-0.057,0.012,1.001
2026/05/07 08:38:39.230,-0.058,0.01,1.003
2026/05/07 08:38:39.250,-0.059,0.01,1.003
2026/05/07 08:38:39.270,-0.062,0.012,1.003
2026/05/07 08:38:39.290,-0.059,0.011,1.004
2026/05/07 08:38:39.310,-0.061,0.012,1.004
2026/05/07 08:38:39.329,-0.063,0.012,1.003
2026/05/07 08:38:39.349,-0.062,0.011,1.001
2026/05/07 08:38:39.369,-0.058,0.012,1.001
2026/05/07 08:38:39.389,-0.058,0.012,1.004
2026/05/07 08:38:39.409,-0.066,0.013,1.005
2026/05/07 08:38:39.428,-0.059,0.015,1.0
2026/05/07 08:38:39.448,-0.062,0.015,1.006
2026/05/07 08:38:39.468,-0.06,0.011,1.0
2026/05/07 08:38:39.488,-0.06,0.015,1.002
2026/05/07 08:38:39.507,-0.062,0.012,1.002
2026/05/07 08:38:39.527,-0.064,0.011,0.998
2026/05/07 08:38:39.547,-0.061,0.015,1.002
2026/05/07 08:38:39.567,-0.061,0.015,1.003
2026/05/07 08:38:39.587,-0.059,0.015,1.005
2026/05/07 08:38:39.606,-0.063,0.013,1.003
2026/05/07 08:38:39.626,-0.062,0.015,1.001
2026/05/07 08:38:39.646,-0.064,0.015,1.003
2026/05/07 08:38:39.666,-0.063,0.017,1.005
2026/05/07 08:38:39.686,-0.059,0.007,1.005
2026/05/07 08:38:39.705,-0.059,0.014,1.007
2026/05/07 08:38:39.725,-0.06,0.012,1.001
2026/05/07 08:38:39.745,-0.061,0.014,1.003
2026/05/07 08:38:39.765,-0.059,0.011,1.008
2026/05/07 08:38:39.785,-0.057,0.014,1.003
2026/05/07 08:38:39.804,-0.059,0.013,1.001
2026/05/07 08:38:39.824,-0.057,0.009,1.003
2026/05/07 08:38:39.844,-0.06,0.013,1.002
2026/05/07 08:38:39.864,-0.059,0.012,1.001
2026/05/07 08:38:39.884,-0.059,0.007,1.005
2026/05/07 08:38:39.903,-0.063,0.009,1.001
2026/05/07 08:38:39.923,-0.061,0.01,1.009
2026/05/07 08:38:39.943,-0.065,0.013,0.999
2026/05/07 08:38:39.963,-0.062,0.01,1.007
2026/05/07 08:38:39.982,-0.06,0.011,1.004
2026/05/07 08:38:40.002,-0.06,0.016,1.004
2026/05/07 08:38:40.022,-0.06,0.012,0.998
2026/05/07 08:38:40.042,-0.063,0.009,1.002
2026/05/07 08:38:40.062,-0.059,0.009,0.999
2026/05/07 08:38:40.081,-0.06,0.009,0.999
2026/05/07 08:38:40.101,-0.061,0.009,1.006
2026/05/07 08:38:40.121,-0.06,0.013,0.995
2026/05/07 08:38:40.141,-0.061,0.014,1.01
2026/05/07 08:38:40.161,-0.062,0.012,0.999
2026/05/07 08:38:40.180,-0.062,0.007,1.001
2026/05/07 08:38:40.200,-0.06,0.014,1.003
2026/05/07 08:38:40.220,-0.062,0.011,1.004
2026/05/07 08:38:40.240,-0.063,0.013,1.005
2026/05/07 08:38:40.260,-0.063,0.013,1.002
2026/05/07 08:38:40.279,-0.065,0.012,1.006
2026/05/07 08:38:40.299,-0.063,0.008,1.007
2026/05/07 08:38:40.319,-0.062,0.015,1.004
2026/05/07 08:38:40.339,-0.063,0.013,1.0
2026/05/07 08:38:40.358,-0.061,0.011,1.003
2026/05/07 08:38:40.378,-0.059,0.012,1.005
2026/05/07 08:38:40.398,-0.063,0.014,1.004
2026/05/07 08:38:40.418,-0.061,0.009,1.0
2026/05/07 08:38:40.438,-0.063,0.01,1.0
2026/05/07 08:38:40.457,-0.058,0.014,1.006
2026/05/07 08:38:40.477,-0.061,0.012,1.004
2026/05/07 08:38:40.497,-0.06,0.009,1.002
2026/05/07 08:38:40.517,-0.058,0.013,1.0
2026/05/07 08:38:40.537,-0.062,0.01,1.002
2026/05/07 08:38:40.556,-0.061,0.012,1.004
2026/05/07 08:38:40.576,-0.063,0.013,1.003
2026/05/07 08:38:40.596,-0.063,0.012,1.0
2026/05/07 08:38:40.616,-0.063,0.009,1.007
2026/05/07 08:38:40.636,-0.06,0.014,1.005
2026/05/07 08:38:40.655,-0.064,0.012,1.003
2026/05/07 08:38:40.675,-0.059,0.012,0.999
2026/05/07 08:38:40.695,-0.063,0.009,1.004
2026/05/07 08:38:40.715,-0.061,0.012,0.997
2026/05/07 08:38:40.734,-0.062,0.013,1.003
2026/05/07 08:38:40.754,-0.057,0.009,1.0
2026/05/07 08:38:40.774,-0.062,0.009,1.001
2026/05/07 08:38:40.794,-0.063,0.013,1.005
2026/05/07 08:38:40.814,-0.056,0.011,1.001
2026/05/07 08:38:40.833,-0.064,0.011,1.001
2026/05/07 08:38:40.853,-0.061,0.013,1.004
2026/05/07 08:38:40.873,-0.063,0.01,1.004
2026/05/07 08:38:40.893,-0.056,0.011,1.002
2026/05/07 08:38:40.913,-0.062,0.011,0.999
2026/05/07 08:38:40.932,-0.061,0.011,1.002
2026/05/07 08:38:40.952,-0.063,0.013,1.0
2026/05/07 08:38:40.972,-0.063,0.01,1.001
2026/05/07 08:38:40.992,-0.059,0.015,1.003
2026/05/07 08:38:41.012,-0.06,0.007,1.001
2026/05/07 08:38:41.031,-0.056,0.014,1.013
2026/05/07 08:38:41.051,-0.059,0.015,1.004
2026/05/07 08:38:41.071,-0.064,0.013,1.0
2026/05/07 08:38:41.091,-0.061,0.013,0.999
2026/05/07 08:38:41.110,-0.057,0.021,0.999
2026/05/07 08:38:41.130,-0.071,0.016,0.998
2026/05/07 08:38:41.150,-0.059,0.013,1.004
2026/05/07 08:38:41.170,-0.055,0.005,1.004
2026/05/07 08:38:41.190,-0.061,0.013,1.004
2026/05/07 08:38:41.209,-0.057,0.01,1.013
2026/05/07 08:38:41.229,-0.057,0.013,1.001
2026/05/07 08:38:41.249,-0.078,0.013,1.01
2026/05/07 08:38:41.269,-0.058,0.012,1.0
2026/05/07 08:38:41.289,-0.059,0.008,1.002
2026/05/07 08:38:41.308,-0.064,0.009,1.002
2026/05/07 08:38:41.328,-0.06,0.012,1.004
2026/05/07 08:38:41.348,-0.059,0.009,1.002
2026/05/07 08:38:41.368,-0.06,0.014,1.005
2026/05/07 08:38:41.388,-0.06,0.011,1.004
2026/05/07 08:38:41.407,-0.059,0.011,1.007
2026/05/07 08:38:41.427,-0.059,0.01,1.005
2026/05/07 08:38:41.447,-0.059,0.013,1.005
2026/05/07 08:38:41.467,-0.058,0.016,1.003
2026/05/07 08:38:41.486,-0.063,0.013,1.018
2026/05/07 08:38:41.506,-0.055,0.009,1.003
2026/05/07 08:38:41.526,-0.059,0.016,1.0
2026/05/07 08:38:41.546,-0.054,0.005,1.025
2026/05/07 08:38:41.566,-0.062,0.013,1.013
2026/05/07 08:38:41.585,-0.061,0.013,0.998
2026/05/07 08:38:41.605,-0.06,0.005,1.001
2026/05/07 08:38:41.625,-0.066,0.009,1.008
2026/05/07 08:38:41.645,-0.064,0.01,1.001
2026/05/07 08:38:41.665,-0.059,0.011,1.002
2026/05/07 08:38:41.684,-0.06,0.014,1.0
2026/05/07 08:38:41.704,-0.064,0.014,1.005
2026/05/07 08:38:41.724,-0.064,0.023,0.988
2026/05/07 08:38:41.744,-0.062,-0.001,1.027
2026/05/07 08:38:41.764,-0.056,0.007,1.009
2026/05/07 08:38:41.783,-0.057,0.014,0.994
2026/05/07 08:38:41.803,-0.059,0.009,1.005
2026/05/07 08:38:41.823,-0.059,0.017,1.001
2026/05/07 08:38:41.843,-0.061,0.009,1.002
2026/05/07 08:38:41.862,-0.062,0.014,1.002
2026/05/07 08:38:41.882,-0.063,0.013,1.002
2026/05/07 08:38:41.902,-0.06,0.011,1.0
2026/05/07 08:38:41.922,-0.061,0.011,1.006
2026/05/07 08:38:41.942,-0.06,0.012,1.008
2026/05/07 08:38:41.961,-0.06,0.013,1.004
2026/05/07 08:38:41.981,-0.056,0.016,1.001
2026/05/07 08:38:42.001,-0.06,0.009,1.005
2026/05/07 08:38:42.021,-0.06,0.012,1.003
2026/05/07 08:38:42.041,-0.061,0.011,1.0
2026/05/07 08:38:42.060,-0.062,0.011,0.998
2026/05/07 08:38:42.080,-0.06,0.009,1.006
2026/05/07 08:38:42.100,-0.063,0.014,1.0
2026/05/07 08:38:42.120,-0.064,0.01,1.001
2026/05/07 08:38:42.140,-0.061,0.013,1.002
2026/05/07 08:38:42.159,-0.061,0.013,1.0
2026/05/07 08:38:42.179,-0.056,0.01,1.006
2026/05/07 08:38:42.199,-0.06,0.011,1.002
2026/05/07 08:38:42.219,-0.06,0.011,1.001
2026/05/07 08:38:42.238,-0.057,0.015,1.002
2026/05/07 08:38:42.258,-0.061,0.012,1.004
2026/05/07 08:38:42.278,-0.06,0.008,1.002
2026/05/07 08:38:42.298,-0.061,0.013,1.004
2026/05/07 08:38:42.318,-0.061,0.016,1.003
2026/05/07 08:38:42.337,-0.06,0.015,1.001
2026/05/07 08:38:42.357,-0.052,0.014,0.988
2026/05/07 08:38:42.377,-0.062,0.008,1.006
2026/05/07 08:38:42.397,-0.064,0.012,1.006
2026/05/07 08:38:42.417,-0.057,0.014,0.997
2026/05/07 08:38:42.436,-0.058,0.012,0.999
2026/05/07 08:38:42.456,-0.059,0.012,1.005
2026/05/07 08:38:42.476,-0.062,0.01,1.004
2026/05/07 08:38:42.496,-0.058,0.01,1.004
2026/05/07 08:38:42.516,-0.061,0.019,1.001
2026/05/07 08:38:42.535,-0.06,0.012,1.002
2026/05/07 08:38:42.555,-0.063,0.015,1.004
2026/05/07 08:38:42.575,-0.062,0.012,1.006
2026/05/07 08:38:42.595,-0.06,0.012,1.004
2026/05/07 08:38:42.614,-0.062,0.014,1.0
2026/05/07 08:38:42.634,-0.06,0.014,1.003
2026/05/07 08:38:42.654,-0.06,0.014,1.003
2026/05/07 08:38:42.674,-0.063,0.013,1.001
2026/05/07 08:38:42.694,-0.063,0.016,1.001
2026/05/07 08:38:42.713,-0.062,0.017,1.004
2026/05/07 08:38:42.733,-0.062,0.013,1.006
2026/05/07 08:38:42.753,-0.059,0.013,1.003
2026/05/07 08:38:42.773,-0.062,0.01,1.004
2026/05/07 08:38:42.793,-0.062,0.01,1.002
2026/05/07 08:38:42.812,-0.06,0.01,1.004
2026/05/07 08:38:42.832,-0.063,0.014,1.005
2026/05/07 08:38:42.852,-0.061,0.009,1.005
2026/05/07 08:38:42.872,-0.063,0.012,1.006
2026/05/07 08:38:42.892,-0.061,0.01,0.998
2026/05/07 08:38:42.911,-0.064,0.01,1.0
2026/05/07 08:38:42.931,-0.057,0.011,1.001
2026/05/07 08:38:42.951,-0.062,0.013,1.004
2026/05/07 08:38:42.971,-0.06,0.013,1.002
2026/05/07 08:38:42.991,-0.067,0.012,1.007
2026/05/07 08:38:43.010,-0.055,0.012,1.002
2026/05/07 08:38:43.030,-0.058,0.015,1.004
2026/05/07 08:38:43.050,-0.058,0.011,1.006
2026/05/07 08:38:43.070,-0.057,0.015,0.997
2026/05/07 08:38:43.089,-0.046,0.031,1.05
2026/05/07 08:38:43.109,-0.057,0.016,0.99
2026/05/07 08:38:43.129,-0.065,0.01,1.006
2026/05/07 08:38:43.149,-0.056,0.026,0.989
2026/05/07 08:38:43.169,-0.055,0.011,1.011
2026/05/07 08:38:43.188,-0.059,0.015,1.001
2026/05/07 08:38:43.208,-0.061,0.007,1.005
2026/05/07 08:38:43.228,-0.065,0.018,0.994
2026/05/07 08:38:43.248,-0.068,0.011,1.003
2026/05/07 08:38:43.268,-0.056,0.018,1.003
2026/05/07 08:38:43.287,-0.07,0.015,1.019
2026/05/07 08:38:43.307,-0.066,0.009,1.012
2026/05/07 08:38:43.327,-0.062,0.013,1.005
2026/05/07 08:38:43.347,-0.063,0.017,0.993
2026/05/07 08:38:43.367,-0.067,0.021,1.011
2026/05/07 08:38:43.386,-0.063,0.007,1.016
2026/05/07 08:38:43.406,-0.059,0.012,0.999
2026/05/07 08:38:43.426,-0.057,0.011,1.004
2026/05/07 08:38:43.446,-0.06,0.014,1.001
2026/05/07 08:38:43.465,-0.063,0.009,1.004
2026/05/07 08:38:43.485,-0.063,0.01,1.014
2026/05/07 08:38:43.505,-0.057,0.012,1.0
2026/05/07 08:38:43.525,-0.057,0.013,1.001
2026/05/07 08:38:43.545,-0.063,0.01,1.002
2026/05/07 08:38:43.564,-0.06,0.01,1.017
2026/05/07 08:38:43.584,-0.064,0.012,1.002
2026/05/07 08:38:43.604,-0.062,0.009,0.998
2026/05/07 08:38:43.624,-0.062,0.01,1.01
2026/05/07 08:38:43.644,-0.06,0.018,1.001
2026/05/07 08:38:43.663,-0.059,0.012,1.0
2026/05/07 08:38:43.683,-0.062,0.009,1.006
2026/05/07 08:38:43.703,-0.059,0.015,0.997
2026/05/07 08:38:43.723,-0.062,0.016,1.005
2026/05/07 08:38:43.743,-0.059,0.013,0.998
2026/05/07 08:38:43.762,-0.062,0.011,1.006
2026/05/07 08:38:43.782,-0.058,0.011,0.995
2026/05/07 08:38:43.802,-0.06,0.013,1.006
2026/05/07 08:38:43.822,-0.061,0.016,1.006
2026/05/07 08:38:43.842,-0.063,0.009,1.002
2026/05/07 08:38:43.861,-0.062,0.011,1.008
2026/05/07 08:38:43.881,-0.063,0.009,1.003
2026/05/07 08:38:43.901,-0.062,0.01,1.005
2026/05/07 08:38:43.921,-0.064,0.012,1.0
2026/05/07 08:38:43.940,-0.059,0.016,1.003
2026/05/07 08:38:43.960,-0.063,0.017,1.0
2026/05/07 08:38:43.980,-0.059,0.01,1.003
2026/05/07 08:38:44.000,-0.06,0.016,1.003
2026/05/07 08:38:44.020,-0.06,0.012,1.002
2026/05/07 08:38:44.039,-0.06,0.012,1.004
2026/05/07 08:38:44.059,-0.062,0.013,1.005
2026/05/07 08:38:44.079,-0.064,0.013,1.002
2026/05/07 08:38:44.099,-0.062,0.013,1.002
2026/05/07 08:38:44.119,-0.061,0.009,1.0
2026/05/07 08:38:44.138,-0.06,0.014,1.003
2026/05/07 08:38:44.158,-0.06,0.011,1.005
2026/05/07 08:38:44.178,-0.06,0.008,1.003
2026/05/07 08:38:44.198,-0.062,0.011,1.004
2026/05/07 08:38:44.218,-0.059,0.012,1.001
2026/05/07 08:38:44.237,-0.064,0.017,1.002
2026/05/07 08:38:44.257,-0.061,0.01,0.998
2026/05/07 08:38:44.277,-0.064,0.012,1.002
2026/05/07 08:38:44.297,-0.057,0.016,0.996
2026/05/07 08:38:44.316,-0.062,0.008,1.001
2026/05/07 08:38:44.336,-0.064,0.012,1.0
2026/05/07 08:38:44.356,-0.063,0.009,1.006
2026/05/07 08:38:44.376,-0.061,0.014,1.005
2026/05/07 08:38:44.396,-0.061,0.017,1.002
2026/05/07 08:38:44.415,-0.06,0.01,1.001
2026/05/07 08:38:44.435,-0.061,0.013,1.002
2026/05/07 08:38:44.455,-0.06,0.014,1.002
2026/05/07 08:38:44.475,-0.063,0.014,1.003
2026/05/07 08:38:44.495,-0.062,0.009,1.003
2026/05/07 08:38:44.514,-0.062,0.013,1.004
2026/05/07 08:38:44.534,-0.058,0.009,1.005
2026/05/07 08:38:44.554,-0.061,0.01,1.002
2026/05/07 08:38:44.574,-0.058,0.014,1.003
2026/05/07 08:38:44.594,-0.063,0.016,1.003
2026/05/07 08:38:44.613,-0.063,0.014,1.002
2026/05/07 08:38:44.633,-0.063,0.012,1.005
2026/05/07 08:38:44.653,-0.062,0.01,1.004
2026/05/07 08:38:44.673,-0.062,0.013,1.001
2026/05/07 08:38:44.693,-0.061,0.015,1.003
2026/05/07 08:38:44.712,-0.062,0.011,1.002
2026/05/07 08:38:44.732,-0.06,0.013,1.002
2026/05/07 08:38:44.752,-0.064,0.009,1.0
2026/05/07 08:38:44.772,-0.061,0.016,1.007
2026/05/07 08:38:44.791,-0.062,0.011,1.004
2026/05/07 08:38:44.811,-0.06,0.014,1.004
2026/05/07 08:38:44.831,-0.063,0.007,1.001
2026/05/07 08:38:44.851,-0.061,0.016,1.007
2026/05/07 08:38:44.871,-0.064,0.013,1.001
2026/05/07 08:38:44.890,-0.059,0.009,1.006
2026/05/07 08:38:44.910,-0.06,0.011,1.004
2026/05/07 08:38:44.930,-0.062,0.018,1.0
2026/05/07 08:38:44.950,-0.059,0.016,1.04
2026/05/07 08:38:44.970,-0.06,0.014,0.997
2026/05/07 08:38:44.989,-0.064,0.012,0.999
2026/05/07 08:38:45.009,-0.061,0.01,1.002
2026/05/07 08:38:45.029,-0.061,0.013,1.004
2026/05/07 08:38:45.049,-0.06,0.015,1.003
2026/05/07 08:38:45.069,-0.057,0.013,1.003
2026/05/07 08:38:45.088,-0.065,0.012,1.029
2026/05/07 08:38:45.108,-0.06,0.012,1.0
2026/05/07 08:38:45.128,-0.059,0.013,1.005
2026/05/07 08:38:45.148,-0.063,0.011,1.003
2026/05/07 08:38:45.168,-0.06,0.014,1.001
2026/05/07 08:38:45.187,-0.063,0.014,1.0
2026/05/07 08:38:45.207,-0.06,0.011,1.003
2026/05/07 08:38:45.227,-0.059,0.012,1.004
2026/05/07 08:38:45.247,-0.06,0.011,1.005
2026/05/07 08:38:45.266,-0.062,0.014,1.002
2026/05/07 08:38:45.286,-0.06,0.009,1.004
2026/05/07 08:38:45.306,-0.058,0.01,1.002
2026/05/07 08:38:45.326,-0.061,0.01,1.001
2026/05/07 08:38:45.346,-0.064,0.013,1.003
2026/05/07 08:38:45.365,-0.059,0.016,1.003
2026/05/07 08:38:45.385,-0.061,0.014,1.006
2026/05/07 08:38:45.405,-0.061,0.014,1.01
2026/05/07 08:38:45.425,-0.062,0.01,1.008
2026/05/07 08:38:45.445,-0.058,0.017,1.007
2026/05/07 08:38:45.464,-0.053,0.017,1.006
2026/05/07 08:38:45.484,-0.058,0.017,0.99
2026/05/07 08:38:45.504,-0.063,0.011,1.013
2026/05/07 08:38:45.524,-0.059,0.014,1.004
2026/05/07 08:38:45.544,-0.062,0.019,0.976
2026/05/07 08:38:45.563,-0.06,0.011,1.003
2026/05/07 08:38:45.583,-0.057,0.019,0.998
2026/05/07 08:38:45.603,-0.058,0.009,1.006
2026/05/07 08:38:45.623,-0.069,0.015,1.036
2026/05/07 08:38:45.643,-0.062,0.014,1.012
2026/05/07 08:38:45.662,-0.06,0.016,0.999
2026/05/07 08:38:45.682,-0.065,0.012,1.011
2026/05/07 08:38:45.702,-0.058,0.014,1.004
2026/05/07 08:38:45.722,-0.062,0.017,1.005
2026/05/07 08:38:45.741,-0.064,0.012,1.0
2026/05/07 08:38:45.761,-0.061,0.013,1.0
2026/05/07 08:38:45.781,-0.063,0.011,1.001
2026/05/07 08:38:45.801,-0.06,0.014,1.005
2026/05/07 08:38:45.821,-0.06,0.014,1.006
2026/05/07 08:38:45.840,-0.058,0.01,1.007
2026/05/07 08:38:45.860,-0.061,0.009,0.997
2026/05/07 08:38:45.880,-0.062,0.008,1.002
2026/05/07 08:38:45.900,-0.061,0.01,1.0
2026/05/07 08:38:45.920,-0.061,0.013,1.003
2026/05/07 08:38:45.939,-0.061,0.011,0.998
2026/05/07 08:38:45.959,-0.058,0.011,1.006
2026/05/07 08:38:45.979,-0.063,0.013,1.003
2026/05/07 08:38:45.999,-0.059,0.011,0.995
2026/05/07 08:38:46.019,-0.062,0.011,1.002
2026/05/07 08:38:46.038,-0.06,0.017,1.007
2026/05/07 08:38:46.058,-0.06,0.012,1.01
2026/05/07 08:38:46.078,-0.06,0.013,1.001
2026/05/07 08:38:46.098,-0.06,0.014,1.0
2026/05/07 08:38:46.118,-0.06,0.013,1.005
2026/05/07 08:38:46.137,-0.06,0.009,0.997
2026/05/07 08:38:46.157,-0.06,0.011,1.005
2026/05/07 08:38:46.177,-0.058,0.009,1.0
2026/05/07 08:38:46.197,-0.062,0.015,1.002
2026/05/07 08:38:46.216,-0.06,0.01,1.001
2026/05/07 08:38:46.236,-0.062,0.015,1.007
2026/05/07 08:38:46.256,-0.06,0.015,1.0
2026/05/07 08:38:46.276,-0.06,0.009,0.998
2026/05/07 08:38:46.296,-0.059,0.012,1.0
2026/05/07 08:38:46.315,-0.06,0.014,1.005
2026/05/07 08:38:46.335,-0.06,0.009,1.004
2026/05/07 08:38:46.355,-0.063,0.012,1.006
2026/05/07 08:38:46.375,-0.063,0.009,1.0
2026/05/07 08:38:46.395,-0.061,0.012,1.002
2026/05/07 08:38:46.414,-0.059,0.015,1.003
2026/05/07 08:38:46.434,-0.062,0.011,1.005
2026/05/07 08:38:46.454,-0.059,0.013,1.004
2026/05/07 08:38:46.474,-0.061,0.011,1.006
2026/05/07 08:38:46.494,-0.061,0.01,1.006
2026/05/07 08:38:46.513,-0.06,0.018,1.003
2026/05/07 08:38:46.533,-0.061,0.014,1.002
2026/05/07 08:38:46.553,-0.06,0.014,1.003
2026/05/07 08:38:46.573,-0.056,0.012,1.003
2026/05/07 08:38:46.593,-0.061,0.014,1.003
2026/05/07 08:38:46.612,-0.062,0.011,1.005
2026/05/07 08:38:46.632,-0.059,0.01,1.003
2026/05/07 08:38:46.652,-0.059,0.01,1.001
2026/05/07 08:38:46.672,-0.059,0.012,1.0
2026/05/07 08:38:46.691,-0.061,0.012,0.998
2026/05/07 08:38:46.711,-0.06,0.01,1.0
2026/05/07 08:38:46.731,-0.061,0.007,1.006
2026/05/07 08:38:46.751,-0.061,0.011,1.002
2026/05/07 08:38:46.771,-0.062,0.012,0.998
2026/05/07 08:38:46.790,-0.061,0.012,1.005
2026/05/07 08:38:46.810,-0.063,0.01,1.005
2026/05/07 08:38:46.830,-0.06,0.012,1.004
2026/05/07 08:38:46.850,-0.057,0.012,1.003
2026/05/07 08:38:46.870,-0.061,0.014,0.999
2026/05/07 08:38:46.889,-0.062,0.014,1.001
2026/05/07 08:38:46.909,-0.064,0.009,1.003
2026/05/07 08:38:46.929,-0.061,0.012,1.003
2026/05/07 08:38:46.949,-0.062,0.01,1.002
2026/05/07 08:38:46.969,-0.062,0.012,1.004
2026/05/07 08:38:46.988,-0.06,0.013,1.005
2026/05/07 08:38:47.008,-0.06,0.017,1.006
2026/05/07 08:38:47.028,-0.062,0.01,1.005
2026/05/07 08:38:47.048,-0.061,0.013,1.001
2026/05/07 08:38:47.068,-0.061,0.013,1.001
2026/05/07 08:38:47.087,-0.063,0.012,1.001
2026/05/07 08:38:47.107,-0.063,0.013,1.001
2026/05/07 08:38:47.127,-0.058,0.013,1.001
2026/05/07 08:38:47.147,-0.062,0.017,1.004
2026/05/07 08:38:47.166,-0.064,0.014,1.002
2026/05/07 08:38:47.186,-0.059,0.014,1.003
2026/05/07 08:38:47.206,-0.062,0.014,1.003
2026/05/07 08:38:47.226,-0.063,0.014,1.002
2026/05/07 08:38:47.246,-0.059,0.015,1.006
2026/05/07 08:38:47.265,-0.06,0.013,1.003
2026/05/07 08:38:47.285,-0.06,0.013,1.003
2026/05/07 08:38:47.305,-0.061,0.009,1.003
2026/05/07 08:38:47.325,-0.063,0.012,1.002
2026/05/07 08:38:47.345,-0.061,0.015,1.004
2026/05/07 08:38:47.364,-0.061,0.012,1.006
2026/05/07 08:38:47.384,-0.061,0.009,1.004
2026/05/07 08:38:47.404,-0.059,0.01,1.004
2026/05/07 08:38:47.424,-0.058,0.01,0.999
2026/05/07 08:38:47.444,-0.063,0.012,0.998
2026/05/07 08:38:47.463,-0.06,0.009,1.009
2026/05/07 08:38:47.483,-0.062,0.015,1.002
2026/05/07 08:38:47.503,-0.064,0.012,0.999
2026/05/07 08:38:47.523,-0.063,0.011,1.002
2026/05/07 08:38:47.543,-0.049,0.003,0.96
2026/05/07 08:38:47.562,-0.063,0.011,1.004
2026/05/07 08:38:47.582,-0.062,0.011,1.009
2026/05/07 08:38:47.602,-0.051,0.01,0.991
2026/05/07 08:38:47.622,-0.07,0.02,0.964
2026/05/07 08:38:47.641,-0.066,0.01,1.023
2026/05/07 08:38:47.661,-0.057,0.011,1.001
2026/05/07 08:38:47.681,-0.058,0.011,0.998
2026/05/07 08:38:47.701,-0.061,0.013,0.999
2026/05/07 08:38:47.721,-0.06,0.014,1.001
2026/05/07 08:38:47.740,-0.061,0.013,0.999
2026/05/07 08:38:47.760,-0.061,0.01,1.002
2026/05/07 08:38:47.780,-0.062,0.01,1.003
2026/05/07 08:38:47.800,-0.059,0.009,1.003
2026/05/07 08:38:47.820,-0.064,0.012,1.004
2026/05/07 08:38:47.839,-0.066,0.01,1.007
2026/05/07 08:38:47.859,-0.06,0.011,1.005
2026/05/07 08:38:47.879,-0.058,0.012,1.006
2026/05/07 08:38:47.899,-0.056,0.007,1.005
2026/05/07 08:38:47.919,-0.061,0.013,1.003
2026/05/07 08:38:47.938,-0.063,0.012,1.007
2026/05/07 08:38:47.958,-0.06,0.015,1.002
2026/05/07 08:38:47.978,-0.06,0.014,1.0
2026/05/07 08:38:47.998,-0.064,0.011,1.007
2026/05/07 08:38:48.017,-0.068,0.017,1.002
2026/05/07 08:38:48.037,-0.064,0.014,1.009
2026/05/07 08:38:48.057,-0.066,0.012,1.011
2026/05/07 08:38:48.077,-0.06,0.011,0.999
2026/05/07 08:38:48.097,-0.064,0.012,1.001
2026/05/07 08:38:48.116,-0.06,0.011,1.003
2026/05/07 08:38:48.136,-0.06,0.009,1.002
2026/05/07 08:38:48.156,-0.059,0.007,1.005
2026/05/07 08:38:48.176,-0.062,0.013,1.005
2026/05/07 08:38:48.196,-0.059,0.015,1.003
2026/05/07 08:38:48.215,-0.062,0.009,1.002
2026/05/07 08:38:48.235,-0.062,0.016,1.007
2026/05/07 08:38:48.255,-0.061,0.016,1.003
2026/05/07 08:38:48.275,-0.063,0.013,1.004
2026/05/07 08:38:48.295,-0.061,0.011,1.003
2026/05/07 08:38:48.314,-0.058,0.012,1.003
2026/05/07 08:38:48.334,-0.065,0.012,1.007
2026/05/07 08:38:48.354,-0.061,0.011,0.999
2026/05/07 08:38:48.374,-0.06,0.01,1.007
2026/05/07 08:38:48.394,-0.063,0.013,1.0
2026/05/07 08:38:48.413,-0.059,0.011,1.004
2026/05/07 08:38:48.433,-0.058,0.012,1.003
2026/05/07 08:38:48.453,-0.057,0.012,1.006
2026/05/07 08:38:48.473,-0.062,0.011,0.998
2026/05/07 08:38:48.492,-0.064,0.012,1.006
2026/05/07 08:38:48.512,-0.063,0.014,0.998
2026/05/07 08:38:48.532,-0.06,0.01,0.999
2026/05/07 08:38:48.552,-0.062,0.015,1.003
2026/05/07 08:38:48.572,-0.062,0.014,1.003
2026/05/07 08:38:48.591,-0.062,0.012,0.999
2026/05/07 08:38:48.611,-0.061,0.014,1.005
2026/05/07 08:38:48.631,-0.059,0.012,1.003
2026/05/07 08:38:48.651,-0.059,0.012,0.999
2026/05/07 08:38:48.671,-0.064,0.013,1.003
2026/05/07 08:38:48.690,-0.063,0.009,1.001
2026/05/07 08:38:48.710,-0.06,0.014,1.003
2026/05/07 08:38:48.730,-0.059,0.011,1.0
2026/05/07 08:38:48.750,-0.062,0.01,1.002
2026/05/07 08:38:48.770,-0.061,0.014,1.004
2026/05/07 08:38:48.789,-0.063,0.009,1.002
2026/05/07 08:38:48.809,-0.06,0.01,1.006
2026/05/07 08:38:48.829,-0.06,0.009,1.0
2026/05/07 08:38:48.849,-0.06,0.009,1.005
2026/05/07 08:38:48.868,-0.06,0.009,1.006
2026/05/07 08:38:48.888,-0.062,0.009,1.004
2026/05/07 08:38:48.908,-0.062,0.018,1.004
2026/05/07 08:38:48.928,-0.06,0.015,0.998
2026/05/07 08:38:48.948,-0.067,0.012,1.004
2026/05/07 08:38:48.967,-0.059,0.012,1.002
2026/05/07 08:38:48.987,-0.059,0.01,1.001
2026/05/07 08:38:49.007,-0.059,0.014,1.003
2026/05/07 08:38:49.027,-0.061,0.009,1.004
2026/05/07 08:38:49.047,-0.063,0.012,1.002
2026/05/07 08:38:49.066,-0.063,0.015,1.0
2026/05/07 08:38:49.086,-0.06,0.012,1.005
2026/05/07 08:38:49.106,-0.062,0.009,1.003
2026/05/07 08:38:49.126,-0.063,0.014,1.002
2026/05/07 08:38:49.146,-0.06,0.011,1.002
2026/05/07 08:38:49.165,-0.061,0.011,1.004
2026/05/07 08:38:49.185,-0.062,0.011,1.007
2026/05/07 08:38:49.205,-0.06,0.011,1.005
2026/05/07 08:38:49.225,-0.058,0.014,1.0
2026/05/07 08:38:49.244,-0.061,0.013,1.001
2026/05/07 08:38:49.264,-0.061,0.01,1.001
2026/05/07 08:38:49.284,-0.062,0.012,1.004
2026/05/07 08:38:49.304,-0.06,0.016,1.004
2026/05/07 08:38:49.324,-0.061,0.014,1.001
2026/05/07 08:38:49.343,-0.059,0.013,1.005
2026/05/07 08:38:49.363,-0.064,0.01,1.005
2026/05/07 08:38:49.383,-0.059,0.008,1.001
2026/05/07 08:38:49.403,-0.059,0.011,1.0
2026/05/07 08:38:49.423,-0.06,0.011,1.003
2026/05/07 08:38:49.442,-0.059,0.014,1.004
2026/05/07 08:38:49.462,-0.062,0.01,1.003
2026/05/07 08:38:49.482,-0.06,0.014,1.004
2026/05/07 08:38:49.502,-0.061,0.011,1.006
2026/05/07 08:38:49.522,-0.06,0.015,1.0
2026/05/07 08:38:49.541,-0.064,0.01,1.002
2026/05/07 08:38:49.561,-0.06,0.016,1.004
2026/05/07 08:38:49.581,-0.064,0.014,1.002
2026/05/07 08:38:49.601,-0.061,0.014,1.004
2026/05/07 08:38:49.621,-0.064,0.01,0.998
2026/05/07 08:38:49.640,-0.06,0.014,1.004
2026/05/07 08:38:49.660,-0.062,0.011,1.006
2026/05/07 08:38:49.680,-0.056,0.014,1.002
2026/05/07 08:38:49.700,-0.059,0.009,1.004
2026/05/07 08:38:49.719,-0.057,0.008,1.008
2026/05/07 08:38:49.739,-0.063,0.012,0.998
2026/05/07 08:38:49.759,-0.061,0.015,0.998
2026/05/07 08:38:49.779,-0.066,0.013,1.029
2026/05/07 08:38:49.799,-0.059,0.021,0.975
2026/05/07 08:38:49.818,-0.072,0.011,0.997
2026/05/07 08:38:49.838,-0.067,0.011,1.025
2026/05/07 08:38:49.858,-0.056,0.013,0.989
2026/05/07 08:38:49.878,-0.059,0.015,0.992
2026/05/07 08:38:49.898,-0.059,0.01,1.006
2026/05/07 08:38:49.917,-0.059,0.015,1.004
2026/05/07 08:38:49.937,-0.063,0.011,0.996
2026/05/07 08:38:49.957,-0.059,0.017,1.015
2026/05/07 08:38:49.977,-0.061,0.01,0.999
2026/05/07 08:38:49.997,-0.061,0.011,1.005
2026/05/07 08:38:50.016,-0.061,0.009,1.009
2026/05/07 08:38:50.036,-0.064,0.013,0.998
2026/05/07 08:38:50.056,-0.06,0.012,1.006
2026/05/07 08:38:50.076,-0.06,0.016,1.0
2026/05/07 08:38:50.096,-0.061,0.007,1.002
2026/05/07 08:38:50.115,-0.062,0.013,1.004
2026/05/07 08:38:50.135,-0.063,0.01,1.001
2026/05/07 08:38:50.155,-0.059,0.012,1.006
2026/05/07 08:38:50.175,-0.06,0.013,1.0
2026/05/07 08:38:50.194,-0.061,0.012,1.006
2026/05/07 08:38:50.214,-0.059,0.013,1.004
2026/05/07 08:38:50.234,-0.062,0.013,1.002
2026/05/07 08:38:50.254,-0.062,0.01,1.009
2026/05/07 08:38:50.274,-0.059,0.015,1.0
2026/05/07 08:38:50.293,-0.06,0.011,1.003
2026/05/07 08:38:50.313,-0.057,0.014,1.007
2026/05/07 08:38:50.333,-0.067,0.012,0.996
2026/05/07 08:38:50.353,-0.056,0.009,0.997
2026/05/07 08:38:50.373,-0.062,0.013,0.999
2026/05/07 08:38:50.392,-0.061,0.007,1.001
2026/05/07 08:38:50.412,-0.066,0.011,1.004
2026/05/07 08:38:50.432,-0.059,0.017,1.01
2026/05/07 08:38:50.452,-0.058,0.013,0.998
2026/05/07 08:38:50.472,-0.063,0.009,1.001
2026/05/07 08:38:50.491,-0.059,0.015,1.002
2026/05/07 08:38:50.511,-0.06,0.011,1.003
2026/05/07 08:38:50.531,-0.059,0.011,1.004
2026/05/07 08:38:50.551,-0.06,0.012,0.999
2026/05/07 08:38:50.571,-0.059,0.012,1.003
2026/05/07 08:38:50.590,-0.06,0.009,1.005
2026/05/07 08:38:50.610,-0.064,0.012,1.0
2026/05/07 08:38:50.630,-0.06,0.014,1.007
2026/05/07 08:38:50.650,-0.06,0.012,1.006
2026/05/07 08:38:50.669,-0.059,0.01,1.003
2026/05/07 08:38:50.689,-0.063,0.009,1.001
2026/05/07 08:38:50.709,-0.062,0.012,1.001
2026/05/07 08:38:50.729,-0.061,0.013,1.002
2026/05/07 08:38:50.749,-0.064,0.008,1.003
2026/05/07 08:38:50.768,-0.057,0.012,1.001
2026/05/07 08:38:50.788,-0.064,0.011,1.004
2026/05/07 08:38:50.808,-0.061,0.014,1.002
2026/05/07 08:38:50.828,-0.063,0.011,1.005
2026/05/07 08:38:50.848,-0.059,0.012,1.006
2026/05/07 08:38:50.867,-0.065,0.017,0.999
2026/05/07 08:38:50.887,-0.062,0.015,1.004
2026/05/07 08:38:50.907,-0.061,0.01,1.003
2026/05/07 08:38:50.927,-0.058,0.014,1.0
2026/05/07 08:38:50.947,-0.061,0.008,1.006
2026/05/07 08:38:50.966,-0.063,0.012,1.002
2026/05/07 08:38:50.986,-0.062,0.012,1.0
2026/05/07 08:38:51.006,-0.06,0.011,1.004
2026/05/07 08:38:51.026,-0.057,0.012,1.003
2026/05/07 08:38:51.046,-0.062,0.013,1.004
2026/05/07 08:38:51.065,-0.059,0.012,1.001
2026/05/07 08:38:51.085,-0.061,0.012,1.005
2026/05/07 08:38:51.105,-0.06,0.011,1.004
2026/05/07 08:38:51.125,-0.062,0.01,0.997
2026/05/07 08:38:51.145,-0.059,0.01,0.999
2026/05/07 08:38:51.164,-0.06,0.013,1.007
2026/05/07 08:38:51.184,-0.06,0.013,1.004
2026/05/07 08:38:51.204,-0.06,0.011,1.006
2026/05/07 08:38:51.224,-0.06,0.013,1.002
2026/05/07 08:38:51.243,-0.061,0.012,1.003
2026/05/07 08:38:51.263,-0.062,0.009,1.003
2026/05/07 08:38:51.283,-0.062,0.016,1.003
2026/05/07 08:38:51.303,-0.066,0.017,1.011
2026/05/07 08:38:51.323,-0.058,0.018,0.987
2026/05/07 08:38:51.342,-0.066,0.013,1.006
2026/05/07 08:38:51.362,-0.061,0.011,1.002
2026/05/07 08:38:51.382,-0.06,0.011,0.999
2026/05/07 08:38:51.402,-0.06,0.015,1.002
2026/05/07 08:38:51.422,-0.063,0.012,1.01
2026/05/07 08:38:51.441,-0.061,0.014,0.998
2026/05/07 08:38:51.461,-0.063,0.014,0.999
2026/05/07 08:38:51.481,-0.059,0.011,1.006
2026/05/07 08:38:51.501,-0.058,0.014,1.001
2026/05/07 08:38:51.521,-0.062,0.012,1.002
2026/05/07 08:38:51.540,-0.059,0.013,1.005
2026/05/07 08:38:51.560,-0.061,0.007,1.003
2026/05/07 08:38:51.580,-0.06,0.012,1.003
2026/05/07 08:38:51.600,-0.061,0.014,1.002
2026/05/07 08:38:51.620,-0.058,0.013,1.005
2026/05/07 08:38:51.639,-0.061,0.009,1.001
2026/05/07 08:38:51.659,-0.058,0.015,1.002
2026/05/07 08:38:51.679,-0.069,0.009,1.007
2026/05/07 08:38:51.699,-0.065,0.011,0.999
2026/05/07 08:38:51.718,-0.059,0.011,1.012
2026/05/07 08:38:51.738,-0.059,0.009,1.001
2026/05/07 08:38:51.758,-0.06,0.012,0.998
2026/05/07 08:38:51.778,-0.058,0.01,1.002
2026/05/07 08:38:51.798,-0.067,0.007,0.993
2026/05/07 08:38:51.817,-0.062,0.011,1.0
2026/05/07 08:38:51.837,-0.06,0.014,1.023
2026/05/07 08:38:51.857,-0.064,0.009,0.999
2026/05/07 08:38:51.877,-0.061,0.013,1.007
2026/05/07 08:38:51.897,-0.061,0.014,1.01
2026/05/07 08:38:51.916,-0.063,0.011,1.007
2026/05/07 08:38:51.936,-0.065,0.013,0.985
2026/05/07 08:38:51.956,-0.067,0.01,1.007
2026/05/07 08:38:51.976,-0.063,0.013,1.003
2026/05/07 08:38:51.996,-0.063,0.014,1.005
2026/05/07 08:38:52.015,-0.061,0.012,0.999
2026/05/07 08:38:52.035,-0.066,0.01,1.0
2026/05/07 08:38:52.055,-0.06,0.012,1.001
2026/05/07 08:38:52.075,-0.06,0.009,1.003
2026/05/07 08:38:52.095,-0.061,0.012,1.004
2026/05/07 08:38:52.114,-0.059,0.013,1.003
2026/05/07 08:38:52.134,-0.058,0.013,0.997
2026/05/07 08:38:52.154,-0.061,0.012,1.005
2026/05/07 08:38:52.174,-0.059,0.012,1.002
2026/05/07 08:38:52.193,-0.063,0.014,0.999
2026/05/07 08:38:52.213,-0.059,0.015,1.004
2026/05/07 08:38:52.233,-0.059,0.013,1.0
2026/05/07 08:38:52.253,-0.063,0.011,1.005
2026/05/07 08:38:52.273,-0.059,0.011,1.002
2026/05/07 08:38:52.292,-0.059,0.012,1.002
2026/05/07 08:38:52.312,-0.063,0.012,1.007
2026/05/07 08:38:52.332,-0.058,0.012,1.003
2026/05/07 08:38:52.352,-0.045,-0.009,1.045
2026/05/07 08:38:52.372,-0.058,0.012,1.013
2026/05/07 08:38:52.391,-0.058,0.01,1.001
2026/05/07 08:38:52.411,-0.061,0.009,1.009
2026/05/07 08:38:52.431,-0.063,0.012,0.999
2026/05/07 08:38:52.451,-0.065,0.009,1.006
2026/05/07 08:38:52.471,-0.06,0.013,1.0
2026/05/07 08:38:52.490,-0.06,0.013,1.006
2026/05/07 08:38:52.510,-0.06,0.013,1.009
2026/05/07 08:38:52.530,-0.061,0.012,0.998
2026/05/07 08:38:52.550,-0.061,0.014,1.0
2026/05/07 08:38:52.570,-0.06,0.012,1.004
2026/05/07 08:38:52.589,-0.064,0.01,1.0
2026/05/07 08:38:52.609,-0.064,0.01,0.996
2026/05/07 08:38:52.629,-0.063,0.01,0.998
2026/05/07 08:38:52.649,-0.06,0.011,0.998
2026/05/07 08:38:52.669,-0.06,0.014,1.005
2026/05/07 08:38:52.688,-0.061,0.015,0.996
2026/05/07 08:38:52.708,-0.062,0.014,1.009
2026/05/07 08:38:52.728,-0.063,0.014,0.992
2026/05/07 08:38:52.748,-0.063,0.01,1.002
2026/05/07 08:38:52.767,-0.06,0.013,1.006
2026/05/07 08:38:52.787,-0.058,0.015,1.004
2026/05/07 08:38:52.807,-0.063,0.014,1.004
2026/05/07 08:38:52.827,-0.058,0.014,1.006
2026/05/07 08:38:52.847,-0.06,0.013,1.004
2026/05/07 08:38:52.866,-0.059,0.014,1.007
2026/05/07 08:38:52.886,-0.059,0.007,1.001
2026/05/07 08:38:52.906,-0.064,0.015,0.999
2026/05/07 08:38:52.926,-0.06,0.014,0.999
2026/05/07 08:38:52.946,-0.06,0.014,1.002
2026/05/07 08:38:52.965,-0.061,0.011,1.001
2026/05/07 08:38:52.985,-0.058,0.01,1.002
2026/05/07 08:38:53.005,-0.061,0.011,1.001
2026/05/07 08:38:53.025,-0.06,0.009,1.004
2026/05/07 08:38:53.045,-0.063,0.01,1.005
2026/05/07 08:38:53.064,-0.064,0.011,1.005
2026/05/07 08:38:53.084,-0.061,0.012,1.003
2026/05/07 08:38:53.104,-0.065,0.018,1.002
2026/05/07 08:38:53.124,-0.063,0.014,0.998
2026/05/07 08:38:53.144,-0.062,0.009,0.999
2026/05/07 08:38:53.163,-0.061,0.015,1.002
2026/05/07 08:38:53.183,-0.063,0.016,1.003
2026/05/07 08:38:53.203,-0.06,0.012,1.006
2026/05/07 08:38:53.223,-0.061,0.012,1.003
2026/05/07 08:38:53.242,-0.063,0.012,1.0
2026/05/07 08:38:53.262,-0.06,0.012,1.004
2026/05/07 08:38:53.282,-0.059,0.012,1.001
2026/05/07 08:38:53.302,-0.059,0.01,1.002
2026/05/07 08:38:53.322,-0.06,0.013,1.003
2026/05/07 08:38:53.341,-0.064,0.013,1.002
2026/05/07 08:38:53.361,-0.059,0.016,0.996
2026/05/07 08:38:53.381,-0.062,0.012,1.0
2026/05/07 08:38:53.401,-0.064,0.016,1.003
2026/05/07 08:38:53.421,-0.061,0.012,1.002
2026/05/07 08:38:53.440,-0.059,0.01,1.002
2026/05/07 08:38:53.460,-0.06,0.014,1.008
2026/05/07 08:38:53.480,-0.063,0.019,1.005
2026/05/07 08:38:53.500,-0.062,0.01,1.004
2026/05/07 08:38:53.520,-0.059,0.012,1.003
2026/05/07 08:38:53.539,-0.062,0.014,1.006
2026/05/07 08:38:53.559,-0.061,0.011,1.002
2026/05/07 08:38:53.579,-0.064,0.009,1.002
2026/05/07 08:38:53.599,-0.064,0.009,1.001
2026/05/07 08:38:53.619,-0.061,0.01,1.003
2026/05/07 08:38:53.638,-0.061,0.01,1.005
2026/05/07 08:38:53.658,-0.058,0.009,1.002
2026/05/07 08:38:53.678,-0.061,0.015,1.002
2026/05/07 08:38:53.698,-0.059,0.011,1.007
2026/05/07 08:38:53.718,-0.062,0.014,1.001
2026/05/07 08:38:53.737,-0.065,0.009,0.999
2026/05/07 08:38:53.757,-0.059,0.013,1.006
2026/05/07 08:38:53.777,-0.059,0.013,0.998
2026/05/07 08:38:53.797,-0.064,0.011,0.997
2026/05/07 08:38:53.816,-0.061,0.013,1.002
2026/05/07 08:38:53.836,-0.062,0.01,1.001
2026/05/07 08:38:53.856,-0.06,0.012,1.003
2026/05/07 08:38:53.876,-0.059,0.015,1.004
2026/05/07 08:38:53.896,-0.059,0.008,1.006
2026/05/07 08:38:53.915,-0.062,0.011,1.004
2026/05/07 08:38:53.935,-0.059,0.013,1.004
2026/05/07 08:38:53.955,-0.059,0.01,1.0
2026/05/07 08:38:53.975,-0.06,0.014,1.008
2026/05/07 08:38:53.995,-0.063,0.012,1.001
2026/05/07 08:38:54.014,-0.063,0.01,1.001
2026/05/07 08:38:54.034,-0.061,0.012,1.003
2026/05/07 08:38:54.054,-0.06,0.012,1.006
2026/05/07 08:38:54.074,-0.064,0.016,1.014
2026/05/07 08:38:54.094,-0.058,0.015,0.997
2026/05/07 08:38:54.113,-0.059,0.012,0.992
2026/05/07 08:38:54.133,-0.06,0.011,1.006
2026/05/07 08:38:54.153,-0.06,0.011,1.002
2026/05/07 08:38:54.173,-0.059,0.017,1.0
2026/05/07 08:38:54.193,-0.06,0.012,1.004
2026/05/07 08:38:54.212,-0.063,0.014,1.0
2026/05/07 08:38:54.232,-0.063,0.01,1.01
2026/05/07 08:38:54.252,-0.06,0.013,1.005
2026/05/07 08:38:54.272,-0.059,0.008,1.003
2026/05/07 08:38:54.291,-0.064,0.012,1.001
2026/05/07 08:38:54.311,-0.06,0.01,1.007
2026/05/07 08:38:54.331,-0.059,0.012,1.0
2026/05/07 08:38:54.351,-0.061,0.014,1.005
2026/05/07 08:38:54.371,-0.061,0.008,1.001
2026/05/07 08:38:54.390,-0.061,0.013,1.0
2026/05/07 08:38:54.410,-0.06,0.011,0.998
2026/05/07 08:38:54.430,-0.061,0.011,1.006
2026/05/07 08:38:54.450,-0.058,0.013,1.005
2026/05/07 08:38:54.470,-0.063,0.01,1.002
2026/05/07 08:38:54.489,-0.059,0.013,1.002
2026/05/07 08:38:54.509,-0.065,0.011,1.003
2026/05/07 08:38:54.529,-0.062,0.01,1.005
2026/05/07 08:38:54.549,-0.062,0.011,1.003
2026/05/07 08:38:54.569,-0.064,0.012,1.001
2026/05/07 08:38:54.588,-0.063,0.014,1.001
2026/05/07 08:38:54.608,-0.061,0.011,0.997
2026/05/07 08:38:54.628,-0.061,0.009,1.013
2026/05/07 08:38:54.648,-0.059,0.012,0.998
2026/05/07 08:38:54.668,-0.064,0.012,1.002
2026/05/07 08:38:54.687,-0.061,0.014,0.996
2026/05/07 08:38:54.707,-0.061,0.007,1.004
2026/05/07 08:38:54.727,-0.063,0.01,0.998
2026/05/07 08:38:54.747,-0.061,0.014,1.002
2026/05/07 08:38:54.766,-0.06,0.013,1.003
2026/05/07 08:38:54.786,-0.061,0.012,1.01
2026/05/07 08:38:54.806,-0.059,0.011,1.006
2026/05/07 08:38:54.826,-0.059,0.013,1.005
2026/05/07 08:38:54.846,-0.059,0.013,1.001
2026/05/07 08:38:54.865,-0.065,0.011,1.003
2026/05/07 08:38:54.885,-0.06,0.011,0.998
2026/05/07 08:38:54.905,-0.062,0.012,1.002
2026/05/07 08:38:54.925,-0.059,0.012,1.005
2026/05/07 08:38:54.945,-0.063,0.014,1.001
2026/05/07 08:38:54.964,-0.06,0.013,1.004
2026/05/07 08:38:54.984,-0.061,0.013,1.005
2026/05/07 08:38:55.004,-0.06,0.01,1.004
2026/05/07 08:38:55.024,-0.064,0.011,1.002
2026/05/07 08:38:55.044,-0.059,0.01,1.002
2026/05/07 08:38:55.063,-0.06,0.012,1.005
2026/05/07 08:38:55.083,-0.063,0.012,0.998
2026/05/07 08:38:55.103,-0.059,0.012,1.002
2026/05/07 08:38:55.123,-0.063,0.011,1.007
2026/05/07 08:38:55.142,-0.063,0.01,1.006
2026/05/07 08:38:55.162,-0.066,0.029,0.957
2026/05/07 08:38:55.182,-0.061,0.01,0.999
2026/05/07 08:38:55.202,-0.06,0.015,0.999
2026/05/07 08:38:55.222,-0.063,0.011,1.002
2026/05/07 08:38:55.241,-0.062,0.009,1.004
2026/05/07 08:38:55.261,-0.061,0.015,1.006
2026/05/07 08:38:55.281,-0.062,0.014,1.006
2026/05/07 08:38:55.301,-0.064,0.012,1.002
2026/05/07 08:38:55.321,-0.062,0.014,1.001
2026/05/07 08:38:55.340,-0.058,0.008,1.006
2026/05/07 08:38:55.360,-0.063,0.014,1.004
2026/05/07 08:38:55.380,-0.059,0.018,1.001
2026/05/07 08:38:55.400,-0.06,0.011,1.0
2026/05/07 08:38:55.420,-0.059,0.013,1.0
2026/05/07 08:38:55.439,-0.064,0.015,1.002
2026/05/07 08:38:55.459,-0.064,0.01,1.002
2026/05/07 08:38:55.479,-0.061,0.009,1.005
2026/05/07 08:38:55.499,-0.064,0.014,1.005
2026/05/07 08:38:55.518,-0.064,0.014,1.001
2026/05/07 08:38:55.538,-0.06,0.009,1.001
2026/05/07 08:38:55.558,-0.064,0.01,1.003
2026/05/07 08:38:55.578,-0.058,0.014,1.004
2026/05/07 08:38:55.598,-0.06,0.019,1.007
2026/05/07 08:38:55.617,-0.06,0.014,1.003
2026/05/07 08:38:55.637,-0.062,0.015,1.008
2026/05/07 08:38:55.657,-0.06,0.012,1.007
2026/05/07 08:38:55.677,-0.059,0.009,1.005
2026/05/07 08:38:55.697,-0.061,0.015,1.0
2026/05/07 08:38:55.716,-0.062,0.013,1.003
2026/05/07 08:38:55.736,-0.061,0.014,0.999
2026/05/07 08:38:55.756,-0.061,0.014,0.999
2026/05/07 08:38:55.776,-0.059,0.011,0.999
2026/05/07 08:38:55.796,-0.058,0.015,1.003
2026/05/07 08:38:55.815,-0.059,0.013,1.003
2026/05/07 08:38:55.835,-0.061,0.011,1.002
2026/05/07 08:38:55.855,-0.061,0.013,1.003
2026/05/07 08:38:55.875,-0.065,0.014,1.002
2026/05/07 08:38:55.895,-0.059,0.012,1.001
2026/05/07 08:38:55.914,-0.062,0.014,1.0
2026/05/07 08:38:55.934,-0.059,0.013,1.008
2026/05/07 08:38:55.954,-0.06,0.012,1.002
2026/05/07 08:38:55.974,-0.06,0.014,1.002
2026/05/07 08:38:55.993,-0.062,0.012,1.004
2026/05/07 08:38:56.013,-0.062,0.013,1.004
2026/05/07 08:38:56.033,-0.061,0.012,1.003
2026/05/07 08:38:56.053,-0.061,0.013,1.007
2026/05/07 08:38:56.073,-0.059,0.015,1.005
2026/05/07 08:38:56.092,-0.061,0.013,0.997
2026/05/07 08:38:56.112,-0.061,0.017,1.0
2026/05/07 08:38:56.132,-0.066,0.007,1.002
2026/05/07 08:38:56.152,-0.059,0.009,1.005
2026/05/07 08:38:56.172,-0.06,0.013,1.003
2026/05/07 08:38:56.191,-0.063,0.016,0.999
2026/05/07 08:38:56.211,-0.06,0.014,1.006
2026/05/07 08:38:56.231,-0.062,0.01,1.005
2026/05/07 08:38:56.251,-0.063,0.015,0.992
2026/05/07 08:38:56.271,-0.067,0.01,1.01
2026/05/07 08:38:56.290,-0.059,0.015,0.998
2026/05/07 08:38:56.310,-0.056,0.011,1.003
2026/05/07 08:38:56.330,-0.064,0.014,1.003
2026/05/07 08:38:56.350,-0.069,0.011,0.991
2026/05/07 08:38:56.369,-0.067,0.009,1.007
2026/05/07 08:38:56.389,-0.06,0.007,0.998
2026/05/07 08:38:56.409,-0.057,0.015,1.003
2026/05/07 08:38:56.429,-0.058,0.015,1.005
2026/05/07 08:38:56.449,-0.057,0.01,1.002
2026/05/07 08:38:56.468,-0.065,0.008,1.001
2026/05/07 08:38:56.488,-0.06,0.009,1.001
2026/05/07 08:38:56.508,-0.06,0.013,1.004
2026/05/07 08:38:56.528,-0.064,0.012,1.004
2026/05/07 08:38:56.548,-0.058,0.01,1.002
2026/05/07 08:38:56.567,-0.062,0.015,1.003
2026/05/07 08:38:56.587,-0.06,0.009,1.0
2026/05/07 08:38:56.607,0.0,-0.02,1.138
2026/05/07 08:38:56.627,-0.071,-0.012,1.105
2026/05/07 08:38:56.647,-0.053,0.021,0.991
2026/05/07 08:38:56.666,-0.075,0.005,1.035
2026/05/07 08:38:56.686,-0.056,0.016,1.001
2026/05/07 08:38:56.706,-0.063,0.012,1.006
2026/05/07 08:38:56.726,-0.062,0.013,1.003
2026/05/07 08:38:56.746,-0.062,0.007,1.023
2026/05/07 08:38:56.765,-0.056,0.009,1.004
2026/05/07 08:38:56.785,-0.064,0.011,0.996
2026/05/07 08:38:56.805,-0.075,-0.115,0.864
2026/05/07 08:38:56.825,-0.053,0.004,0.926
2026/05/07 08:38:56.844,-0.046,0.018,0.935
2026/05/07 08:38:56.864,-0.058,0.013,1.048
2026/05/07 08:38:56.884,-0.048,0.019,0.955
2026/05/07 08:38:56.904,-0.067,0.009,1.016
2026/05/07 08:38:56.924,-0.06,0.011,0.999
2026/05/07 08:38:56.943,-0.061,0.015,1.005
2026/05/07 08:38:56.963,-0.06,0.015,1.003
2026/05/07 08:38:56.983,-0.061,0.012,1.0
2026/05/07 08:38:57.003,-0.067,0.013,1.008
2026/05/07 08:38:57.023,-0.061,0.009,1.003
2026/05/07 08:38:57.042,-0.06,0.011,1.001
2026/05/07 08:38:57.062,-0.061,0.017,1.004
2026/05/07 08:38:57.082,-0.056,0.013,1.005
2026/05/07 08:38:57.102,-0.057,0.008,0.994
2026/05/07 08:38:57.122,-0.056,0.015,0.997
2026/05/07 08:38:57.141,-0.059,0.013,1.004
2026/05/07 08:38:57.161,-0.061,0.012,1.005
2026/05/07 08:38:57.181,-0.061,0.017,1.001
2026/05/07 08:38:57.201,-0.059,0.012,1.004
2026/05/07 08:38:57.220,-0.062,0.009,1.003
2026/05/07 08:38:57.240,-0.061,0.01,1.01
2026/05/07 08:38:57.260,-0.059,0.013,1.003
2026/05/07 08:38:57.280,-0.059,0.014,1.004
2026/05/07 08:38:57.300,-0.058,0.013,1.003
2026/05/07 08:38:57.319,-0.06,0.017,1.002
2026/05/07 08:38:57.339,-0.065,0.011,1.002
2026/05/07 08:38:57.359,-0.06,0.016,1.0
2026/05/07 08:38:57.379,-0.062,0.015,1.004
2026/05/07 08:38:57.399,-0.063,0.008,0.999
2026/05/07 08:38:57.418,-0.058,0.008,1.003
2026/05/07 08:38:57.438,-0.062,0.015,1.001
2026/05/07 08:38:57.458,-0.064,0.009,1.005
2026/05/07 08:38:57.478,-0.058,0.014,1.002
2026/05/07 08:38:57.498,-0.06,0.01,1.003
2026/05/07 08:38:57.517,-0.062,0.012,1.003
2026/05/07 08:38:57.537,-0.061,0.009,0.999
2026/05/07 08:38:57.557,-0.06,0.013,1.0
2026/05/07 08:38:57.577,-0.061,0.013,1.002
2026/05/07 08:38:57.597,-0.061,0.012,1.005
2026/05/07 08:38:57.616,-0.058,0.011,0.999
2026/05/07 08:38:57.636,-0.06,0.011,1.005
2026/05/07 08:38:57.656,-0.06,0.015,1.003
2026/05/07 08:38:57.676,-0.057,0.012,1.003
2026/05/07 08:38:57.695,-0.06,0.01,1.006
2026/05/07 08:38:57.715,-0.06,0.009,1.001
2026/05/07 08:38:57.735,-0.062,0.012,1.006
2026/05/07 08:38:57.755,-0.059,0.017,1.0
2026/05/07 08:38:57.775,-0.061,0.015,1.001
2026/05/07 08:38:57.794,-0.059,0.013,1.004
2026/05/07 08:38:57.814,-0.053,0.009,0.99
2026/05/07 08:38:57.834,-0.062,0.012,1.001
2026/05/07 08:38:57.854,-0.062,0.012,1.0
2026/05/07 08:38:57.874,-0.059,0.011,1.003
2026/05/07 08:38:57.893,-0.06,0.012,1.004
2026/05/07 08:38:57.913,-0.062,0.014,1.003
2026/05/07 08:38:57.933,-0.063,0.009,1.002
2026/05/07 08:38:57.953,-0.059,0.009,1.0
2026/05/07 08:38:57.973,-0.06,0.01,1.004
2026/05/07 08:38:57.992,-0.063,0.012,1.006
2026/05/07 08:38:58.012,-0.059,0.011,1.002
2026/05/07 08:38:58.032,-0.06,0.01,1.004
2026/05/07 08:38:58.052,-0.06,0.013,1.003
2026/05/07 08:38:58.071,-0.06,0.012,1.004
2026/05/07 08:38:58.091,-0.058,0.009,1.004
2026/05/07 08:38:58.111,-0.065,0.015,1.013
2026/05/07 08:38:58.131,-0.055,0.015,1.006
2026/05/07 08:38:58.151,-0.058,0.015,0.997
2026/05/07 08:38:58.170,-0.063,0.012,1.003
2026/05/07 08:38:58.190,-0.061,0.012,1.006
2026/05/07 08:38:58.210,-0.059,0.01,1.008
2026/05/07 08:38:58.230,-0.059,0.011,1.001
2026/05/07 08:38:58.250,-0.062,0.014,1.002
2026/05/07 08:38:58.269,-0.064,0.013,1.003
2026/05/07 08:38:58.289,-0.063,0.013,1.0
2026/05/07 08:38:58.309,-0.059,0.014,1.0
2026/05/07 08:38:58.329,-0.061,0.009,1.001
2026/05/07 08:38:58.349,-0.062,0.013,1.004
2026/05/07 08:38:58.368,-0.06,0.014,1.004
2026/05/07 08:38:58.388,-0.063,0.016,1.006
2026/05/07 08:38:58.408,-0.059,0.011,1.0
2026/05/07 08:38:58.428,-0.062,0.015,1.001
2026/05/07 08:38:58.448,-0.065,0.013,1.003
2026/05/07 08:38:58.467,-0.065,0.01,1.004
2026/05/07 08:38:58.487,-0.06,0.009,1.001
2026/05/07 08:38:58.507,-0.061,0.015,1.005
2026/05/07 08:38:58.527,-0.059,0.016,1.002
2026/05/07 08:38:58.546,-0.065,0.012,1.002
2026/05/07 08:38:58.566,-0.063,0.014,1.004
2026/05/07 08:38:58.586,-0.063,0.013,1.001
2026/05/07 08:38:58.606,-0.064,0.009,1.005
2026/05/07 08:38:58.626,-0.06,0.013,0.999
2026/05/07 08:38:58.645,-0.06,0.012,0.998
2026/05/07 08:38:58.665,-0.061,0.012,1.002
2026/05/07 08:38:58.685,-0.06,0.008,1.003
2026/05/07 08:38:58.705,-0.06,0.013,1.003
2026/05/07 08:38:58.725,-0.059,0.01,1.003
2026/05/07 08:38:58.744,-0.06,0.013,1.001
2026/05/07 08:38:58.764,-0.061,0.013,1.004
2026/05/07 08:38:58.784,-0.062,0.011,1.005
2026/05/07 08:38:58.804,-0.063,0.012,1.004
2026/05/07 08:38:58.824,-0.061,0.013,1.003
2026/05/07 08:38:58.843,-0.058,0.009,1.011
2026/05/07 08:38:58.863,-0.06,0.01,0.997
2026/05/07 08:38:58.883,-0.063,0.012,1.003
2026/05/07 08:38:58.903,-0.063,0.015,1.005
2026/05/07 08:38:58.922,-0.057,0.014,1.004
2026/05/07 08:38:58.942,-0.063,0.009,1.001
2026/05/07 08:38:58.962,-0.063,0.014,1.002
2026/05/07 08:38:58.982,-0.065,0.009,1.001
2026/05/07 08:38:59.002,-0.064,0.012,1.002
2026/05/07 08:38:59.021,-0.063,0.016,1.001
2026/05/07 08:38:59.041,-0.06,0.011,1.004
2026/05/07 08:38:59.061,-0.059,0.012,1.003
2026/05/07 08:38:59.081,-0.059,0.009,1.001
2026/05/07 08:38:59.101,-0.063,0.015,1.003
2026/05/07 08:38:59.120,-0.062,0.011,1.002
2026/05/07 08:38:59.140,-0.059,0.016,1.005
2026/05/07 08:38:59.160,-0.061,0.009,1.002
2026/05/07 08:38:59.180,-0.061,0.012,1.003
2026/05/07 08:38:59.200,-0.059,0.009,1.005
2026/05/07 08:38:59.219,-0.059,0.013,1.006
2026/05/07 08:38:59.239,-0.059,0.014,1.003
2026/05/07 08:38:59.259,-0.059,0.013,1.002
2026/05/07 08:38:59.279,-0.058,0.01,1.006
2026/05/07 08:38:59.299,-0.058,0.009,1.004
2026/05/07 08:38:59.318,-0.062,0.006,1.005
2026/05/07 08:38:59.338,-0.06,0.013,1.002
2026/05/07 08:38:59.358,-0.062,0.015,1.006
2026/05/07 08:38:59.378,-0.062,0.01,1.006
2026/05/07 08:38:59.397,-0.057,0.01,1.002
2026/05/07 08:38:59.417,-0.059,0.012,1.003
2026/05/07 08:38:59.437,-0.063,0.01,1.005
2026/05/07 08:38:59.457,-0.061,0.012,1.003
2026/05/07 08:38:59.477,-0.063,0.012,1.002
2026/05/07 08:38:59.496,-0.061,0.01,1.003
2026/05/07 08:38:59.516,-0.058,0.012,1.001
2026/05/07 08:38:59.536,-0.061,0.013,1.001
2026/05/07 08:38:59.556,-0.057,0.009,1.001
2026/05/07 08:38:59.576,-0.06,0.013,1.007
2026/05/07 08:38:59.595,-0.061,0.012,1.004
2026/05/07 08:38:59.615,-0.061,0.011,1.003
2026/05/07 08:38:59.635,-0.059,0.014,1.002
2026/05/07 08:38:59.655,-0.061,0.012,1.003
2026/05/07 08:38:59.675,-0.062,0.017,1.005
2026/05/07 08:38:59.694,-0.062,0.013,1.001
2026/05/07 08:38:59.714,-0.06,0.013,1.004
2026/05/07 08:38:59.734,-0.058,0.012,1.004
2026/05/07 08:38:59.754,-0.06,0.017,1.004
2026/05/07 08:38:59.774,-0.059,0.012,1.003
2026/05/07 08:38:59.793,-0.063,0.013,1.0
2026/05/07 08:38:59.813,-0.061,0.009,1.007
2026/05/07 08:38:59.833,-0.062,0.014,1.002
2026/05/07 08:38:59.853,-0.059,0.013,1.004
2026/05/07 08:38:59.872,-0.061,0.011,1.004
2026/05/07 08:38:59.892,-0.062,0.013,1.005
2026/05/07 08:38:59.912,-0.061,0.012,1.001
2026/05/07 08:38:59.932,-0.061,0.01,1.001
2026/05/07 08:38:59.952,-0.062,0.011,1.006
2026/05/07 08:38:59.971,-0.058,0.014,1.006
2026/05/07 08:38:59.991,-0.063,0.015,1.003
2026/05/07 08:39:00.011,-0.063,0.009,1.002
2026/05/07 08:39:00.031,-0.059,0.013,1.0
2026/05/07 08:39:00.051,-0.06,0.013,1.005
2026/05/07 08:39:00.070,-0.062,0.013,1.005
2026/05/07 08:39:00.090,-0.059,0.008,1.005
2026/05/07 08:39:00.110,-0.062,0.012,1.005
2026/05/07 08:39:00.130,-0.06,0.011,1.001
2026/05/07 08:39:00.150,-0.059,0.01,1.004
2026/05/07 08:39:00.169,-0.063,0.011,1.002
2026/05/07 08:39:00.189,-0.06,0.013,1.003
2026/05/07 08:39:00.209,-0.064,0.011,1.002
2026/05/07 08:39:00.229,-0.062,0.012,1.003
2026/05/07 08:39:00.249,-0.059,0.016,1.004
2026/05/07 08:39:00.268,-0.058,0.014,1.003
2026/05/07 08:39:00.288,-0.063,0.015,1.003
2026/05/07 08:39:00.308,-0.06,0.014,1.006
2026/05/07 08:39:00.328,-0.063,0.011,1.003
2026/05/07 08:39:00.347,-0.063,0.013,1.001
2026/05/07 08:39:00.367,-0.059,0.013,1.003
2026/05/07 08:39:00.387,-0.06,0.01,0.998
2026/05/07 08:39:00.407,-0.062,0.013,1.005
2026/05/07 08:39:00.427,-0.058,0.01,1.0
2026/05/07 08:39:00.446,-0.063,0.017,1.007
2026/05/07 08:39:00.466,-0.061,0.011,1.004
2026/05/07 08:39:00.486,-0.061,0.014,1.006
2026/05/07 08:39:00.506,-0.061,0.012,1.003
2026/05/07 08:39:00.526,-0.06,0.01,1.002
2026/05/07 08:39:00.545,-0.064,0.012,1.003
2026/05/07 08:39:00.565,-0.061,0.019,1.005
2026/05/07 08:39:00.585,-0.059,0.007,1.005
2026/05/07 08:39:00.605,-0.064,0.012,1.0
2026/05/07 08:39:00.625,-0.061,0.014,1.0
2026/05/07 08:39:00.644,-0.063,0.013,1.002
2026/05/07 08:39:00.664,-0.061,0.009,1.0
2026/05/07 08:39:00.684,-0.061,0.014,1.002
2026/05/07 08:39:00.704,-0.061,0.014,1.006
2026/05/07 08:39:00.724,-0.058,0.014,1.008
2026/05/07 08:39:00.743,-0.063,0.012,1.004
2026/05/07 08:39:00.763,-0.061,0.012,1.0
2026/05/07 08:39:00.783,-0.062,0.01,1.0
2026/05/07 08:39:00.803,-0.061,0.01,1.003
2026/05/07 08:39:00.822,-0.063,0.015,1.004
2026/05/07 08:39:00.842,-0.065,0.009,1.002
2026/05/07 08:39:00.862,-0.059,0.014,1.002
2026/05/07 08:39:00.882,-0.06,0.013,1.004
2026/05/07 08:39:00.902,-0.062,0.009,1.0
2026/05/07 08:39:00.921,-0.062,0.01,1.005
2026/05/07 08:39:00.941,-0.061,0.01,1.002
2026/05/07 08:39:00.961,-0.063,0.009,1.0
2026/05/07 08:39:00.981,-0.065,0.016,1.003
2026/05/07 08:39:01.001,-0.059,0.009,1.004
2026/05/07 08:39:01.020,-0.058,0.014,0.996
2026/05/07 08:39:01.040,-0.059,0.011,1.0
2026/05/07 08:39:01.060,-0.063,0.016,1.007
2026/05/07 08:39:01.080,-0.059,0.014,1.003
2026/05/07 08:39:01.100,-0.058,0.015,1.0
2026/05/07 08:39:01.119,-0.06,0.011,1.002
2026/05/07 08:39:01.139,-0.067,0.016,1.004
2026/05/07 08:39:01.159,-0.062,0.012,1.001
2026/05/07 08:39:01.179,-0.058,0.01,1.001
2026/05/07 08:39:01.198,-0.06,0.014,1.003
2026/05/07 08:39:01.218,-0.06,0.012,1.002
2026/05/07 08:39:01.238,-0.056,0.009,1.005
2026/05/07 08:39:01.258,-0.061,0.013,1.004
2026/05/07 08:39:01.278,-0.06,0.012,1.003
2026/05/07 08:39:01.297,-0.058,0.011,1.001
2026/05/07 08:39:01.317,-0.059,0.011,1.003
2026/05/07 08:39:01.337,-0.06,0.013,1.001
2026/05/07 08:39:01.357,-0.057,0.01,1.004
2026/05/07 08:39:01.377,-0.06,0.013,1.006
2026/05/07 08:39:01.396,-0.063,0.014,1.002
2026/05/07 08:39:01.416,-0.062,0.01,1.003
2026/05/07 08:39:01.436,-0.059,0.01,1.003
2026/05/07 08:39:01.456,-0.058,0.014,1.004
2026/05/07 08:39:01.476,-0.063,0.011,1.003
2026/05/07 08:39:01.495,-0.06,0.015,1.007
2026/05/07 08:39:01.515,-0.063,0.01,1.008
2026/05/07 08:39:01.535,-0.062,0.01,1.005
2026/05/07 08:39:01.555,-0.064,0.012,1.001
2026/05/07 08:39:01.575,-0.059,0.012,1.003
2026/05/07 08:39:01.594,-0.065,0.014,1.005
2026/05/07 08:39:01.614,-0.061,0.011,1.005
2026/05/07 08:39:01.634,-0.063,0.016,1.001
2026/05/07 08:39:01.654,-0.058,0.015,1.003
2026/05/07 08:39:01.673,-0.062,0.012,1.004
2026/05/07 08:39:01.693,-0.06,0.012,1.005
2026/05/07 08:39:01.713,-0.062,0.012,1.002
2026/05/07 08:39:01.733,-0.061,0.01,1.002
2026/05/07 08:39:01.753,-0.062,0.012,1.007
2026/05/07 08:39:01.772,-0.059,0.012,1.005
2026/05/07 08:39:01.792,-0.061,0.013,1.001
2026/05/07 08:39:01.812,-0.063,0.01,1.004
2026/05/07 08:39:01.832,-0.064,0.012,1.006
2026/05/07 08:39:01.852,-0.062,0.012,1.003
2026/05/07 08:39:01.871,-0.059,0.013,1.005
2026/05/07 08:39:01.891,-0.061,0.012,1.002
2026/05/07 08:39:01.911,-0.061,0.011,1.001
2026/05/07 08:39:01.931,-0.062,0.014,1.001
2026/05/07 08:39:01.951,-0.061,0.013,1.0
2026/05/07 08:39:01.970,-0.06,0.015,1.005
2026/05/07 08:39:01.990,-0.058,0.016,1.002
2026/05/07 08:39:02.010,-0.058,0.014,1.005
2026/05/07 08:39:02.030,-0.06,0.014,1.005
2026/05/07 08:39:02.050,-0.064,0.01,1.004
2026/05/07 08:39:02.069,-0.062,0.017,0.999
2026/05/07 08:39:02.089,-0.062,0.009,1.004
2026/05/07 08:39:02.109,-0.059,0.012,1.004
2026/05/07 08:39:02.129,-0.065,0.015,1.001
2026/05/07 08:39:02.148,-0.059,0.013,1.004
2026/05/07 08:39:02.168,-0.065,0.008,1.006
2026/05/07 08:39:02.188,-0.059,0.009,1.003
2026/05/07 08:39:02.208,-0.063,0.017,0.999
2026/05/07 08:39:02.228,-0.058,0.009,1.003
2026/05/07 08:39:02.247,-0.064,0.012,1.003
2026/05/07 08:39:02.267,-0.062,0.009,1.002
2026/05/07 08:39:02.287,-0.061,0.017,1.004
2026/05/07 08:39:02.307,-0.058,0.012,1.005
2026/05/07 08:39:02.327,-0.059,0.01,1.005
2026/05/07 08:39:02.346,-0.061,0.01,1.006
2026/05/07 08:39:02.366,-0.058,0.017,1.002
2026/05/07 08:39:02.386,-0.063,0.008,1.003
2026/05/07 08:39:02.406,-0.063,0.011,1.003
2026/05/07 08:39:02.426,-0.062,0.009,1.004
2026/05/07 08:39:02.445,-0.058,0.012,1.008
2026/05/07 08:39:02.465,-0.064,0.01,0.997
2026/05/07 08:39:02.485,-0.063,0.012,1.003
2026/05/07 08:39:02.505,-0.058,0.013,1.01
2026/05/07 08:39:02.525,-0.064,0.006,1.004
2026/05/07 08:39:02.544,-0.065,0.013,0.997
2026/05/07 08:39:02.564,-0.062,0.02,1.004
2026/05/07 08:39:02.584,-0.055,0.015,1.009
2026/05/07 08:39:02.604,-0.061,0.016,1.006
2026/05/07 08:39:02.623,-0.062,0.015,1.007
2026/05/07 08:39:02.643,-0.057,0.014,1.003
2026/05/07 08:39:02.663,-0.053,-0.006,1.024
2026/05/07 08:39:02.683,-0.057,0.016,1.004
2026/05/07 08:39:02.703,-0.062,0.009,1.015
2026/05/07 08:39:02.722,-0.064,0.013,1.006
2026/05/07 08:39:02.742,-0.155,0.225,0.799
2026/05/07 08:39:02.762,-0.027,0.168,0.956
2026/05/07 08:39:02.782,-0.005,0.005,1.016
2026/05/07 08:39:02.802,-0.02,0.033,1.021
2026/05/07 08:39:02.821,-0.077,0.174,0.898
2026/05/07 08:39:02.841,-0.045,0.189,1.039
2026/05/07 08:39:02.861,-0.049,0.162,0.992
2026/05/07 08:39:02.881,0.022,-0.069,0.977
2026/05/07 08:39:02.901,-0.017,-0.058,0.978
2026/05/07 08:39:02.920,-0.048,-0.084,1.006
2026/05/07 08:39:02.940,-0.076,-0.166,1.007
2026/05/07 08:39:02.960,-0.083,-0.167,1.063
2026/05/07 08:39:02.980,0.115,-0.083,1.005
2026/05/07 08:39:03.000,0.131,-0.008,1.002
2026/05/07 08:39:03.019,0.106,0.042,1.019
2026/05/07 08:39:03.039,0.043,0.048,0.98
2026/05/07 08:39:03.059,-0.074,-0.041,0.925
2026/05/07 08:39:03.079,-0.152,-0.103,0.69
2026/05/07 08:39:03.098,-0.213,-0.088,0.709
2026/05/07 08:39:03.118,-0.142,-0.089,0.694
2026/05/07 08:39:03.138,-0.224,0.052,0.94
2026/05/07 08:39:03.158,-0.191,0.069,1.037
2026/05/07 08:39:03.178,-0.17,0.08,0.991
2026/05/07 08:39:03.197,-0.097,0.026,1.005
2026/05/07 08:39:03.217,0.021,-0.055,0.936
2026/05/07 08:39:03.237,0.001,-0.067,0.976
2026/05/07 08:39:03.257,-0.057,0.018,0.971
2026/05/07 08:39:03.277,-0.102,0.067,1.026
2026/05/07 08:39:03.296,-0.169,0.14,0.988
2026/05/07 08:39:03.316,-0.072,0.034,0.946
2026/05/07 08:39:03.336,-0.063,0.007,1.009
2026/05/07 08:39:03.356,-0.064,0.005,1.01
2026/05/07 08:39:03.376,-0.06,0.008,1.002
2026/05/07 08:39:03.395,-0.059,0.008,1.004
2026/05/07 08:39:03.415,-0.06,0.01,1.0
2026/05/07 08:39:03.435,-0.062,0.01,1.002
2026/05/07 08:39:03.455,-0.064,0.012,1.006
2026/05/07 08:39:03.475,-0.061,0.009,1.003
2026/05/07 08:39:03.494,-0.058,0.008,1.006
2026/05/07 08:39:03.514,-0.061,0.012,1.009
2026/05/07 08:39:03.534,-0.055,0.007,1.0
2026/05/07 08:39:03.554,-0.06,0.008,1.012
2026/05/07 08:39:03.573,-0.052,0.014,1.005
2026/05/07 08:39:03.593,-0.055,0.01,0.988
2026/05/07 08:39:03.613,-0.064,0.009,1.01
2026/05/07 08:39:03.633,-0.06,0.004,1.01
2026/05/07 08:39:03.653,-0.056,0.006,1.0
2026/05/07 08:39:03.672,-0.063,0.011,1.008
2026/05/07 08:39:03.692,-0.06,0.009,1.011
2026/05/07 08:39:03.712,-0.058,0.009,1.001
2026/05/07 08:39:03.732,-0.065,0.007,0.998
2026/05/07 08:39:03.752,-0.058,0.007,1.0
2026/05/07 08:39:03.771,-0.062,0.012,1.0
2026/05/07 08:39:03.791,-0.058,0.009,1.004
2026/05/07 08:39:03.811,-0.059,0.01,1.004
2026/05/07 08:39:03.831,-0.06,0.01,1.01
2026/05/07 08:39:03.851,-0.056,0.012,1.001
2026/05/07 08:39:03.870,-0.061,0.009,1.007
2026/05/07 08:39:03.890,-0.056,0.009,1.003
2026/05/07 08:39:03.910,-0.063,0.009,1.005
2026/05/07 08:39:03.930,-0.059,0.009,1.002
2026/05/07 08:39:03.950,-0.06,0.009,1.004
2026/05/07 08:39:03.969,-0.059,0.003,1.005
2026/05/07 08:39:03.989,-0.061,0.008,1.006
2026/05/07 08:39:04.009,-0.061,0.005,1.004
2026/05/07 08:39:04.029,-0.064,0.01,1.002
2026/05/07 08:39:04.048,-0.06,0.01,1.001
2026/05/07 08:39:04.068,-0.059,0.01,1.006
2026/05/07 08:39:04.088,-0.058,0.009,1.005
2026/05/07 08:39:04.108,-0.06,0.011,1.004
2026/05/07 08:39:04.128,-0.064,0.01,1.002
2026/05/07 08:39:04.147,-0.061,0.009,1.005
2026/05/07 08:39:04.167,-0.063,0.007,1.006
2026/05/07 08:39:04.187,-0.059,0.01,0.998
2026/05/07 08:39:04.207,-0.059,0.006,1.001
2026/05/07 08:39:04.227,-0.059,0.011,1.005
