Timestamp,ACC X,ACC Y,ACC Z
2026/05/14 10:29:56.470,-0.052,0.029,1.025
2026/05/14 10:29:56.489,-0.054,0.025,1.026
2026/05/14 10:29:56.508,-0.059,0.027,1.028
2026/05/14 10:29:56.527,-0.059,0.024,1.023
2026/05/14 10:29:56.546,-0.06,0.024,1.022
2026/05/14 10:29:56.566,-0.062,0.026,1.024
2026/05/14 10:29:56.585,-0.062,0.025,1.026
2026/05/14 10:29:56.604,-0.055,0.028,1.029
2026/05/14 10:29:56.623,-0.055,0.028,1.025
2026/05/14 10:29:56.643,-0.056,0.033,1.025
2026/05/14 10:29:56.662,-0.05,0.035,1.023
2026/05/14 10:29:56.681,-0.053,0.035,1.022
2026/05/14 10:29:56.700,-0.055,0.035,1.026
2026/05/14 10:29:56.720,-0.059,0.038,1.025
2026/05/14 10:29:56.739,-0.059,0.037,1.024
2026/05/14 10:29:56.758,-0.062,0.032,1.027
2026/05/14 10:29:56.777,-0.055,0.029,1.025
2026/05/14 10:29:56.796,-0.058,0.027,1.022
2026/05/14 10:29:56.816,-0.056,0.026,1.027
2026/05/14 10:29:56.835,-0.061,0.027,1.021
2026/05/14 10:29:56.854,-0.06,0.022,1.025
2026/05/14 10:29:56.873,-0.06,0.026,1.025
2026/05/14 10:29:56.893,-0.058,0.023,1.024
2026/05/14 10:29:56.912,-0.059,0.03,1.026
2026/05/14 10:29:56.931,-0.06,0.035,1.028
2026/05/14 10:29:56.950,-0.057,0.029,1.021
2026/05/14 10:29:56.970,-0.057,0.034,1.021
2026/05/14 10:29:56.989,-0.054,0.031,1.025
2026/05/14 10:29:57.008,-0.057,0.035,1.019
2026/05/14 10:29:57.027,-0.054,0.031,1.023
2026/05/14 10:29:57.046,-0.059,0.034,1.022
2026/05/14 10:29:57.066,-0.058,0.033,1.023
2026/05/14 10:29:57.085,-0.06,0.03,1.022
2026/05/14 10:29:57.104,-0.06,0.028,1.022
2026/05/14 10:29:57.123,-0.058,0.027,1.024
2026/05/14 10:29:57.143,-0.059,0.027,1.025
2026/05/14 10:29:57.162,-0.057,0.023,1.026
2026/05/14 10:29:57.181,-0.055,0.025,1.021
2026/05/14 10:29:57.200,-0.061,0.028,1.023
2026/05/14 10:29:57.220,-0.058,0.033,1.026
2026/05/14 10:29:57.239,-0.059,0.026,1.026
2026/05/14 10:29:57.258,-0.056,0.032,1.02
2026/05/14 10:29:57.277,-0.058,0.033,1.024
2026/05/14 10:29:57.296,-0.054,0.036,1.023
2026/05/14 10:29:57.316,-0.054,0.035,1.023
2026/05/14 10:29:57.335,-0.056,0.034,1.026
2026/05/14 10:29:57.354,-0.06,0.032,1.026
2026/05/14 10:29:57.373,-0.057,0.03,1.022
2026/05/14 10:29:57.393,-0.056,0.031,1.023
2026/05/14 10:29:57.412,-0.06,0.026,1.02
2026/05/14 10:29:57.431,-0.059,0.025,1.024
2026/05/14 10:29:57.450,-0.056,0.029,1.024
2026/05/14 10:29:57.470,-0.059,0.025,1.026
2026/05/14 10:29:57.489,-0.054,0.028,1.026
2026/05/14 10:29:57.508,-0.057,0.026,1.027
2026/05/14 10:29:57.527,-0.055,0.03,1.027
2026/05/14 10:29:57.546,-0.053,0.03,1.027
2026/05/14 10:29:57.566,-0.057,0.028,1.029
2026/05/14 10:29:57.585,-0.054,0.036,1.026
2026/05/14 10:29:57.604,-0.06,0.032,1.026
2026/05/14 10:29:57.623,-0.056,0.03,1.025
2026/05/14 10:29:57.643,-0.055,0.027,1.024
2026/05/14 10:29:57.662,-0.056,0.031,1.023
2026/05/14 10:29:57.681,-0.057,0.029,1.022
2026/05/14 10:29:57.700,-0.057,0.026,1.027
2026/05/14 10:29:57.720,-0.06,0.028,1.021
2026/05/14 10:29:57.739,-0.056,0.026,1.023
2026/05/14 10:29:57.758,-0.061,0.028,1.025
2026/05/14 10:29:57.777,-0.061,0.028,1.022
2026/05/14 10:29:57.796,-0.059,0.029,1.02
2026/05/14 10:29:57.816,-0.054,0.028,1.028
2026/05/14 10:29:57.835,-0.055,0.032,1.024
2026/05/14 10:29:57.854,-0.057,0.029,1.025
2026/05/14 10:29:57.873,-0.057,0.029,1.021
2026/05/14 10:29:57.893,-0.055,0.031,1.021
2026/05/14 10:29:57.912,-0.033,0.038,1.031
2026/05/14 10:29:57.931,-0.047,0.038,1.058
2026/05/14 10:29:57.950,-0.006,0.039,0.947
2026/05/14 10:29:57.970,-0.072,0.023,1.035
2026/05/14 10:29:57.989,-0.058,0.033,0.999
2026/05/14 10:29:58.008,-0.068,0.043,1.019
2026/05/14 10:29:58.027,-0.045,0.033,1.01
2026/05/14 10:29:58.046,-0.02,0.046,1.005
2026/05/14 10:29:58.066,-0.053,0.037,1.054
2026/05/14 10:29:58.085,-0.046,0.03,0.99
2026/05/14 10:29:58.104,-0.065,0.021,1.002
2026/05/14 10:29:58.123,-0.05,0.028,1.068
2026/05/14 10:29:58.143,-0.04,0.034,1.02
2026/05/14 10:29:58.162,-0.042,0.044,1.01
2026/05/14 10:29:58.181,-0.059,0.041,1.022
2026/05/14 10:29:58.200,-0.072,0.031,1.029
2026/05/14 10:29:58.220,-0.063,0.025,1.021
2026/05/14 10:29:58.239,-0.062,0.021,1.017
2026/05/14 10:29:58.258,-0.065,0.025,1.025
2026/05/14 10:29:58.277,-0.053,0.027,1.031
2026/05/14 10:29:58.296,-0.048,0.029,1.024
2026/05/14 10:29:58.316,-0.051,0.026,1.023
2026/05/14 10:29:58.335,-0.056,0.023,1.02
2026/05/14 10:29:58.354,-0.055,0.024,1.026
2026/05/14 10:29:58.373,-0.059,0.034,1.023
2026/05/14 10:29:58.393,-0.063,0.036,1.027
2026/05/14 10:29:58.412,-0.058,0.04,1.018
2026/05/14 10:29:58.431,-0.052,0.035,1.026
2026/05/14 10:29:58.450,-0.054,0.028,1.021
2026/05/14 10:29:58.470,-0.058,0.024,1.031
2026/05/14 10:29:58.489,-0.057,0.024,1.023
2026/05/14 10:29:58.508,-0.055,0.025,1.019
2026/05/14 10:29:58.527,-0.06,0.029,1.028
2026/05/14 10:29:58.546,-0.062,0.03,1.022
2026/05/14 10:29:58.566,-0.064,0.022,1.024
2026/05/14 10:29:58.585,-0.063,0.027,1.02
2026/05/14 10:29:58.604,-0.054,0.029,1.025
2026/05/14 10:29:58.623,-0.051,0.034,1.025
2026/05/14 10:29:58.643,-0.051,0.037,1.025
2026/05/14 10:29:58.662,-0.054,0.034,1.023
2026/05/14 10:29:58.681,-0.052,0.03,1.023
2026/05/14 10:29:58.700,-0.061,0.03,1.024
2026/05/14 10:29:58.720,-0.063,0.032,1.022
2026/05/14 10:29:58.739,-0.057,0.029,1.027
2026/05/14 10:29:58.758,-0.061,0.03,1.025
2026/05/14 10:29:58.778,-0.058,0.025,1.022
2026/05/14 10:29:58.798,-0.056,0.023,1.023
2026/05/14 10:29:58.818,-0.054,0.023,1.023
2026/05/14 10:29:58.838,-0.056,0.029,1.022
2026/05/14 10:29:58.858,-0.057,0.033,1.022
2026/05/14 10:29:58.878,-0.055,0.035,1.022
2026/05/14 10:29:58.898,-0.055,0.031,1.021
2026/05/14 10:29:58.918,-0.054,0.034,1.024
2026/05/14 10:29:58.938,-0.057,0.03,1.024
2026/05/14 10:29:58.958,-0.056,0.029,1.026
2026/05/14 10:29:58.978,-0.057,0.027,1.022
2026/05/14 10:29:58.998,-0.056,0.032,1.023
2026/05/14 10:29:59.018,-0.059,0.032,1.029
2026/05/14 10:29:59.038,-0.065,0.027,1.021
2026/05/14 10:29:59.058,-0.059,0.025,1.024
2026/05/14 10:29:59.079,-0.062,0.029,1.025
2026/05/14 10:29:59.099,-0.056,0.031,1.025
2026/05/14 10:29:59.119,-0.053,0.034,1.026
2026/05/14 10:29:59.139,-0.055,0.03,1.026
2026/05/14 10:29:59.159,-0.055,0.035,1.023
2026/05/14 10:29:59.179,-0.055,0.033,1.022
2026/05/14 10:29:59.199,-0.055,0.032,1.022
2026/05/14 10:29:59.219,-0.06,0.033,1.017
2026/05/14 10:29:59.239,-0.055,0.032,1.024
2026/05/14 10:29:59.259,-0.059,0.026,1.029
2026/05/14 10:29:59.279,-0.061,0.027,1.02
2026/05/14 10:29:59.299,-0.058,0.025,1.023
2026/05/14 10:29:59.319,-0.058,0.029,1.022
2026/05/14 10:29:59.339,-0.056,0.028,1.026
2026/05/14 10:29:59.359,-0.058,0.031,1.026
2026/05/14 10:29:59.379,-0.057,0.033,1.026
2026/05/14 10:29:59.399,-0.058,0.033,1.024
2026/05/14 10:29:59.419,-0.054,0.027,1.024
2026/05/14 10:29:59.439,-0.057,0.027,1.025
2026/05/14 10:29:59.459,-0.049,0.034,1.021
2026/05/14 10:29:59.479,-0.058,0.031,1.023
2026/05/14 10:29:59.499,-0.057,0.026,1.024
2026/05/14 10:29:59.519,-0.061,0.027,1.018
2026/05/14 10:29:59.539,-0.059,0.027,1.026
2026/05/14 10:29:59.559,-0.061,0.025,1.025
2026/05/14 10:29:59.579,-0.058,0.028,1.024
2026/05/14 10:29:59.599,-0.057,0.03,1.027
2026/05/14 10:29:59.619,-0.057,0.033,1.022
2026/05/14 10:29:59.639,-0.057,0.033,1.026
2026/05/14 10:29:59.659,-0.056,0.031,1.022
2026/05/14 10:29:59.679,-0.051,0.029,1.027
2026/05/14 10:29:59.699,-0.057,0.03,1.024
2026/05/14 10:29:59.720,-0.058,0.032,1.023
2026/05/14 10:29:59.740,-0.06,0.03,1.021
2026/05/14 10:29:59.760,-0.056,0.029,1.028
2026/05/14 10:29:59.780,-0.056,0.025,1.022
2026/05/14 10:29:59.800,-0.06,0.027,1.027
2026/05/14 10:29:59.820,-0.059,0.027,1.024
2026/05/14 10:29:59.840,-0.058,0.027,1.024
2026/05/14 10:29:59.860,-0.057,0.032,1.022
2026/05/14 10:29:59.880,-0.056,0.027,1.021
2026/05/14 10:29:59.900,-0.054,0.027,1.027
2026/05/14 10:29:59.920,-0.058,0.032,1.026
2026/05/14 10:29:59.940,-0.058,0.028,1.025
2026/05/14 10:29:59.960,-0.058,0.031,1.023
2026/05/14 10:29:59.980,-0.056,0.028,1.025
2026/05/14 10:30:00.000,-0.058,0.025,1.026
2026/05/14 10:30:00.020,-0.057,0.03,1.03
2026/05/14 10:30:00.040,-0.061,0.03,1.027
2026/05/14 10:30:00.060,-0.057,0.031,1.024
2026/05/14 10:30:00.080,-0.058,0.028,1.024
2026/05/14 10:30:00.100,-0.056,0.028,1.025
2026/05/14 10:30:00.120,-0.054,0.027,1.022
2026/05/14 10:30:00.140,-0.059,0.03,1.024
2026/05/14 10:30:00.160,-0.056,0.03,1.024
2026/05/14 10:30:00.180,-0.057,0.028,1.023
2026/05/14 10:30:00.200,-0.054,0.032,1.019
2026/05/14 10:30:00.220,-0.057,0.023,1.023
2026/05/14 10:30:00.240,-0.061,0.028,1.023
2026/05/14 10:30:00.260,-0.057,0.027,1.023
2026/05/14 10:30:00.280,-0.056,0.027,1.02
2026/05/14 10:30:00.300,-0.056,0.032,1.023
2026/05/14 10:30:00.320,-0.052,0.028,1.027
2026/05/14 10:30:00.340,-0.056,0.031,1.024
2026/05/14 10:30:00.361,-0.056,0.03,1.026
2026/05/14 10:30:00.381,-0.057,0.026,1.027
2026/05/14 10:30:00.401,-0.057,0.032,1.025
2026/05/14 10:30:00.421,-0.055,0.029,1.024
2026/05/14 10:30:00.441,-0.053,0.033,1.024
2026/05/14 10:30:00.461,-0.057,0.031,1.025
2026/05/14 10:30:00.481,-0.005,0.075,0.855
2026/05/14 10:30:00.501,-0.144,-0.058,1.156
2026/05/14 10:30:00.521,-0.098,0.001,1.109
2026/05/14 10:30:00.541,-0.029,0.036,0.923
2026/05/14 10:30:00.561,-0.042,0.028,0.985
2026/05/14 10:30:00.581,-0.082,0.016,1.023
2026/05/14 10:30:00.601,-0.053,0.034,1.014
2026/05/14 10:30:00.621,-0.041,0.039,1.006
2026/05/14 10:30:00.641,-0.063,0.032,1.016
2026/05/14 10:30:00.661,-0.053,0.028,1.027
2026/05/14 10:30:00.681,-0.046,0.028,1.025
2026/05/14 10:30:00.701,-0.05,0.037,1.014
2026/05/14 10:30:00.721,-0.062,0.03,1.01
2026/05/14 10:30:00.741,-0.047,0.038,1.021
2026/05/14 10:30:00.761,-0.053,0.033,0.98
2026/05/14 10:30:00.781,-0.067,0.03,0.998
2026/05/14 10:30:00.801,-0.059,0.033,1.011
2026/05/14 10:30:00.821,-0.057,0.033,1.029
2026/05/14 10:30:00.841,-0.061,0.035,1.161
2026/05/14 10:30:00.861,-0.03,0.104,0.958
2026/05/14 10:30:00.881,-0.013,0.042,0.982
2026/05/14 10:30:00.901,-0.086,0.022,1.033
2026/05/14 10:30:00.921,-0.099,0.015,1.05
2026/05/14 10:30:00.941,-0.059,0.039,1.0
2026/05/14 10:30:00.961,-0.062,0.031,1.004
2026/05/14 10:30:00.981,-0.051,0.029,1.032
2026/05/14 10:30:01.002,-0.047,0.032,1.036
2026/05/14 10:30:01.022,-0.055,0.021,1.034
2026/05/14 10:30:01.042,-0.053,0.018,1.028
2026/05/14 10:30:01.062,-0.049,0.026,1.022
2026/05/14 10:30:01.082,-0.055,0.033,1.008
2026/05/14 10:30:01.102,-0.063,0.038,1.012
2026/05/14 10:30:01.122,-0.046,0.054,0.993
2026/05/14 10:30:01.142,-0.112,0.02,1.043
2026/05/14 10:30:01.162,-0.008,0.002,0.15
2026/05/14 10:30:01.182,-0.014,-0.113,1.449
2026/05/14 10:30:01.202,0.069,0.065,0.692
2026/05/14 10:30:01.222,-0.054,0.052,1.102
2026/05/14 10:30:01.242,-0.077,-0.002,0.968
2026/05/14 10:30:01.262,-0.065,0.034,1.005
2026/05/14 10:30:01.282,-0.053,0.057,1.137
2026/05/14 10:30:01.302,-0.097,0.0,1.045
2026/05/14 10:30:01.322,-0.067,0.022,1.049
2026/05/14 10:30:01.342,-0.052,0.037,1.013
2026/05/14 10:30:01.362,-0.058,0.029,1.002
2026/05/14 10:30:01.382,-0.042,0.038,1.045
2026/05/14 10:30:01.402,-0.037,0.042,0.983
2026/05/14 10:30:01.422,-0.067,0.011,1.052
2026/05/14 10:30:01.442,-0.059,0.022,1.058
2026/05/14 10:30:01.462,-0.051,0.042,1.024
2026/05/14 10:30:01.482,-0.058,0.037,1.004
2026/05/14 10:30:01.502,-0.068,0.028,1.017
2026/05/14 10:30:01.522,-0.06,0.031,1.021
2026/05/14 10:30:01.542,-0.059,0.025,1.028
2026/05/14 10:30:01.562,-0.051,0.024,1.031
2026/05/14 10:30:01.582,-0.047,0.036,1.027
2026/05/14 10:30:01.602,-0.054,0.031,1.026
2026/05/14 10:30:01.622,-0.056,0.025,1.019
2026/05/14 10:30:01.643,-0.054,0.029,1.022
2026/05/14 10:30:01.663,-0.056,0.026,1.022
2026/05/14 10:30:01.683,-0.066,0.021,1.03
2026/05/14 10:30:01.703,-0.055,0.032,1.032
2026/05/14 10:30:01.723,-0.059,0.033,1.017
2026/05/14 10:30:01.743,-0.054,0.034,1.024
2026/05/14 10:30:01.763,-0.052,0.027,1.023
2026/05/14 10:30:01.783,-0.054,0.028,1.026
2026/05/14 10:30:01.803,-0.059,0.024,1.023
2026/05/14 10:30:01.823,-0.058,0.029,1.024
2026/05/14 10:30:01.843,-0.06,0.03,1.026
2026/05/14 10:30:01.863,-0.061,0.033,1.022
2026/05/14 10:30:01.883,-0.056,0.031,1.022
2026/05/14 10:30:01.903,-0.055,0.028,1.025
2026/05/14 10:30:01.923,-0.052,0.023,1.025
2026/05/14 10:30:01.943,-0.054,0.027,1.024
2026/05/14 10:30:01.963,-0.052,0.03,1.021
2026/05/14 10:30:01.983,-0.055,0.031,1.022
2026/05/14 10:30:02.003,-0.057,0.031,1.023
2026/05/14 10:30:02.023,-0.059,0.026,1.021
2026/05/14 10:30:02.043,-0.06,0.027,1.021
2026/05/14 10:30:02.063,-0.058,0.028,1.019
2026/05/14 10:30:02.083,-0.057,0.033,1.025
2026/05/14 10:30:02.103,-0.057,0.032,1.026
2026/05/14 10:30:02.123,-0.053,0.03,1.022
2026/05/14 10:30:02.143,-0.054,0.031,1.023
2026/05/14 10:30:02.163,-0.055,0.029,1.026
2026/05/14 10:30:02.183,-0.06,0.027,1.023
2026/05/14 10:30:02.203,-0.059,0.029,1.024
2026/05/14 10:30:02.223,-0.058,0.031,1.022
2026/05/14 10:30:02.243,-0.059,0.034,1.025
2026/05/14 10:30:02.263,-0.055,0.031,1.024
2026/05/14 10:30:02.283,-0.056,0.024,1.026
2026/05/14 10:30:02.304,-0.057,0.029,1.023
2026/05/14 10:30:02.324,-0.058,0.031,1.023
2026/05/14 10:30:02.344,-0.055,0.029,1.023
2026/05/14 10:30:02.364,-0.058,0.029,1.023
2026/05/14 10:30:02.384,-0.056,0.03,1.024
2026/05/14 10:30:02.404,-0.058,0.032,1.024
2026/05/14 10:30:02.424,-0.061,0.032,1.022
2026/05/14 10:30:02.444,-0.055,0.028,1.022
2026/05/14 10:30:02.464,-0.055,0.031,1.022
2026/05/14 10:30:02.484,-0.053,0.028,1.029
2026/05/14 10:30:02.504,-0.058,0.03,1.023
2026/05/14 10:30:02.524,-0.056,0.03,1.027
2026/05/14 10:30:02.544,-0.056,0.03,1.024
2026/05/14 10:30:02.564,-0.057,0.031,1.02
2026/05/14 10:30:02.584,-0.058,0.031,1.026
2026/05/14 10:30:02.604,-0.058,0.029,1.02
2026/05/14 10:30:02.624,-0.058,0.029,1.024
2026/05/14 10:30:02.644,-0.059,0.028,1.022
2026/05/14 10:30:02.664,-0.059,0.028,1.025
2026/05/14 10:30:02.684,-0.056,0.027,1.021
2026/05/14 10:30:02.704,-0.06,0.032,1.022
2026/05/14 10:30:02.724,-0.056,0.033,1.019
2026/05/14 10:30:02.744,-0.06,0.029,1.02
2026/05/14 10:30:02.764,-0.058,0.029,1.022
2026/05/14 10:30:02.784,-0.05,0.034,1.017
2026/05/14 10:30:02.804,-0.06,0.024,1.028
2026/05/14 10:30:02.824,-0.06,0.03,1.026
2026/05/14 10:30:02.844,-0.049,0.03,1.024
2026/05/14 10:30:02.864,-0.058,0.031,1.022
2026/05/14 10:30:02.884,-0.061,0.031,1.024
2026/05/14 10:30:02.904,-0.062,0.03,1.021
2026/05/14 10:30:02.924,-0.056,0.032,1.027
2026/05/14 10:30:02.944,-0.059,0.028,1.022
2026/05/14 10:30:02.965,-0.053,0.026,1.018
2026/05/14 10:30:02.985,-0.06,0.027,1.029
2026/05/14 10:30:03.005,-0.054,0.034,1.018
2026/05/14 10:30:03.025,-0.058,0.027,1.023
2026/05/14 10:30:03.045,-0.056,0.027,1.025
2026/05/14 10:30:03.065,-0.053,0.032,1.024
2026/05/14 10:30:03.085,-0.057,0.031,1.023
2026/05/14 10:30:03.105,-0.06,0.027,1.024
2026/05/14 10:30:03.125,-0.055,0.028,1.025
2026/05/14 10:30:03.145,-0.058,0.027,1.024
2026/05/14 10:30:03.165,-0.057,0.026,1.026
2026/05/14 10:30:03.185,-0.057,0.027,1.021
2026/05/14 10:30:03.205,-0.052,0.03,1.023
2026/05/14 10:30:03.225,-0.057,0.027,1.026
2026/05/14 10:30:03.245,-0.059,0.032,1.021
2026/05/14 10:30:03.265,-0.058,0.028,1.019
2026/05/14 10:30:03.285,-0.06,0.028,1.022
2026/05/14 10:30:03.305,-0.055,0.033,1.019
2026/05/14 10:30:03.325,-0.057,0.035,1.024
2026/05/14 10:30:03.345,-0.059,0.035,1.025
2026/05/14 10:30:03.365,-0.054,0.032,1.025
2026/05/14 10:30:03.385,-0.056,0.032,1.026
2026/05/14 10:30:03.405,-0.057,0.031,1.026
2026/05/14 10:30:03.425,-0.057,0.026,1.02
2026/05/14 10:30:03.445,-0.064,0.026,1.033
2026/05/14 10:30:03.465,-0.061,0.029,1.019
2026/05/14 10:30:03.485,-0.065,0.025,1.009
2026/05/14 10:30:03.505,-0.056,0.021,1.037
2026/05/14 10:30:03.525,-0.052,0.02,1.02
2026/05/14 10:30:03.545,-0.049,0.016,1.031
2026/05/14 10:30:03.565,-0.043,0.02,1.023
2026/05/14 10:30:03.585,-0.045,0.033,1.028
2026/05/14 10:30:03.606,-0.06,0.036,1.024
2026/05/14 10:30:03.626,-0.065,0.033,1.034
2026/05/14 10:30:03.646,-0.066,0.038,1.019
2026/05/14 10:30:03.666,-0.061,0.026,1.026
2026/05/14 10:30:03.686,-0.058,0.019,1.023
2026/05/14 10:30:03.706,-0.057,0.021,1.024
2026/05/14 10:30:03.726,-0.049,0.027,1.025
2026/05/14 10:30:03.746,-0.048,0.031,1.027
2026/05/14 10:30:03.766,-0.055,0.027,1.021
2026/05/14 10:30:03.786,-0.061,0.03,1.021
2026/05/14 10:30:03.806,-0.063,0.03,1.024
2026/05/14 10:30:03.826,-0.061,0.03,1.023
2026/05/14 10:30:03.846,-0.057,0.037,1.019
2026/05/14 10:30:03.866,-0.056,0.03,1.027
2026/05/14 10:30:03.886,-0.05,0.031,1.018
2026/05/14 10:30:03.906,-0.05,0.021,1.026
2026/05/14 10:30:03.926,-0.061,0.025,1.028
2026/05/14 10:30:03.946,-0.05,0.032,1.018
2026/05/14 10:30:03.966,-0.059,0.02,1.031
2026/05/14 10:30:03.986,-0.061,0.024,1.025
2026/05/14 10:30:04.006,-0.058,0.036,1.016
2026/05/14 10:30:04.026,-0.061,0.034,1.021
2026/05/14 10:30:04.046,-0.057,0.037,1.018
2026/05/14 10:30:04.066,-0.058,0.026,1.026
2026/05/14 10:30:04.086,-0.051,0.033,1.022
2026/05/14 10:30:04.106,-0.056,0.023,1.03
2026/05/14 10:30:04.126,-0.051,0.026,1.034
2026/05/14 10:30:04.146,-0.057,0.026,1.038
2026/05/14 10:30:04.166,-0.055,0.029,1.03
2026/05/14 10:30:04.186,-0.061,0.027,1.025
2026/05/14 10:30:04.206,-0.058,0.032,1.02
2026/05/14 10:30:04.227,-0.065,0.027,1.023
2026/05/14 10:30:04.247,-0.055,0.03,1.022
2026/05/14 10:30:04.267,-0.052,0.035,1.028
2026/05/14 10:30:04.287,-0.057,0.021,1.029
2026/05/14 10:30:04.307,-0.051,0.035,1.022
2026/05/14 10:30:04.327,-0.058,0.028,1.023
2026/05/14 10:30:04.347,-0.062,0.026,1.023
2026/05/14 10:30:04.367,-0.055,0.034,1.024
2026/05/14 10:30:04.387,-0.06,0.034,1.023
2026/05/14 10:30:04.407,-0.059,0.027,1.023
2026/05/14 10:30:04.427,-0.058,0.026,1.026
2026/05/14 10:30:04.447,-0.055,0.029,1.024
2026/05/14 10:30:04.467,-0.055,0.027,1.02
2026/05/14 10:30:04.487,-0.056,0.03,1.025
2026/05/14 10:30:04.507,-0.057,0.031,1.027
2026/05/14 10:30:04.527,-0.06,0.031,1.024
2026/05/14 10:30:04.547,-0.058,0.03,1.019
2026/05/14 10:30:04.567,-0.063,0.03,1.026
2026/05/14 10:30:04.587,-0.058,0.03,1.027
2026/05/14 10:30:04.607,-0.058,0.029,1.026
2026/05/14 10:30:04.627,-0.058,0.03,1.02
2026/05/14 10:30:04.647,-0.056,0.028,1.022
2026/05/14 10:30:04.667,-0.058,0.027,1.024
2026/05/14 10:30:04.687,-0.057,0.029,1.021
2026/05/14 10:30:04.707,-0.057,0.026,1.022
2026/05/14 10:30:04.727,-0.056,0.028,1.029
2026/05/14 10:30:04.747,-0.058,0.03,1.022
2026/05/14 10:30:04.767,-0.054,0.029,1.024
2026/05/14 10:30:04.787,-0.056,0.028,1.023
2026/05/14 10:30:04.807,-0.055,0.029,1.024
2026/05/14 10:30:04.827,-0.054,0.031,1.022
2026/05/14 10:30:04.847,-0.055,0.029,1.023
2026/05/14 10:30:04.868,-0.055,0.028,1.024
2026/05/14 10:30:04.888,-0.054,0.032,1.026
2026/05/14 10:30:04.908,-0.057,0.029,1.025
2026/05/14 10:30:04.928,-0.056,0.027,1.026
2026/05/14 10:30:04.948,-0.055,0.027,1.023
2026/05/14 10:30:04.968,-0.057,0.028,1.023
2026/05/14 10:30:04.988,-0.058,0.029,1.023
2026/05/14 10:30:05.008,-0.058,0.032,1.024
2026/05/14 10:30:05.028,-0.057,0.029,1.023
2026/05/14 10:30:05.048,-0.055,0.028,1.025
2026/05/14 10:30:05.068,-0.058,0.027,1.025
2026/05/14 10:30:05.088,-0.053,0.027,1.023
2026/05/14 10:30:05.108,-0.054,0.03,1.024
2026/05/14 10:30:05.128,-0.058,0.03,1.024
2026/05/14 10:30:05.148,-0.058,0.026,1.025
2026/05/14 10:30:05.168,-0.056,0.028,1.026
2026/05/14 10:30:05.188,-0.06,0.028,1.024
2026/05/14 10:30:05.208,-0.052,0.03,1.023
2026/05/14 10:30:05.228,-0.055,0.028,1.025
2026/05/14 10:30:05.248,-0.053,0.032,1.022
2026/05/14 10:30:05.268,-0.06,0.027,1.02
2026/05/14 10:30:05.288,-0.054,0.03,1.023
2026/05/14 10:30:05.308,-0.057,0.032,1.022
2026/05/14 10:30:05.328,-0.056,0.027,1.022
2026/05/14 10:30:05.348,-0.056,0.032,1.02
2026/05/14 10:30:05.368,-0.057,0.028,1.021
2026/05/14 10:30:05.388,-0.054,0.031,1.022
2026/05/14 10:30:05.408,-0.052,0.032,1.023
2026/05/14 10:30:05.428,-0.056,0.028,1.026
2026/05/14 10:30:05.448,-0.053,0.027,1.02
2026/05/14 10:30:05.468,-0.057,0.031,1.02
2026/05/14 10:30:05.488,-0.056,0.025,1.028
2026/05/14 10:30:05.509,-0.058,0.028,1.025
2026/05/14 10:30:05.529,-0.054,0.031,1.023
2026/05/14 10:30:05.549,-0.055,0.031,1.022
2026/05/14 10:30:05.569,-0.055,0.031,1.022
2026/05/14 10:30:05.589,-0.058,0.03,1.022
2026/05/14 10:30:05.609,-0.053,0.029,1.025
2026/05/14 10:30:05.629,-0.057,0.029,1.02
2026/05/14 10:30:05.649,-0.055,0.026,1.031
2026/05/14 10:30:05.669,-0.053,0.027,1.026
2026/05/14 10:30:05.689,-0.058,0.03,1.023
2026/05/14 10:30:05.709,-0.057,0.024,1.026
2026/05/14 10:30:05.729,-0.057,0.029,1.026
2026/05/14 10:30:05.749,-0.058,0.027,1.022
2026/05/14 10:30:05.769,-0.06,0.034,1.027
2026/05/14 10:30:05.789,-0.055,0.033,1.025
2026/05/14 10:30:05.809,-0.059,0.032,1.027
2026/05/14 10:30:05.829,-0.058,0.033,1.024
2026/05/14 10:30:05.849,-0.054,0.029,1.025
2026/05/14 10:30:05.869,-0.059,0.029,1.025
2026/05/14 10:30:05.889,-0.058,0.025,1.022
2026/05/14 10:30:05.909,-0.06,0.031,1.023
2026/05/14 10:30:05.929,-0.055,0.029,1.022
2026/05/14 10:30:05.949,-0.058,0.03,1.024
2026/05/14 10:30:05.969,-0.057,0.029,1.02
2026/05/14 10:30:05.989,-0.052,0.028,1.021
2026/05/14 10:30:06.009,-0.057,0.03,1.026
2026/05/14 10:30:06.029,-0.055,0.03,1.026
2026/05/14 10:30:06.049,-0.054,0.033,1.014
2026/05/14 10:30:06.069,-0.054,0.029,1.023
2026/05/14 10:30:06.089,-0.059,0.031,1.033
2026/05/14 10:30:06.109,-0.057,0.025,1.023
2026/05/14 10:30:06.129,-0.056,0.029,1.024
2026/05/14 10:30:06.149,-0.062,0.03,1.024
2026/05/14 10:30:06.169,-0.055,0.031,1.024
2026/05/14 10:30:06.190,-0.058,0.026,1.025
2026/05/14 10:30:06.210,-0.055,0.028,1.026
2026/05/14 10:30:06.230,-0.055,0.027,1.027
2026/05/14 10:30:06.250,-0.058,0.024,1.03
2026/05/14 10:30:06.270,-0.05,0.033,1.017
2026/05/14 10:30:06.290,-0.057,0.025,1.028
2026/05/14 10:30:06.310,-0.054,0.029,1.021
2026/05/14 10:30:06.330,-0.052,0.038,1.003
2026/05/14 10:30:06.350,-0.051,0.027,1.023
2026/05/14 10:30:06.370,-0.058,0.025,1.024
2026/05/14 10:30:06.390,-0.06,0.025,1.02
2026/05/14 10:30:06.410,-0.061,0.017,1.05
2026/05/14 10:30:06.430,-0.062,0.032,1.028
2026/05/14 10:30:06.450,-0.059,0.025,1.029
2026/05/14 10:30:06.470,-0.057,0.019,1.058
2026/05/14 10:30:06.490,-0.051,0.033,1.016
2026/05/14 10:30:06.510,-0.053,0.031,1.011
2026/05/14 10:30:06.530,-0.056,0.04,0.984
2026/05/14 10:30:06.550,-0.055,0.032,1.025
2026/05/14 10:30:06.570,-0.053,0.03,1.025
2026/05/14 10:30:06.590,-0.052,0.03,1.027
2026/05/14 10:30:06.610,-0.054,0.025,1.031
2026/05/14 10:30:06.630,-0.057,0.027,1.033
2026/05/14 10:30:06.650,-0.058,0.032,1.016
2026/05/14 10:30:06.670,-0.06,0.026,1.034
2026/05/14 10:30:06.690,-0.06,0.022,1.038
2026/05/14 10:30:06.710,-0.054,0.032,1.017
2026/05/14 10:30:06.730,-0.056,0.039,1.007
2026/05/14 10:30:06.750,-0.055,0.029,1.02
2026/05/14 10:30:06.770,-0.057,0.027,1.022
2026/05/14 10:30:06.790,-0.05,0.036,1.013
2026/05/14 10:30:06.810,-0.052,0.037,1.008
2026/05/14 10:30:06.830,-0.055,0.045,0.995
2026/05/14 10:30:06.850,-0.054,0.03,1.009
2026/05/14 10:30:06.871,-0.051,0.039,1.0
2026/05/14 10:30:06.891,-0.058,0.031,1.016
2026/05/14 10:30:06.911,-0.056,0.028,1.023
2026/05/14 10:30:06.931,-0.055,0.027,1.025
2026/05/14 10:30:06.951,-0.057,0.029,1.025
2026/05/14 10:30:06.971,-0.05,0.035,1.011
2026/05/14 10:30:06.991,-0.051,0.037,1.009
2026/05/14 10:30:07.011,-0.055,0.024,1.028
2026/05/14 10:30:07.031,-0.059,0.03,1.033
2026/05/14 10:30:07.051,-0.057,0.034,1.02
2026/05/14 10:30:07.071,-0.054,0.022,1.033
2026/05/14 10:30:07.091,-0.053,0.03,1.024
2026/05/14 10:30:07.111,-0.054,0.028,1.026
2026/05/14 10:30:07.131,-0.054,0.03,1.019
2026/05/14 10:30:07.151,-0.055,0.029,1.024
2026/05/14 10:30:07.171,-0.058,0.027,1.025
2026/05/14 10:30:07.191,-0.056,0.03,1.025
2026/05/14 10:30:07.211,-0.057,0.028,1.023
2026/05/14 10:30:07.231,-0.057,0.033,1.02
2026/05/14 10:30:07.251,-0.057,0.027,1.026
2026/05/14 10:30:07.271,-0.058,0.026,1.021
2026/05/14 10:30:07.291,-0.055,0.031,1.021
2026/05/14 10:30:07.311,-0.058,0.031,1.023
2026/05/14 10:30:07.331,-0.059,0.028,1.022
2026/05/14 10:30:07.351,-0.053,0.033,1.019
2026/05/14 10:30:07.371,-0.054,0.028,1.024
2026/05/14 10:30:07.391,-0.055,0.03,1.025
2026/05/14 10:30:07.411,-0.057,0.034,1.021
2026/05/14 10:30:07.431,-0.058,0.026,1.021
2026/05/14 10:30:07.451,-0.057,0.028,1.021
2026/05/14 10:30:07.471,-0.055,0.027,1.021
2026/05/14 10:30:07.491,-0.054,0.028,1.026
2026/05/14 10:30:07.511,-0.055,0.03,1.024
2026/05/14 10:30:07.531,-0.055,0.029,1.027
2026/05/14 10:30:07.552,-0.057,0.031,1.024
2026/05/14 10:30:07.572,-0.057,0.029,1.024
2026/05/14 10:30:07.592,-0.055,0.028,1.021
2026/05/14 10:30:07.612,-0.054,0.028,1.023
2026/05/14 10:30:07.632,-0.056,0.027,1.024
2026/05/14 10:30:07.652,-0.055,0.031,1.024
2026/05/14 10:30:07.672,-0.058,0.025,1.023
2026/05/14 10:30:07.692,-0.055,0.027,1.02
2026/05/14 10:30:07.712,-0.057,0.028,1.025
2026/05/14 10:30:07.732,-0.052,0.028,1.023
2026/05/14 10:30:07.752,-0.058,0.027,1.024
2026/05/14 10:30:07.772,-0.054,0.031,1.022
2026/05/14 10:30:07.792,-0.056,0.027,1.025
2026/05/14 10:30:07.812,-0.057,0.026,1.025
2026/05/14 10:30:07.832,-0.051,0.029,1.024
2026/05/14 10:30:07.852,-0.06,0.029,1.025
2026/05/14 10:30:07.872,-0.056,0.029,1.028
2026/05/14 10:30:07.892,-0.057,0.028,1.021
2026/05/14 10:30:07.912,-0.058,0.027,1.019
2026/05/14 10:30:07.932,-0.058,0.032,1.021
2026/05/14 10:30:07.952,-0.056,0.031,1.022
2026/05/14 10:30:07.972,-0.054,0.031,1.027
2026/05/14 10:30:07.992,-0.058,0.027,1.025
2026/05/14 10:30:08.012,-0.058,0.029,1.02
2026/05/14 10:30:08.032,-0.057,0.028,1.022
2026/05/14 10:30:08.052,-0.059,0.028,1.02
2026/05/14 10:30:08.072,-0.057,0.029,1.026
2026/05/14 10:30:08.092,-0.06,0.028,1.022
2026/05/14 10:30:08.112,-0.059,0.03,1.022
2026/05/14 10:30:08.132,-0.058,0.028,1.022
2026/05/14 10:30:08.152,-0.055,0.031,1.025
2026/05/14 10:30:08.172,-0.056,0.031,1.021
2026/05/14 10:30:08.192,-0.051,0.039,1.015
2026/05/14 10:30:08.212,-0.061,0.035,1.026
2026/05/14 10:30:08.233,-0.047,0.038,1.019
2026/05/14 10:30:08.253,-0.055,0.027,1.02
2026/05/14 10:30:08.273,-0.054,0.027,1.025
2026/05/14 10:30:08.293,-0.054,0.025,1.02
2026/05/14 10:30:08.313,-0.031,0.06,0.961
2026/05/14 10:30:08.333,0.148,0.11,1.019
2026/05/14 10:30:08.353,-0.005,0.107,0.957
2026/05/14 10:30:08.373,-0.228,0.21,0.867
2026/05/14 10:30:08.393,-0.035,0.022,1.053
2026/05/14 10:30:08.413,-0.078,0.024,1.008
2026/05/14 10:30:08.433,-0.067,0.034,1.028
2026/05/14 10:30:08.453,-0.062,0.031,1.039
2026/05/14 10:30:08.473,-0.063,0.015,1.027
2026/05/14 10:30:08.493,-0.052,0.024,1.019
2026/05/14 10:30:08.513,-0.053,0.03,1.032
2026/05/14 10:30:08.533,-0.054,0.045,1.023
2026/05/14 10:30:08.553,-0.058,0.041,1.026
2026/05/14 10:30:08.573,-0.049,0.054,1.022
2026/05/14 10:30:08.593,-0.063,0.03,1.023
2026/05/14 10:30:08.613,-0.064,0.026,1.019
2026/05/14 10:30:08.633,-0.059,0.021,1.019
2026/05/14 10:30:08.653,-0.055,0.025,1.028
2026/05/14 10:30:08.673,-0.052,0.024,1.02
2026/05/14 10:30:08.693,-0.058,0.023,1.025
2026/05/14 10:30:08.713,-0.063,0.028,1.027
2026/05/14 10:30:08.733,-0.064,0.018,1.02
2026/05/14 10:30:08.753,-0.066,0.02,1.018
2026/05/14 10:30:08.773,-0.06,0.029,1.019
2026/05/14 10:30:08.793,-0.052,0.033,1.024
2026/05/14 10:30:08.813,-0.048,0.039,1.022
2026/05/14 10:30:08.833,-0.049,0.038,1.026
2026/05/14 10:30:08.853,-0.052,0.033,1.024
2026/05/14 10:30:08.874,-0.058,0.034,1.021
2026/05/14 10:30:08.894,-0.063,0.032,1.022
2026/05/14 10:30:08.914,-0.061,0.027,1.024
2026/05/14 10:30:08.934,-0.056,0.035,1.024
2026/05/14 10:30:08.954,-0.054,0.023,1.021
2026/05/14 10:30:08.974,-0.056,0.02,1.02
2026/05/14 10:30:08.994,-0.055,0.017,1.027
2026/05/14 10:30:09.014,-0.057,0.021,1.023
2026/05/14 10:30:09.034,-0.055,0.03,1.024
2026/05/14 10:30:09.054,-0.055,0.033,1.021
2026/05/14 10:30:09.074,-0.062,0.034,1.027
2026/05/14 10:30:09.094,-0.05,0.036,1.021
2026/05/14 10:30:09.114,-0.053,0.033,1.023
2026/05/14 10:30:09.134,-0.049,0.03,1.024
2026/05/14 10:30:09.154,-0.056,0.034,1.027
2026/05/14 10:30:09.174,-0.054,0.032,1.023
2026/05/14 10:30:09.194,-0.059,0.031,1.026
2026/05/14 10:30:09.214,-0.056,0.028,1.023
2026/05/14 10:30:09.234,-0.064,0.026,1.025
2026/05/14 10:30:09.254,-0.06,0.02,1.026
2026/05/14 10:30:09.274,-0.056,0.024,1.021
2026/05/14 10:30:09.294,-0.056,0.028,1.026
2026/05/14 10:30:09.314,-0.051,0.033,1.022
2026/05/14 10:30:09.334,-0.053,0.032,1.02
2026/05/14 10:30:09.354,-0.051,0.029,1.019
2026/05/14 10:30:09.374,-0.056,0.033,1.03
2026/05/14 10:30:09.394,-0.056,0.034,1.023
2026/05/14 10:30:09.414,-0.059,0.033,1.025
2026/05/14 10:30:09.434,-0.055,0.032,1.022
2026/05/14 10:30:09.454,-0.054,0.031,1.023
2026/05/14 10:30:09.474,-0.056,0.029,1.023
2026/05/14 10:30:09.494,-0.059,0.023,1.023
2026/05/14 10:30:09.514,-0.058,0.021,1.021
2026/05/14 10:30:09.535,-0.056,0.024,1.022
2026/05/14 10:30:09.555,-0.057,0.027,1.025
2026/05/14 10:30:09.575,-0.058,0.028,1.025
2026/05/14 10:30:09.595,-0.063,0.027,1.023
2026/05/14 10:30:09.615,-0.057,0.032,1.024
2026/05/14 10:30:09.635,-0.056,0.034,1.021
2026/05/14 10:30:09.655,-0.05,0.032,1.021
2026/05/14 10:30:09.675,-0.052,0.031,1.021
2026/05/14 10:30:09.695,-0.057,0.029,1.025
2026/05/14 10:30:09.715,-0.056,0.029,1.023
2026/05/14 10:30:09.735,-0.055,0.028,1.026
2026/05/14 10:30:09.755,-0.057,0.025,1.026
2026/05/14 10:30:09.775,-0.058,0.031,1.03
2026/05/14 10:30:09.795,-0.058,0.031,1.021
2026/05/14 10:30:09.815,-0.055,0.028,1.026
2026/05/14 10:30:09.835,-0.058,0.027,1.023
2026/05/14 10:30:09.855,-0.06,0.026,1.021
2026/05/14 10:30:09.875,-0.052,0.032,1.021
2026/05/14 10:30:09.895,-0.056,0.031,1.024
2026/05/14 10:30:09.915,-0.054,0.03,1.021
2026/05/14 10:30:09.935,-0.052,0.029,1.024
2026/05/14 10:30:09.955,-0.054,0.029,1.027
2026/05/14 10:30:09.975,-0.058,0.03,1.026
2026/05/14 10:30:09.995,-0.054,0.026,1.026
2026/05/14 10:30:10.015,-0.057,0.03,1.023
2026/05/14 10:30:10.035,-0.056,0.029,1.022
2026/05/14 10:30:10.055,-0.057,0.028,1.02
2026/05/14 10:30:10.075,-0.06,0.03,1.023
2026/05/14 10:30:10.095,-0.057,0.028,1.028
2026/05/14 10:30:10.115,-0.052,0.032,1.023
2026/05/14 10:30:10.135,-0.054,0.03,1.024
2026/05/14 10:30:10.155,-0.054,0.031,1.025
2026/05/14 10:30:10.175,-0.055,0.028,1.021
2026/05/14 10:30:10.196,-0.054,0.031,1.023
2026/05/14 10:30:10.216,-0.056,0.03,1.024
2026/05/14 10:30:10.236,-0.053,0.032,1.023
2026/05/14 10:30:10.256,-0.058,0.027,1.023
2026/05/14 10:30:10.276,-0.057,0.029,1.026
2026/05/14 10:30:10.296,-0.057,0.028,1.022
2026/05/14 10:30:10.316,-0.054,0.025,1.026
2026/05/14 10:30:10.336,-0.055,0.029,1.024
2026/05/14 10:30:10.356,-0.06,0.032,1.022
2026/05/14 10:30:10.376,-0.057,0.03,1.021
2026/05/14 10:30:10.396,-0.053,0.035,1.02
2026/05/14 10:30:10.416,-0.053,0.034,1.022
2026/05/14 10:30:10.436,-0.056,0.029,1.023
2026/05/14 10:30:10.456,-0.058,0.033,1.021
2026/05/14 10:30:10.476,-0.058,0.029,1.025
2026/05/14 10:30:10.496,-0.056,0.027,1.025
2026/05/14 10:30:10.516,-0.058,0.027,1.023
2026/05/14 10:30:10.536,-0.057,0.027,1.022
2026/05/14 10:30:10.556,-0.058,0.027,1.019
2026/05/14 10:30:10.576,-0.058,0.03,1.024
2026/05/14 10:30:10.596,-0.053,0.029,1.025
2026/05/14 10:30:10.616,-0.053,0.032,1.02
2026/05/14 10:30:10.636,-0.057,0.027,1.025
2026/05/14 10:30:10.656,-0.052,0.028,1.02
2026/05/14 10:30:10.676,-0.055,0.032,1.025
2026/05/14 10:30:10.696,-0.059,0.029,1.021
2026/05/14 10:30:10.716,-0.055,0.026,1.024
2026/05/14 10:30:10.736,-0.057,0.028,1.023
2026/05/14 10:30:10.756,-0.058,0.027,1.021
2026/05/14 10:30:10.776,-0.059,0.028,1.025
2026/05/14 10:30:10.796,-0.063,0.025,1.022
2026/05/14 10:30:10.816,-0.056,0.027,1.026
2026/05/14 10:30:10.836,-0.056,0.032,1.026
2026/05/14 10:30:10.856,-0.056,0.031,1.025
2026/05/14 10:30:10.877,-0.053,0.031,1.021
2026/05/14 10:30:10.897,-0.06,0.031,1.021
2026/05/14 10:30:10.917,-0.057,0.027,1.024
2026/05/14 10:30:10.937,-0.058,0.029,1.022
2026/05/14 10:30:10.957,-0.058,0.03,1.024
2026/05/14 10:30:10.977,-0.054,0.031,1.023
2026/05/14 10:30:10.997,-0.056,0.028,1.021
2026/05/14 10:30:11.017,-0.059,0.026,1.024
2026/05/14 10:30:11.037,-0.057,0.029,1.021
2026/05/14 10:30:11.057,-0.052,0.027,1.021
2026/05/14 10:30:11.077,-0.057,0.032,1.019
2026/05/14 10:30:11.097,-0.057,0.03,1.022
2026/05/14 10:30:11.117,-0.057,0.033,1.024
2026/05/14 10:30:11.137,-0.056,0.03,1.022
2026/05/14 10:30:11.157,-0.055,0.034,1.023
2026/05/14 10:30:11.177,-0.054,0.03,1.026
2026/05/14 10:30:11.197,-0.053,0.028,1.026
2026/05/14 10:30:11.217,-0.058,0.028,1.028
2026/05/14 10:30:11.237,-0.058,0.029,1.024
2026/05/14 10:30:11.257,-0.061,0.027,1.029
2026/05/14 10:30:11.277,-0.054,0.029,1.027
2026/05/14 10:30:11.297,-0.056,0.031,1.025
2026/05/14 10:30:11.317,-0.057,0.031,1.023
2026/05/14 10:30:11.337,-0.059,0.029,1.026
2026/05/14 10:30:11.357,-0.056,0.029,1.023
2026/05/14 10:30:11.377,-0.053,0.033,1.024
2026/05/14 10:30:11.397,-0.054,0.026,1.022
2026/05/14 10:30:11.417,-0.054,0.028,1.024
2026/05/14 10:30:11.437,-0.054,0.031,1.02
2026/05/14 10:30:11.457,-0.056,0.03,1.023
2026/05/14 10:30:11.477,-0.057,0.027,1.027
2026/05/14 10:30:11.497,-0.058,0.024,1.024
2026/05/14 10:30:11.517,-0.057,0.028,1.022
2026/05/14 10:30:11.538,-0.055,0.027,1.022
2026/05/14 10:30:11.558,-0.056,0.028,1.021
2026/05/14 10:30:11.578,-0.057,0.029,1.018
2026/05/14 10:30:11.598,-0.057,0.031,1.027
2026/05/14 10:30:11.618,-0.056,0.026,1.026
2026/05/14 10:30:11.638,-0.056,0.027,1.025
2026/05/14 10:30:11.658,-0.055,0.033,1.023
2026/05/14 10:30:11.678,-0.057,0.03,1.025
2026/05/14 10:30:11.698,-0.056,0.03,1.025
2026/05/14 10:30:11.718,-0.057,0.026,1.025
2026/05/14 10:30:11.738,-0.054,0.029,1.022
2026/05/14 10:30:11.758,-0.059,0.029,1.024
2026/05/14 10:30:11.778,-0.059,0.027,1.022
2026/05/14 10:30:11.798,-0.061,0.028,1.028
2026/05/14 10:30:11.818,-0.06,0.033,1.024
2026/05/14 10:30:11.838,-0.06,0.027,1.024
2026/05/14 10:30:11.858,-0.057,0.033,1.023
2026/05/14 10:30:11.878,-0.057,0.024,1.025
2026/05/14 10:30:11.898,-0.053,0.031,1.027
2026/05/14 10:30:11.918,-0.059,0.027,1.025
2026/05/14 10:30:11.938,-0.058,0.031,1.025
2026/05/14 10:30:11.958,-0.055,0.032,1.027
2026/05/14 10:30:11.978,-0.06,0.026,1.023
2026/05/14 10:30:11.998,-0.055,0.031,1.023
2026/05/14 10:30:12.018,-0.056,0.029,1.023
2026/05/14 10:30:12.038,-0.055,0.025,1.019
2026/05/14 10:30:12.058,-0.059,0.026,1.023
2026/05/14 10:30:12.078,-0.059,0.028,1.023
2026/05/14 10:30:12.098,-0.054,0.029,1.025
2026/05/14 10:30:12.118,-0.054,0.032,1.023
2026/05/14 10:30:12.138,-0.058,0.031,1.024
2026/05/14 10:30:12.158,-0.058,0.031,1.027
2026/05/14 10:30:12.178,-0.055,0.032,1.024
2026/05/14 10:30:12.199,-0.058,0.028,1.028
2026/05/14 10:30:12.219,-0.055,0.031,1.025
2026/05/14 10:30:12.239,-0.056,0.031,1.023
2026/05/14 10:30:12.259,-0.055,0.022,1.023
2026/05/14 10:30:12.279,-0.056,0.025,1.021
2026/05/14 10:30:12.299,-0.055,0.027,1.022
2026/05/14 10:30:12.319,-0.055,0.028,1.027
2026/05/14 10:30:12.339,-0.062,0.03,1.021
2026/05/14 10:30:12.359,-0.056,0.027,1.026
2026/05/14 10:30:12.379,-0.057,0.031,1.022
2026/05/14 10:30:12.399,-0.056,0.029,1.023
2026/05/14 10:30:12.419,-0.056,0.029,1.023
2026/05/14 10:30:12.439,-0.057,0.028,1.025
2026/05/14 10:30:12.459,-0.056,0.031,1.022
2026/05/14 10:30:12.479,-0.057,0.028,1.02
2026/05/14 10:30:12.499,-0.057,0.026,1.023
2026/05/14 10:30:12.519,-0.058,0.027,1.023
2026/05/14 10:30:12.539,-0.056,0.034,1.023
2026/05/14 10:30:12.559,-0.057,0.03,1.026
2026/05/14 10:30:12.579,-0.061,0.032,1.024
2026/05/14 10:30:12.599,-0.056,0.032,1.025
2026/05/14 10:30:12.619,-0.054,0.032,1.023
2026/05/14 10:30:12.639,-0.054,0.029,1.023
2026/05/14 10:30:12.659,-0.057,0.027,1.024
2026/05/14 10:30:12.679,-0.057,0.027,1.023
2026/05/14 10:30:12.699,-0.053,0.029,1.021
2026/05/14 10:30:12.719,-0.053,0.028,1.023
2026/05/14 10:30:12.739,-0.06,0.032,1.023
2026/05/14 10:30:12.759,-0.057,0.031,1.023
2026/05/14 10:30:12.779,-0.057,0.028,1.02
2026/05/14 10:30:12.799,-0.06,0.03,1.025
2026/05/14 10:30:12.819,-0.055,0.028,1.022
2026/05/14 10:30:12.839,-0.058,0.03,1.022
2026/05/14 10:30:12.860,-0.056,0.024,1.026
2026/05/14 10:30:12.880,-0.058,0.029,1.021
2026/05/14 10:30:12.900,-0.055,0.03,1.022
2026/05/14 10:30:12.920,-0.053,0.032,1.02
2026/05/14 10:30:12.940,-0.056,0.034,1.028
2026/05/14 10:30:12.960,-0.056,0.025,1.023
2026/05/14 10:30:12.980,-0.052,0.027,1.025
2026/05/14 10:30:13.000,-0.06,0.031,1.025
2026/05/14 10:30:13.020,-0.057,0.031,1.023
2026/05/14 10:30:13.040,-0.062,0.026,1.023
2026/05/14 10:30:13.060,-0.057,0.028,1.023
2026/05/14 10:30:13.080,-0.054,0.03,1.025
2026/05/14 10:30:13.100,-0.056,0.028,1.022
2026/05/14 10:30:13.120,-0.06,0.029,1.021
2026/05/14 10:30:13.140,-0.056,0.027,1.02
2026/05/14 10:30:13.160,-0.057,0.031,1.024
2026/05/14 10:30:13.180,-0.053,0.031,1.025
2026/05/14 10:30:13.200,-0.057,0.03,1.022
2026/05/14 10:30:13.220,-0.058,0.03,1.025
2026/05/14 10:30:13.240,-0.057,0.028,1.023
2026/05/14 10:30:13.260,-0.056,0.025,1.023
2026/05/14 10:30:13.280,-0.053,0.029,1.021
2026/05/14 10:30:13.300,-0.058,0.026,1.024
2026/05/14 10:30:13.320,-0.056,0.025,1.021
2026/05/14 10:30:13.340,-0.056,0.029,1.024
2026/05/14 10:30:13.360,-0.057,0.024,1.023
2026/05/14 10:30:13.380,-0.055,0.025,1.022
2026/05/14 10:30:13.400,-0.059,0.027,1.022
2026/05/14 10:30:13.420,-0.057,0.033,1.025
2026/05/14 10:30:13.440,-0.055,0.03,1.027
2026/05/14 10:30:13.460,-0.055,0.027,1.026
2026/05/14 10:30:13.480,-0.057,0.03,1.025
2026/05/14 10:30:13.500,-0.058,0.03,1.022
2026/05/14 10:30:13.521,-0.052,0.028,1.021
2026/05/14 10:30:13.541,-0.057,0.027,1.024
2026/05/14 10:30:13.561,-0.056,0.025,1.022
2026/05/14 10:30:13.581,-0.059,0.03,1.022
2026/05/14 10:30:13.601,-0.054,0.03,1.019
2026/05/14 10:30:13.621,-0.054,0.029,1.025
2026/05/14 10:30:13.641,-0.06,0.031,1.026
2026/05/14 10:30:13.661,-0.056,0.026,1.026
2026/05/14 10:30:13.681,-0.058,0.03,1.025
2026/05/14 10:30:13.701,-0.055,0.028,1.026
2026/05/14 10:30:13.721,-0.054,0.031,1.026
2026/05/14 10:30:13.741,-0.052,0.031,1.024
2026/05/14 10:30:13.761,-0.057,0.026,1.022
2026/05/14 10:30:13.781,-0.061,0.027,1.025
2026/05/14 10:30:13.801,-0.056,0.029,1.024
2026/05/14 10:30:13.821,-0.054,0.027,1.021
2026/05/14 10:30:13.841,-0.057,0.026,1.018
2026/05/14 10:30:13.861,-0.058,0.03,1.021
2026/05/14 10:30:13.881,-0.061,0.03,1.023
2026/05/14 10:30:13.901,-0.058,0.03,1.018
2026/05/14 10:30:13.921,-0.057,0.031,1.028
2026/05/14 10:30:13.941,-0.057,0.027,1.027
2026/05/14 10:30:13.961,-0.056,0.029,1.025
2026/05/14 10:30:13.981,-0.057,0.032,1.022
2026/05/14 10:30:14.001,-0.059,0.029,1.023
2026/05/14 10:30:14.021,-0.056,0.029,1.024
2026/05/14 10:30:14.041,-0.059,0.03,1.021
2026/05/14 10:30:14.061,-0.057,0.032,1.018
2026/05/14 10:30:14.081,-0.057,0.032,1.01
2026/05/14 10:30:14.101,-0.058,0.023,1.024
2026/05/14 10:30:14.121,-0.058,0.028,1.019
2026/05/14 10:30:14.141,-0.057,0.029,1.023
2026/05/14 10:30:14.162,-0.056,0.028,1.023
2026/05/14 10:30:14.182,-0.057,0.029,1.025
2026/05/14 10:30:14.202,-0.058,0.03,1.019
2026/05/14 10:30:14.222,-0.057,0.028,1.021
2026/05/14 10:30:14.242,-0.054,0.027,1.027
2026/05/14 10:30:14.262,-0.051,0.032,1.022
2026/05/14 10:30:14.282,-0.058,0.029,1.023
2026/05/14 10:30:14.302,-0.056,0.028,1.026
2026/05/14 10:30:14.322,-0.06,0.028,1.025
2026/05/14 10:30:14.342,-0.056,0.027,1.023
2026/05/14 10:30:14.362,-0.054,0.034,1.029
2026/05/14 10:30:14.382,-0.058,0.025,1.025
2026/05/14 10:30:14.402,-0.058,0.031,1.025
2026/05/14 10:30:14.422,-0.057,0.028,1.027
2026/05/14 10:30:14.442,-0.057,0.032,1.025
2026/05/14 10:30:14.462,-0.057,0.026,1.023
2026/05/14 10:30:14.482,-0.058,0.029,1.021
2026/05/14 10:30:14.502,-0.056,0.03,1.025
2026/05/14 10:30:14.522,-0.056,0.027,1.025
2026/05/14 10:30:14.542,-0.056,0.03,1.023
2026/05/14 10:30:14.562,-0.056,0.027,1.022
2026/05/14 10:30:14.582,-0.059,0.029,1.025
2026/05/14 10:30:14.602,-0.058,0.027,1.023
2026/05/14 10:30:14.622,-0.054,0.03,1.024
2026/05/14 10:30:14.642,-0.057,0.027,1.025
2026/05/14 10:30:14.662,-0.057,0.031,1.022
2026/05/14 10:30:14.682,-0.057,0.031,1.022
2026/05/14 10:30:14.702,-0.057,0.028,1.023
2026/05/14 10:30:14.722,-0.054,0.032,1.025
2026/05/14 10:30:14.742,-0.058,0.026,1.023
2026/05/14 10:30:14.762,-0.055,0.028,1.023
2026/05/14 10:30:14.782,-0.056,0.03,1.024
2026/05/14 10:30:14.802,-0.055,0.034,1.026
2026/05/14 10:30:14.823,-0.054,0.031,1.026
2026/05/14 10:30:14.843,-0.057,0.029,1.024
2026/05/14 10:30:14.863,-0.056,0.028,1.024
2026/05/14 10:30:14.883,-0.06,0.029,1.024
2026/05/14 10:30:14.903,-0.054,0.034,1.016
2026/05/14 10:30:14.923,-0.058,0.028,1.025
2026/05/14 10:30:14.943,-0.056,0.032,1.02
2026/05/14 10:30:14.963,-0.055,0.028,1.023
2026/05/14 10:30:14.983,-0.057,0.029,1.025
2026/05/14 10:30:15.003,-0.059,0.03,1.026
2026/05/14 10:30:15.023,-0.055,0.029,1.022
2026/05/14 10:30:15.043,-0.062,0.027,1.023
2026/05/14 10:30:15.063,-0.057,0.031,1.022
2026/05/14 10:30:15.083,-0.059,0.029,1.023
2026/05/14 10:30:15.103,-0.057,0.028,1.022
2026/05/14 10:30:15.123,-0.058,0.028,1.023
2026/05/14 10:30:15.143,-0.055,0.034,1.024
2026/05/14 10:30:15.163,-0.057,0.03,1.023
2026/05/14 10:30:15.183,-0.057,0.031,1.024
2026/05/14 10:30:15.203,-0.057,0.029,1.023
2026/05/14 10:30:15.223,-0.054,0.031,1.025
2026/05/14 10:30:15.243,-0.05,0.03,1.023
2026/05/14 10:30:15.263,-0.058,0.027,1.022
2026/05/14 10:30:15.283,-0.055,0.031,1.024
2026/05/14 10:30:15.303,-0.056,0.029,1.019
2026/05/14 10:30:15.323,-0.056,0.031,1.02
2026/05/14 10:30:15.343,-0.057,0.031,1.027
2026/05/14 10:30:15.363,-0.055,0.026,1.022
2026/05/14 10:30:15.383,-0.058,0.028,1.023
2026/05/14 10:30:15.403,-0.057,0.032,1.025
2026/05/14 10:30:15.423,-0.053,0.034,1.026
2026/05/14 10:30:15.443,-0.054,0.033,1.024
2026/05/14 10:30:15.464,-0.054,0.033,1.022
2026/05/14 10:30:15.484,-0.059,0.031,1.022
2026/05/14 10:30:15.504,-0.056,0.027,1.025
2026/05/14 10:30:15.524,-0.059,0.028,1.019
2026/05/14 10:30:15.544,-0.055,0.028,1.02
2026/05/14 10:30:15.564,-0.06,0.028,1.022
2026/05/14 10:30:15.584,-0.057,0.026,1.024
2026/05/14 10:30:15.604,-0.054,0.028,1.021
2026/05/14 10:30:15.624,-0.058,0.029,1.024
2026/05/14 10:30:15.644,-0.056,0.024,1.026
2026/05/14 10:30:15.664,-0.052,0.028,1.029
2026/05/14 10:30:15.684,-0.053,0.028,1.024
2026/05/14 10:30:15.704,-0.058,0.033,1.024
2026/05/14 10:30:15.724,-0.055,0.03,1.023
2026/05/14 10:30:15.744,-0.058,0.028,1.022
2026/05/14 10:30:15.764,-0.056,0.028,1.024
2026/05/14 10:30:15.784,-0.054,0.027,1.025
2026/05/14 10:30:15.804,-0.057,0.029,1.024
2026/05/14 10:30:15.824,-0.058,0.032,1.025
2026/05/14 10:30:15.844,-0.054,0.026,1.024
2026/05/14 10:30:15.864,-0.057,0.03,1.022
2026/05/14 10:30:15.884,-0.06,0.031,1.022
2026/05/14 10:30:15.904,-0.056,0.03,1.023
2026/05/14 10:30:15.924,-0.054,0.03,1.023
2026/05/14 10:30:15.944,-0.059,0.03,1.024
2026/05/14 10:30:15.964,-0.062,0.029,1.022
2026/05/14 10:30:15.984,-0.052,0.029,1.023
2026/05/14 10:30:16.004,-0.057,0.027,1.023
2026/05/14 10:30:16.024,-0.058,0.027,1.019
2026/05/14 10:30:16.044,-0.053,0.028,1.023
2026/05/14 10:30:16.064,-0.062,0.024,1.026
2026/05/14 10:30:16.084,-0.054,0.027,1.026
2026/05/14 10:30:16.104,-0.055,0.029,1.024
2026/05/14 10:30:16.125,-0.06,0.032,1.021
2026/05/14 10:30:16.145,-0.058,0.028,1.024
2026/05/14 10:30:16.165,-0.057,0.035,1.022
2026/05/14 10:30:16.185,-0.052,0.032,1.019
2026/05/14 10:30:16.205,-0.057,0.029,1.025
2026/05/14 10:30:16.225,-0.057,0.027,1.021
2026/05/14 10:30:16.245,-0.055,0.026,1.023
2026/05/14 10:30:16.265,-0.055,0.025,1.023
2026/05/14 10:30:16.285,-0.058,0.03,1.024
2026/05/14 10:30:16.305,-0.058,0.031,1.023
2026/05/14 10:30:16.325,-0.057,0.032,1.025
2026/05/14 10:30:16.345,-0.058,0.027,1.023
2026/05/14 10:30:16.365,-0.057,0.032,1.022
2026/05/14 10:30:16.385,-0.057,0.027,1.023
2026/05/14 10:30:16.405,-0.055,0.027,1.024
2026/05/14 10:30:16.425,-0.055,0.029,1.026
2026/05/14 10:30:16.445,-0.058,0.023,1.024
2026/05/14 10:30:16.465,-0.055,0.029,1.025
2026/05/14 10:30:16.485,-0.054,0.03,1.02
2026/05/14 10:30:16.505,-0.053,0.031,1.02
2026/05/14 10:30:16.525,-0.059,0.032,1.018
2026/05/14 10:30:16.545,-0.058,0.029,1.028
2026/05/14 10:30:16.565,-0.051,0.03,1.018
2026/05/14 10:30:16.585,-0.056,0.03,1.018
2026/05/14 10:30:16.605,-0.056,0.029,1.023
2026/05/14 10:30:16.625,-0.056,0.031,1.025
2026/05/14 10:30:16.645,-0.06,0.033,1.022
2026/05/14 10:30:16.665,-0.053,0.03,1.025
2026/05/14 10:30:16.685,-0.059,0.03,1.029
2026/05/14 10:30:16.705,-0.058,0.033,1.026
2026/05/14 10:30:16.725,-0.056,0.027,1.026
2026/05/14 10:30:16.745,-0.057,0.029,1.018
2026/05/14 10:30:16.766,-0.056,0.026,1.018
2026/05/14 10:30:16.786,-0.051,0.031,1.024
2026/05/14 10:30:16.806,-0.054,0.028,1.024
2026/05/14 10:30:16.826,-0.057,0.027,1.023
2026/05/14 10:30:16.846,-0.056,0.027,1.024
2026/05/14 10:30:16.866,-0.059,0.03,1.023
2026/05/14 10:30:16.886,-0.054,0.031,1.027
2026/05/14 10:30:16.906,-0.056,0.029,1.022
2026/05/14 10:30:16.926,-0.058,0.029,1.025
2026/05/14 10:30:16.946,-0.057,0.03,1.022
2026/05/14 10:30:16.966,-0.058,0.026,1.022
2026/05/14 10:30:16.986,-0.058,0.029,1.024
2026/05/14 10:30:17.006,-0.06,0.025,1.021
2026/05/14 10:30:17.026,-0.059,0.028,1.022
2026/05/14 10:30:17.046,-0.056,0.029,1.023
2026/05/14 10:30:17.066,-0.058,0.029,1.021
2026/05/14 10:30:17.086,-0.059,0.03,1.019
2026/05/14 10:30:17.106,-0.059,0.033,1.023
2026/05/14 10:30:17.126,-0.056,0.032,1.021
2026/05/14 10:30:17.146,-0.054,0.028,1.022
2026/05/14 10:30:17.166,-0.055,0.028,1.018
2026/05/14 10:30:17.186,-0.057,0.03,1.023
2026/05/14 10:30:17.206,-0.054,0.031,1.026
2026/05/14 10:30:17.226,-0.057,0.026,1.02
2026/05/14 10:30:17.246,-0.059,0.028,1.027
2026/05/14 10:30:17.266,-0.053,0.032,1.023
2026/05/14 10:30:17.286,-0.057,0.03,1.019
2026/05/14 10:30:17.306,-0.056,0.031,1.028
2026/05/14 10:30:17.326,-0.055,0.03,1.027
2026/05/14 10:30:17.346,-0.056,0.028,1.023
2026/05/14 10:30:17.366,-0.057,0.031,1.025
2026/05/14 10:30:17.386,-0.055,0.029,1.019
2026/05/14 10:30:17.406,-0.057,0.033,1.015
2026/05/14 10:30:17.427,-0.057,0.032,1.021
2026/05/14 10:30:17.447,-0.057,0.031,1.021
2026/05/14 10:30:17.467,-0.057,0.028,1.022
2026/05/14 10:30:17.487,-0.056,0.034,1.023
2026/05/14 10:30:17.507,-0.058,0.033,1.025
2026/05/14 10:30:17.527,-0.058,0.031,1.025
2026/05/14 10:30:17.547,-0.059,0.027,1.021
2026/05/14 10:30:17.567,-0.056,0.031,1.02
2026/05/14 10:30:17.587,-0.057,0.029,1.027
2026/05/14 10:30:17.607,-0.059,0.033,1.022
2026/05/14 10:30:17.627,-0.052,0.03,1.021
2026/05/14 10:30:17.647,-0.059,0.028,1.026
2026/05/14 10:30:17.667,-0.057,0.031,1.022
2026/05/14 10:30:17.687,-0.056,0.029,1.021
2026/05/14 10:30:17.707,-0.06,0.031,1.022
2026/05/14 10:30:17.727,-0.058,0.029,1.024
2026/05/14 10:30:17.747,-0.055,0.032,1.021
2026/05/14 10:30:17.767,-0.056,0.027,1.023
2026/05/14 10:30:17.787,-0.056,0.032,1.021
2026/05/14 10:30:17.807,-0.059,0.028,1.025
2026/05/14 10:30:17.827,-0.057,0.031,1.023
2026/05/14 10:30:17.847,-0.055,0.027,1.022
2026/05/14 10:30:17.867,-0.059,0.03,1.026
2026/05/14 10:30:17.887,-0.058,0.031,1.026
2026/05/14 10:30:17.907,-0.059,0.027,1.023
2026/05/14 10:30:17.927,-0.052,0.031,1.024
2026/05/14 10:30:17.947,-0.057,0.026,1.024
2026/05/14 10:30:17.967,-0.058,0.033,1.022
2026/05/14 10:30:17.987,-0.057,0.028,1.024
2026/05/14 10:30:18.007,-0.056,0.029,1.021
2026/05/14 10:30:18.027,-0.052,0.03,1.024
2026/05/14 10:30:18.047,-0.059,0.029,1.025
2026/05/14 10:30:18.068,-0.054,0.026,1.025
2026/05/14 10:30:18.088,-0.057,0.027,1.018
2026/05/14 10:30:18.108,-0.053,0.029,1.025
2026/05/14 10:30:18.128,-0.058,0.031,1.023
2026/05/14 10:30:18.148,-0.057,0.031,1.024
2026/05/14 10:30:18.168,-0.052,0.028,1.022
2026/05/14 10:30:18.188,-0.057,0.029,1.026
2026/05/14 10:30:18.208,-0.055,0.03,1.024
2026/05/14 10:30:18.228,-0.054,0.031,1.026
2026/05/14 10:30:18.248,-0.054,0.031,1.02
2026/05/14 10:30:18.268,-0.056,0.029,1.025
2026/05/14 10:30:18.288,-0.055,0.032,1.024
2026/05/14 10:30:18.308,-0.055,0.027,1.023
2026/05/14 10:30:18.328,-0.055,0.026,1.021
2026/05/14 10:30:18.348,-0.052,0.028,1.025
2026/05/14 10:30:18.368,-0.056,0.028,1.022
2026/05/14 10:30:18.388,-0.058,0.032,1.027
2026/05/14 10:30:18.408,-0.058,0.03,1.021
2026/05/14 10:30:18.428,-0.057,0.029,1.025
2026/05/14 10:30:18.448,-0.062,0.028,1.02
2026/05/14 10:30:18.468,-0.055,0.027,1.027
2026/05/14 10:30:18.488,-0.058,0.026,1.022
2026/05/14 10:30:18.508,-0.054,0.029,1.021
2026/05/14 10:30:18.528,-0.054,0.03,1.023
2026/05/14 10:30:18.548,-0.056,0.031,1.024
2026/05/14 10:30:18.568,-0.056,0.028,1.025
2026/05/14 10:30:18.588,-0.052,0.027,1.025
2026/05/14 10:30:18.608,-0.057,0.03,1.021
2026/05/14 10:30:18.628,-0.052,0.028,1.025
2026/05/14 10:30:18.648,-0.056,0.027,1.025
2026/05/14 10:30:18.668,-0.055,0.03,1.025
2026/05/14 10:30:18.688,-0.054,0.03,1.02
2026/05/14 10:30:18.708,-0.055,0.03,1.025
2026/05/14 10:30:18.728,-0.057,0.036,1.026
2026/05/14 10:30:18.749,-0.053,0.034,1.019
2026/05/14 10:30:18.769,-0.055,0.033,1.023
2026/05/14 10:30:18.789,-0.055,0.034,1.023
2026/05/14 10:30:18.809,-0.056,0.029,1.022
2026/05/14 10:30:18.829,-0.057,0.032,1.026
2026/05/14 10:30:18.849,-0.06,0.026,1.022
2026/05/14 10:30:18.869,-0.06,0.027,1.022
2026/05/14 10:30:18.889,-0.053,0.026,1.022
2026/05/14 10:30:18.909,-0.056,0.028,1.025
2026/05/14 10:30:18.929,-0.054,0.028,1.025
2026/05/14 10:30:18.949,-0.056,0.033,1.025
2026/05/14 10:30:18.969,-0.057,0.031,1.024
2026/05/14 10:30:18.989,-0.055,0.035,1.026
2026/05/14 10:30:19.009,-0.055,0.033,1.025
2026/05/14 10:30:19.029,-0.057,0.029,1.026
2026/05/14 10:30:19.049,-0.055,0.028,1.023
2026/05/14 10:30:19.069,-0.058,0.027,1.023
2026/05/14 10:30:19.089,-0.06,0.021,1.03
2026/05/14 10:30:19.109,-0.056,0.033,1.01
2026/05/14 10:30:19.129,-0.06,0.026,1.021
2026/05/14 10:30:19.149,-0.056,0.028,1.02
2026/05/14 10:30:19.169,-0.059,0.036,1.016
2026/05/14 10:30:19.189,-0.051,0.033,1.011
2026/05/14 10:30:19.209,-0.052,0.029,1.023
2026/05/14 10:30:19.229,-0.058,0.031,1.018
2026/05/14 10:30:19.249,-0.058,0.025,1.034
2026/05/14 10:30:19.269,-0.055,0.031,1.021
2026/05/14 10:30:19.289,-0.06,0.024,1.027
2026/05/14 10:30:19.309,-0.054,0.029,1.022
2026/05/14 10:30:19.329,-0.059,0.029,1.027
2026/05/14 10:30:19.349,-0.058,0.026,1.025
2026/05/14 10:30:19.369,-0.059,0.029,1.02
2026/05/14 10:30:19.389,-0.058,0.027,1.018
2026/05/14 10:30:19.409,-0.056,0.023,1.03
2026/05/14 10:30:19.430,-0.055,0.028,1.037
2026/05/14 10:30:19.450,-0.055,0.033,1.029
2026/05/14 10:30:19.470,-0.051,0.027,1.035
2026/05/14 10:30:19.490,-0.057,0.026,1.033
2026/05/14 10:30:19.510,-0.057,0.024,1.039
2026/05/14 10:30:19.530,-0.057,0.027,1.03
2026/05/14 10:30:19.550,-0.056,0.023,1.042
2026/05/14 10:30:19.570,-0.058,0.031,1.029
2026/05/14 10:30:19.590,-0.056,0.021,1.044
2026/05/14 10:30:19.610,-0.059,0.031,1.025
2026/05/14 10:30:19.630,-0.054,0.029,1.026
2026/05/14 10:30:19.650,-0.058,0.029,1.022
2026/05/14 10:30:19.670,-0.061,0.03,1.018
2026/05/14 10:30:19.690,-0.057,0.03,1.026
2026/05/14 10:30:19.710,-0.059,0.027,1.029
2026/05/14 10:30:19.730,-0.057,0.028,1.021
2026/05/14 10:30:19.750,-0.057,0.032,1.022
2026/05/14 10:30:19.770,-0.056,0.029,1.026
2026/05/14 10:30:19.790,-0.056,0.032,1.023
2026/05/14 10:30:19.810,-0.057,0.028,1.023
2026/05/14 10:30:19.830,-0.056,0.03,1.026
2026/05/14 10:30:19.850,-0.058,0.025,1.037
2026/05/14 10:30:19.870,-0.063,0.024,1.033
2026/05/14 10:30:19.890,-0.057,0.031,1.023
2026/05/14 10:30:19.910,-0.058,0.031,1.023
2026/05/14 10:30:19.930,-0.055,0.028,1.021
2026/05/14 10:30:19.950,-0.054,0.032,1.028
2026/05/14 10:30:19.970,-0.055,0.027,1.023
2026/05/14 10:30:19.990,-0.053,0.031,1.021
2026/05/14 10:30:20.010,-0.055,0.032,1.019
2026/05/14 10:30:20.030,-0.057,0.031,1.027
2026/05/14 10:30:20.050,-0.055,0.036,1.02
2026/05/14 10:30:20.070,-0.057,0.032,1.017
2026/05/14 10:30:20.091,-0.056,0.03,1.017
2026/05/14 10:30:20.111,-0.059,0.029,1.013
2026/05/14 10:30:20.131,-0.06,0.029,1.026
2026/05/14 10:30:20.151,-0.055,0.03,1.027
2026/05/14 10:30:20.171,-0.057,0.029,1.028
2026/05/14 10:30:20.191,-0.06,0.028,1.023
2026/05/14 10:30:20.211,-0.055,0.035,1.023
2026/05/14 10:30:20.231,-0.05,0.043,1.001
2026/05/14 10:30:20.251,-0.055,0.035,1.007
2026/05/14 10:30:20.271,-0.059,0.044,0.986
2026/05/14 10:30:20.291,-0.058,0.035,1.017
2026/05/14 10:30:20.311,-0.054,0.031,1.024
2026/05/14 10:30:20.331,-0.057,0.031,1.024
2026/05/14 10:30:20.351,-0.055,0.03,1.02
2026/05/14 10:30:20.371,-0.053,0.025,1.025
2026/05/14 10:30:20.391,-0.06,0.029,1.021
2026/05/14 10:30:20.411,-0.055,0.03,1.018
2026/05/14 10:30:20.431,-0.056,0.036,1.012
2026/05/14 10:30:20.451,-0.058,0.02,1.048
2026/05/14 10:30:20.471,-0.057,0.021,1.044
2026/05/14 10:30:20.491,-0.056,0.03,1.019
2026/05/14 10:30:20.511,-0.057,0.031,1.023
2026/05/14 10:30:20.531,-0.056,0.031,1.02
2026/05/14 10:30:20.551,-0.059,0.026,1.026
2026/05/14 10:30:20.571,-0.056,0.03,1.027
2026/05/14 10:30:20.591,-0.053,0.035,1.006
2026/05/14 10:30:20.611,-0.056,0.026,1.023
2026/05/14 10:30:20.631,-0.058,0.033,1.008
2026/05/14 10:30:20.651,-0.058,0.029,1.027
2026/05/14 10:30:20.671,-0.052,0.036,1.001
2026/05/14 10:30:20.691,-0.061,0.026,1.04
2026/05/14 10:30:20.711,-0.053,0.035,1.016
2026/05/14 10:30:20.731,-0.061,0.026,1.038
2026/05/14 10:30:20.751,-0.054,0.031,1.02
2026/05/14 10:30:20.772,-0.058,0.029,1.027
2026/05/14 10:30:20.792,-0.053,0.033,1.007
2026/05/14 10:30:20.812,-0.055,0.03,1.027
2026/05/14 10:30:20.832,-0.055,0.026,1.024
2026/05/14 10:30:20.852,-0.057,0.025,1.024
2026/05/14 10:30:20.872,-0.058,0.03,1.019
2026/05/14 10:30:20.892,-0.056,0.027,1.02
2026/05/14 10:30:20.912,-0.054,0.029,1.021
2026/05/14 10:30:20.932,-0.057,0.029,1.026
2026/05/14 10:30:20.952,-0.054,0.026,1.028
2026/05/14 10:30:20.972,-0.057,0.027,1.03
2026/05/14 10:30:20.992,-0.057,0.027,1.04
2026/05/14 10:30:21.012,-0.058,0.029,1.02
2026/05/14 10:30:21.032,-0.056,0.033,1.016
2026/05/14 10:30:21.052,-0.059,0.027,1.023
2026/05/14 10:30:21.072,-0.056,0.031,1.025
2026/05/14 10:30:21.092,-0.057,0.033,1.023
2026/05/14 10:30:21.112,-0.058,0.033,1.013
2026/05/14 10:30:21.132,-0.058,0.03,1.023
2026/05/14 10:30:21.152,-0.057,0.029,1.026
2026/05/14 10:30:21.172,-0.058,0.032,1.026
2026/05/14 10:30:21.192,-0.06,0.029,1.023
2026/05/14 10:30:21.212,-0.061,0.034,1.018
2026/05/14 10:30:21.232,-0.058,0.029,1.021
2026/05/14 10:30:21.252,-0.055,0.034,1.02
2026/05/14 10:30:21.272,-0.054,0.03,1.018
2026/05/14 10:30:21.292,-0.057,0.03,1.025
2026/05/14 10:30:21.312,-0.056,0.028,1.022
2026/05/14 10:30:21.332,-0.057,0.03,1.027
2026/05/14 10:30:21.352,-0.058,0.023,1.024
2026/05/14 10:30:21.372,-0.056,0.029,1.026
2026/05/14 10:30:21.392,-0.059,0.031,1.026
2026/05/14 10:30:21.412,-0.058,0.027,1.023
2026/05/14 10:30:21.432,-0.061,0.026,1.029
2026/05/14 10:30:21.453,-0.06,0.031,1.019
2026/05/14 10:30:21.473,-0.058,0.03,1.022
2026/05/14 10:30:21.493,-0.054,0.027,1.025
2026/05/14 10:30:21.513,-0.056,0.033,1.011
2026/05/14 10:30:21.533,-0.058,0.028,1.029
2026/05/14 10:30:21.553,-0.054,0.029,1.018
2026/05/14 10:30:21.573,-0.056,0.029,1.022
2026/05/14 10:30:21.593,-0.058,0.027,1.021
2026/05/14 10:30:21.613,-0.055,0.028,1.022
2026/05/14 10:30:21.633,-0.056,0.033,1.025
2026/05/14 10:30:21.653,-0.059,0.025,1.025
2026/05/14 10:30:21.673,-0.059,0.029,1.026
2026/05/14 10:30:21.693,-0.058,0.03,1.026
2026/05/14 10:30:21.713,-0.055,0.028,1.026
2026/05/14 10:30:21.733,-0.058,0.031,1.028
2026/05/14 10:30:21.753,-0.055,0.032,1.024
2026/05/14 10:30:21.773,-0.057,0.03,1.022
2026/05/14 10:30:21.793,-0.056,0.029,1.024
2026/05/14 10:30:21.813,-0.054,0.026,1.023
2026/05/14 10:30:21.833,-0.056,0.033,1.025
2026/05/14 10:30:21.853,-0.059,0.031,1.02
2026/05/14 10:30:21.873,-0.056,0.031,1.022
2026/05/14 10:30:21.893,-0.055,0.028,1.024
2026/05/14 10:30:21.913,-0.058,0.029,1.021
2026/05/14 10:30:21.933,-0.056,0.026,1.021
2026/05/14 10:30:21.953,-0.052,0.03,1.023
2026/05/14 10:30:21.973,-0.056,0.029,1.017
2026/05/14 10:30:21.993,-0.055,0.029,1.022
2026/05/14 10:30:22.013,-0.06,0.033,1.026
2026/05/14 10:30:22.033,-0.059,0.025,1.021
2026/05/14 10:30:22.053,-0.056,0.032,1.02
2026/05/14 10:30:22.073,-0.054,0.032,1.022
2026/05/14 10:30:22.093,-0.059,0.028,1.026
2026/05/14 10:30:22.113,-0.055,0.028,1.027
2026/05/14 10:30:22.133,-0.056,0.031,1.021
2026/05/14 10:30:22.154,-0.054,0.028,1.026
2026/05/14 10:30:22.174,-0.054,0.032,1.022
2026/05/14 10:30:22.194,-0.061,0.029,1.024
2026/05/14 10:30:22.214,-0.057,0.032,1.024
2026/05/14 10:30:22.234,-0.053,0.031,1.023
2026/05/14 10:30:22.254,-0.055,0.027,1.025
2026/05/14 10:30:22.274,-0.055,0.027,1.028
2026/05/14 10:30:22.294,-0.058,0.033,1.028
2026/05/14 10:30:22.314,-0.053,0.028,1.023
2026/05/14 10:30:22.334,-0.055,0.031,1.019
2026/05/14 10:30:22.354,-0.058,0.031,1.026
2026/05/14 10:30:22.374,-0.057,0.032,1.024
2026/05/14 10:30:22.394,-0.056,0.031,1.026
2026/05/14 10:30:22.414,-0.057,0.031,1.021
2026/05/14 10:30:22.434,-0.056,0.026,1.023
2026/05/14 10:30:22.454,-0.055,0.029,1.02
2026/05/14 10:30:22.474,-0.057,0.03,1.025
2026/05/14 10:30:22.494,-0.053,0.028,1.027
2026/05/14 10:30:22.514,-0.057,0.03,1.025
2026/05/14 10:30:22.534,-0.055,0.03,1.024
2026/05/14 10:30:22.554,-0.058,0.029,1.023
2026/05/14 10:30:22.574,-0.054,0.028,1.02
2026/05/14 10:30:22.594,-0.058,0.031,1.023
2026/05/14 10:30:22.614,-0.057,0.027,1.023
2026/05/14 10:30:22.634,-0.055,0.026,1.023
2026/05/14 10:30:22.654,-0.058,0.03,1.024
2026/05/14 10:30:22.674,-0.055,0.026,1.023
2026/05/14 10:30:22.694,-0.058,0.026,1.028
2026/05/14 10:30:22.714,-0.059,0.025,1.024
2026/05/14 10:30:22.734,-0.062,0.033,1.021
2026/05/14 10:30:22.754,-0.057,0.031,1.022
2026/05/14 10:30:22.774,-0.055,0.03,1.021
2026/05/14 10:30:22.794,-0.056,0.032,1.024
2026/05/14 10:30:22.814,-0.056,0.027,1.024
2026/05/14 10:30:22.835,-0.059,0.028,1.022
2026/05/14 10:30:22.855,-0.055,0.028,1.027
2026/05/14 10:30:22.875,-0.054,0.031,1.025
2026/05/14 10:30:22.895,-0.06,0.028,1.021
2026/05/14 10:30:22.915,-0.058,0.029,1.026
2026/05/14 10:30:22.935,-0.058,0.031,1.025
2026/05/14 10:30:22.955,-0.058,0.028,1.026
2026/05/14 10:30:22.975,-0.056,0.031,1.025
2026/05/14 10:30:22.995,-0.061,0.027,1.023
2026/05/14 10:30:23.015,-0.057,0.03,1.024
2026/05/14 10:30:23.035,-0.058,0.031,1.024
2026/05/14 10:30:23.055,-0.056,0.032,1.02
2026/05/14 10:30:23.075,-0.056,0.024,1.026
2026/05/14 10:30:23.095,-0.057,0.029,1.022
2026/05/14 10:30:23.115,-0.056,0.029,1.021
2026/05/14 10:30:23.135,-0.058,0.03,1.019
2026/05/14 10:30:23.155,-0.057,0.026,1.02
2026/05/14 10:30:23.175,-0.056,0.032,1.026
2026/05/14 10:30:23.195,-0.057,0.029,1.025
2026/05/14 10:30:23.215,-0.057,0.029,1.025
2026/05/14 10:30:23.235,-0.056,0.028,1.027
2026/05/14 10:30:23.255,-0.059,0.033,1.019
2026/05/14 10:30:23.275,-0.056,0.027,1.022
2026/05/14 10:30:23.295,-0.057,0.027,1.024
2026/05/14 10:30:23.315,-0.058,0.029,1.023
2026/05/14 10:30:23.335,-0.052,0.026,1.022
2026/05/14 10:30:23.355,-0.059,0.028,1.026
2026/05/14 10:30:23.375,-0.056,0.026,1.024
2026/05/14 10:30:23.395,-0.056,0.024,1.026
2026/05/14 10:30:23.415,-0.056,0.032,1.026
2026/05/14 10:30:23.435,-0.054,0.028,1.022
2026/05/14 10:30:23.455,-0.062,0.028,1.027
2026/05/14 10:30:23.475,-0.058,0.028,1.027
2026/05/14 10:30:23.496,-0.054,0.031,1.024
2026/05/14 10:30:23.516,-0.056,0.029,1.023
2026/05/14 10:30:23.536,-0.057,0.025,1.024
2026/05/14 10:30:23.556,-0.058,0.031,1.024
2026/05/14 10:30:23.576,-0.056,0.03,1.021
2026/05/14 10:30:23.596,-0.056,0.029,1.025
2026/05/14 10:30:23.616,-0.051,0.029,1.022
2026/05/14 10:30:23.636,-0.055,0.028,1.024
2026/05/14 10:30:23.656,-0.056,0.028,1.021
2026/05/14 10:30:23.676,-0.059,0.028,1.025
2026/05/14 10:30:23.696,-0.055,0.033,1.021
2026/05/14 10:30:23.716,-0.052,0.028,1.025
2026/05/14 10:30:23.736,-0.059,0.027,1.024
2026/05/14 10:30:23.756,-0.054,0.032,1.023
2026/05/14 10:30:23.776,-0.057,0.03,1.021
2026/05/14 10:30:23.796,-0.057,0.03,1.026
2026/05/14 10:30:23.816,-0.056,0.029,1.022
2026/05/14 10:30:23.836,-0.053,0.03,1.023
2026/05/14 10:30:23.856,-0.055,0.031,1.025
2026/05/14 10:30:23.876,-0.058,0.029,1.025
2026/05/14 10:30:23.896,-0.055,0.024,1.022
2026/05/14 10:30:23.916,-0.06,0.027,1.025
2026/05/14 10:30:23.936,-0.058,0.03,1.024
2026/05/14 10:30:23.956,-0.057,0.026,1.025
2026/05/14 10:30:23.976,-0.057,0.028,1.023
2026/05/14 10:30:23.996,-0.058,0.029,1.024
2026/05/14 10:30:24.016,-0.058,0.03,1.027
2026/05/14 10:30:24.036,-0.057,0.027,1.024
2026/05/14 10:30:24.056,-0.055,0.031,1.025
2026/05/14 10:30:24.076,-0.059,0.028,1.024
2026/05/14 10:30:24.096,-0.06,0.029,1.023
2026/05/14 10:30:24.116,-0.053,0.031,1.024
2026/05/14 10:30:24.137,-0.05,0.03,0.969
2026/05/14 10:30:24.157,-0.04,0.065,1.105
2026/05/14 10:30:24.177,-0.039,0.026,1.033
2026/05/14 10:30:24.197,-0.089,0.03,0.993
2026/05/14 10:30:24.217,-0.07,0.012,1.036
2026/05/14 10:30:24.237,-0.046,0.035,1.012
2026/05/14 10:30:24.257,-0.067,0.03,1.035
2026/05/14 10:30:24.277,-0.062,0.042,1.018
2026/05/14 10:30:24.297,-0.052,0.031,1.021
2026/05/14 10:30:24.317,-0.052,0.027,1.028
2026/05/14 10:30:24.337,-0.053,0.035,1.028
2026/05/14 10:30:24.357,-0.058,0.035,1.032
2026/05/14 10:30:24.377,-0.052,0.033,1.016
2026/05/14 10:30:24.397,-0.064,0.054,1.03
2026/05/14 10:30:24.417,-0.058,0.022,1.016
2026/05/14 10:30:24.437,-0.041,0.033,1.013
2026/05/14 10:30:24.457,-0.06,0.012,1.04
2026/05/14 10:30:24.477,-0.053,0.036,1.016
2026/05/14 10:30:24.497,-0.066,0.021,1.026
2026/05/14 10:30:24.517,-0.076,0.004,1.052
2026/05/14 10:30:24.537,-0.059,0.024,1.002
2026/05/14 10:30:24.557,-0.08,0.002,1.063
2026/05/14 10:30:24.577,-0.04,0.044,1.012
2026/05/14 10:30:24.597,-0.051,0.028,1.037
2026/05/14 10:30:24.617,-0.044,0.036,1.031
2026/05/14 10:30:24.637,-0.049,0.023,1.023
2026/05/14 10:30:24.657,-0.07,0.024,1.026
2026/05/14 10:30:24.677,-0.066,0.037,1.024
2026/05/14 10:30:24.697,-0.057,0.041,1.026
2026/05/14 10:30:24.717,-0.057,0.04,1.02
2026/05/14 10:30:24.737,-0.06,0.027,1.026
2026/05/14 10:30:24.757,-0.051,0.029,1.018
2026/05/14 10:30:24.777,-0.041,0.029,1.024
2026/05/14 10:30:24.798,-0.046,0.025,1.048
2026/05/14 10:30:24.818,-0.051,0.033,1.018
2026/05/14 10:30:24.838,-0.063,0.021,1.012
2026/05/14 10:30:24.858,-0.062,0.035,1.011
2026/05/14 10:30:24.878,-0.075,0.025,1.031
2026/05/14 10:30:24.898,-0.051,0.043,1.018
2026/05/14 10:30:24.918,-0.048,0.033,1.023
2026/05/14 10:30:24.938,-0.049,0.03,1.023
2026/05/14 10:30:24.958,-0.034,0.039,1.013
2026/05/14 10:30:24.978,-0.054,0.028,1.045
2026/05/14 10:30:24.998,-0.053,0.033,1.02
2026/05/14 10:30:25.018,-0.069,0.028,1.022
2026/05/14 10:30:25.038,-0.075,0.026,1.019
2026/05/14 10:30:25.058,-0.077,0.019,1.02
2026/05/14 10:30:25.078,-0.065,0.019,1.026
2026/05/14 10:30:25.098,-0.05,0.028,1.033
2026/05/14 10:30:25.118,-0.04,0.033,1.029
2026/05/14 10:30:25.138,-0.065,0.032,1.093
2026/05/14 10:30:25.158,-0.054,0.041,1.01
2026/05/14 10:30:25.178,-0.228,0.404,0.943
2026/05/14 10:30:25.198,-0.094,0.119,1.046
2026/05/14 10:30:25.218,-0.084,-0.05,1.015
2026/05/14 10:30:25.238,-0.08,0.036,0.79
2026/05/14 10:30:25.258,0.02,0.012,0.641
2026/05/14 10:30:25.278,-0.05,-0.041,0.974
2026/05/14 10:30:25.298,-0.087,-0.006,1.029
2026/05/14 10:30:25.318,-0.03,0.04,0.997
2026/05/14 10:30:25.338,-0.061,0.026,1.029
2026/05/14 10:30:25.358,-0.06,0.015,1.045
2026/05/14 10:30:25.378,-0.052,0.08,1.038
2026/05/14 10:30:25.398,-0.024,0.079,0.987
2026/05/14 10:30:25.418,-0.045,0.058,1.03
2026/05/14 10:30:25.438,-0.056,-0.035,1.029
2026/05/14 10:30:25.459,-0.069,0.052,1.021
2026/05/14 10:30:25.479,-0.057,0.04,1.033
2026/05/14 10:30:25.499,-0.035,0.031,1.034
2026/05/14 10:30:25.519,-0.05,0.029,1.005
2026/05/14 10:30:25.539,-0.069,0.011,1.024
2026/05/14 10:30:25.559,-0.056,0.023,1.026
2026/05/14 10:30:25.579,-0.057,0.024,1.019
2026/05/14 10:30:25.599,-0.059,0.031,1.017
2026/05/14 10:30:25.619,-0.06,0.033,1.036
2026/05/14 10:30:25.639,-0.057,0.034,1.032
2026/05/14 10:30:25.659,-0.053,0.025,1.006
2026/05/14 10:30:25.679,-0.063,0.007,0.986
2026/05/14 10:30:25.699,-0.082,-0.001,1.019
2026/05/14 10:30:25.719,-0.079,0.022,1.032
2026/05/14 10:30:25.739,-0.058,0.026,0.975
2026/05/14 10:30:25.759,0.019,0.128,0.982
2026/05/14 10:30:25.779,-0.009,0.072,0.978
2026/05/14 10:30:25.799,-0.044,0.043,1.053
2026/05/14 10:30:25.819,-0.047,0.039,1.007
2026/05/14 10:30:25.839,-0.145,0.254,0.775
2026/05/14 10:30:25.859,-0.064,0.065,1.018
2026/05/14 10:30:25.879,-0.06,0.053,1.019
2026/05/14 10:30:25.899,-0.051,0.031,1.041
2026/05/14 10:30:25.919,-0.042,0.034,1.024
2026/05/14 10:30:25.939,-0.048,0.014,1.021
2026/05/14 10:30:25.959,-0.059,0.017,1.024
2026/05/14 10:30:25.979,-0.064,0.014,1.034
2026/05/14 10:30:25.999,-0.059,0.014,1.037
2026/05/14 10:30:26.019,-0.063,0.02,1.031
2026/05/14 10:30:26.039,-0.066,0.038,1.007
2026/05/14 10:30:26.059,-0.077,0.018,1.035
2026/05/14 10:30:26.079,-0.053,0.034,1.027
2026/05/14 10:30:26.099,-0.035,0.034,1.032
2026/05/14 10:30:26.120,0.125,0.089,0.885
2026/05/14 10:30:26.140,-0.129,-0.004,1.056
2026/05/14 10:30:26.160,-0.083,0.029,1.013
2026/05/14 10:30:26.180,-0.066,0.021,1.014
2026/05/14 10:30:26.200,-0.058,0.021,1.013
2026/05/14 10:30:26.220,-0.065,0.033,1.004
2026/05/14 10:30:26.240,-0.078,0.03,1.016
2026/05/14 10:30:26.260,-0.063,0.05,1.03
2026/05/14 10:30:26.280,-0.037,0.05,1.008
2026/05/14 10:30:26.300,-0.075,0.016,1.013
2026/05/14 10:30:26.320,-0.043,0.021,1.011
2026/05/14 10:30:26.340,-0.045,0.029,1.019
2026/05/14 10:30:26.360,-0.037,0.047,1.025
2026/05/14 10:30:26.380,-0.053,0.045,1.019
2026/05/14 10:30:26.400,0.09,0.112,1.02
2026/05/14 10:30:26.420,0.113,0.151,1.108
2026/05/14 10:30:26.440,-0.028,0.085,1.116
2026/05/14 10:30:26.460,-0.323,0.104,1.024
2026/05/14 10:30:26.480,-0.302,-0.161,0.791
2026/05/14 10:30:26.500,-0.028,-0.161,1.139
2026/05/14 10:30:26.520,0.068,-0.224,0.944
2026/05/14 10:30:26.540,-0.017,0.023,1.025
2026/05/14 10:30:26.560,-0.06,0.045,1.016
2026/05/14 10:30:26.580,-0.048,0.038,1.013
2026/05/14 10:30:26.600,-0.057,0.039,1.018
2026/05/14 10:30:26.620,-0.066,0.036,1.022
2026/05/14 10:30:26.640,-0.07,0.028,1.007
2026/05/14 10:30:26.660,0.0,-0.103,1.004
2026/05/14 10:30:26.680,0.013,-0.024,1.023
2026/05/14 10:30:26.700,-0.176,0.26,1.139
2026/05/14 10:30:26.720,-0.027,0.069,1.025
2026/05/14 10:30:26.740,-0.046,0.042,1.022
2026/05/14 10:30:26.760,0.082,-0.22,1.051
2026/05/14 10:30:26.780,-0.039,-0.297,1.128
2026/05/14 10:30:26.801,-0.09,0.073,1.19
2026/05/14 10:30:26.821,0.019,0.213,1.312
2026/05/14 10:30:26.841,-0.046,0.03,0.838
2026/05/14 10:30:26.861,-0.066,0.037,1.052
2026/05/14 10:30:26.881,-0.031,0.024,1.015
2026/05/14 10:30:26.901,-0.154,-0.056,1.025
2026/05/14 10:30:26.921,-0.125,-0.016,1.087
2026/05/14 10:30:26.941,0.052,0.116,1.192
2026/05/14 10:30:26.961,-0.03,0.019,1.044
2026/05/14 10:30:26.981,-0.077,0.052,1.02
2026/05/14 10:30:27.001,-0.057,0.035,1.013
2026/05/14 10:30:27.021,-0.057,0.019,1.039
2026/05/14 10:30:27.041,-0.045,0.037,1.029
2026/05/14 10:30:27.061,-0.028,0.064,1.028
2026/05/14 10:30:27.081,-0.021,0.043,1.01
2026/05/14 10:30:27.101,-0.063,0.012,1.039
2026/05/14 10:30:27.121,-0.073,0.024,1.024
2026/05/14 10:30:27.141,-0.078,0.022,1.026
2026/05/14 10:30:27.161,-0.069,0.029,1.028
2026/05/14 10:30:27.181,-0.056,0.03,1.021
2026/05/14 10:30:27.201,-0.043,0.036,1.021
2026/05/14 10:30:27.221,-0.034,0.037,1.035
2026/05/14 10:30:27.241,-0.039,0.031,1.029
2026/05/14 10:30:27.261,-0.044,0.036,1.023
2026/05/14 10:30:27.281,-0.057,0.035,1.023
2026/05/14 10:30:27.301,-0.063,0.036,1.023
2026/05/14 10:30:27.321,-0.067,0.036,1.021
2026/05/14 10:30:27.341,-0.065,0.033,1.023
2026/05/14 10:30:27.361,-0.06,0.024,1.028
2026/05/14 10:30:27.381,-0.052,0.014,1.027
2026/05/14 10:30:27.401,-0.047,0.014,1.026
2026/05/14 10:30:27.421,-0.05,0.02,1.031
2026/05/14 10:30:27.441,-0.055,0.033,1.022
2026/05/14 10:30:27.462,-0.061,0.03,1.027
2026/05/14 10:30:27.482,-0.061,0.038,1.025
2026/05/14 10:30:27.502,-0.059,0.04,1.019
2026/05/14 10:30:27.522,-0.06,0.031,1.026
2026/05/14 10:30:27.542,-0.051,0.037,1.021
2026/05/14 10:30:27.562,-0.043,0.041,1.022
2026/05/14 10:30:27.582,-0.044,0.035,1.028
2026/05/14 10:30:27.602,-0.051,0.033,1.024
2026/05/14 10:30:27.622,-0.054,0.033,1.025
2026/05/14 10:30:27.642,-0.06,0.027,1.022
2026/05/14 10:30:27.662,-0.068,0.029,1.018
2026/05/14 10:30:27.682,-0.064,0.022,1.026
2026/05/14 10:30:27.702,-0.059,0.029,1.023
2026/05/14 10:30:27.722,-0.056,0.026,1.025
2026/05/14 10:30:27.742,-0.049,0.03,1.024
2026/05/14 10:30:27.762,-0.051,0.037,1.019
2026/05/14 10:30:27.782,-0.052,0.034,1.023
2026/05/14 10:30:27.802,-0.059,0.035,1.027
2026/05/14 10:30:27.822,-0.053,0.039,1.017
2026/05/14 10:30:27.842,-0.059,0.037,1.023
2026/05/14 10:30:27.862,-0.059,0.037,1.026
2026/05/14 10:30:27.882,-0.06,0.033,1.024
2026/05/14 10:30:27.902,-0.056,0.024,1.028
2026/05/14 10:30:27.922,-0.052,0.029,1.028
2026/05/14 10:30:27.942,-0.054,0.022,1.024
2026/05/14 10:30:27.962,-0.06,0.024,1.032
2026/05/14 10:30:27.982,-0.057,0.028,1.027
2026/05/14 10:30:28.002,-0.061,0.028,1.018
2026/05/14 10:30:28.022,-0.064,0.029,1.025
2026/05/14 10:30:28.042,-0.053,0.032,1.021
2026/05/14 10:30:28.062,-0.054,0.035,1.023
2026/05/14 10:30:28.082,-0.051,0.031,1.025
2026/05/14 10:30:28.102,-0.048,0.033,1.022
2026/05/14 10:30:28.122,-0.055,0.029,1.024
2026/05/14 10:30:28.142,-0.052,0.03,1.012
2026/05/14 10:30:28.163,-0.059,0.03,1.026
2026/05/14 10:30:28.183,-0.06,0.029,1.024
2026/05/14 10:30:28.203,-0.06,0.023,1.031
2026/05/14 10:30:28.223,-0.055,0.026,1.019
2026/05/14 10:30:28.243,-0.054,0.025,1.027
2026/05/14 10:30:28.263,-0.057,0.029,1.029
2026/05/14 10:30:28.283,-0.059,0.032,1.022
2026/05/14 10:30:28.303,-0.055,0.033,1.015
2026/05/14 10:30:28.323,-0.055,0.031,1.026
2026/05/14 10:30:28.343,-0.057,0.031,1.024
2026/05/14 10:30:28.363,-0.049,0.034,1.015
2026/05/14 10:30:28.383,-0.057,0.036,1.026
2026/05/14 10:30:28.403,-0.056,0.032,1.031
2026/05/14 10:30:28.423,-0.058,0.028,1.026
2026/05/14 10:30:28.443,-0.054,0.028,1.024
2026/05/14 10:30:28.463,-0.059,0.025,1.024
2026/05/14 10:30:28.483,-0.059,0.028,1.022
2026/05/14 10:30:28.503,-0.055,0.03,1.017
2026/05/14 10:30:28.523,-0.063,0.03,1.017
2026/05/14 10:30:28.543,-0.058,0.032,1.019
2026/05/14 10:30:28.563,-0.058,0.033,1.023
2026/05/14 10:30:28.583,-0.059,0.03,1.021
2026/05/14 10:30:28.603,-0.046,0.033,1.016
2026/05/14 10:30:28.623,-0.054,0.033,1.024
2026/05/14 10:30:28.643,-0.056,0.032,1.021
2026/05/14 10:30:28.663,-0.059,0.033,1.022
2026/05/14 10:30:28.683,-0.057,0.028,1.023
2026/05/14 10:30:28.703,-0.055,0.036,1.008
2026/05/14 10:30:28.723,-0.059,0.026,1.027
2026/05/14 10:30:28.743,-0.055,0.03,1.019
2026/05/14 10:30:28.763,-0.056,0.032,1.017
2026/05/14 10:30:28.783,-0.06,0.028,1.026
2026/05/14 10:30:28.803,-0.057,0.03,1.028
2026/05/14 10:30:28.823,-0.055,0.035,1.019
2026/05/14 10:30:28.843,-0.054,0.027,1.039
2026/05/14 10:30:28.864,-0.095,0.006,1.088
2026/05/14 10:30:28.884,-0.032,0.035,0.996
2026/05/14 10:30:28.904,-0.071,0.03,1.02
2026/05/14 10:30:28.924,-0.07,0.144,0.7
2026/05/14 10:30:28.944,0.095,0.123,1.094
2026/05/14 10:30:28.964,0.072,0.047,0.957
2026/05/14 10:30:28.984,-0.02,-0.023,1.056
2026/05/14 10:30:29.004,-0.103,0.007,1.026
2026/05/14 10:30:29.024,-0.031,0.058,1.009
2026/05/14 10:30:29.044,-0.081,0.03,0.959
2026/05/14 10:30:29.064,-0.073,0.047,1.031
2026/05/14 10:30:29.084,-0.055,0.037,1.016
2026/05/14 10:30:29.104,-0.043,0.028,1.011
2026/05/14 10:30:29.124,-0.014,0.043,1.005
2026/05/14 10:30:29.144,0.069,0.007,1.265
2026/05/14 10:30:29.164,-0.037,0.078,1.004
2026/05/14 10:30:29.184,-0.075,0.04,1.026
2026/05/14 10:30:29.204,-0.106,0.047,1.06
2026/05/14 10:30:29.224,-0.082,0.018,1.013
2026/05/14 10:30:29.244,-0.087,0.027,1.018
2026/05/14 10:30:29.264,-0.054,0.02,1.028
2026/05/14 10:30:29.284,-0.045,0.027,1.047
2026/05/14 10:30:29.304,-0.03,0.027,1.016
2026/05/14 10:30:29.324,-0.042,0.024,1.029
2026/05/14 10:30:29.344,-0.064,0.029,1.019
2026/05/14 10:30:29.364,-0.067,0.041,1.016
2026/05/14 10:30:29.384,-0.075,0.04,1.021
2026/05/14 10:30:29.404,-0.063,0.046,1.03
2026/05/14 10:30:29.424,-0.044,0.047,1.027
2026/05/14 10:30:29.444,-0.055,0.024,1.013
2026/05/14 10:30:29.464,-0.043,0.03,1.034
2026/05/14 10:30:29.484,-0.038,0.02,1.038
2026/05/14 10:30:29.504,-0.042,0.015,1.027
2026/05/14 10:30:29.524,-0.065,0.017,1.024
2026/05/14 10:30:29.544,-0.074,0.018,1.02
2026/05/14 10:30:29.565,-0.096,-0.123,1.066
2026/05/14 10:30:29.585,-0.064,0.071,1.007
2026/05/14 10:30:29.605,-0.057,0.008,1.058
2026/05/14 10:30:29.625,-0.041,-0.014,1.06
2026/05/14 10:30:29.645,-0.047,0.033,1.04
2026/05/14 10:30:29.665,0.006,-0.035,1.004
2026/05/14 10:30:29.685,-0.114,0.037,1.117
2026/05/14 10:30:29.705,-0.031,0.046,1.008
2026/05/14 10:30:29.725,-0.057,0.037,1.006
2026/05/14 10:30:29.745,-0.097,0.049,1.011
2026/05/14 10:30:29.765,-0.057,0.038,1.023
2026/05/14 10:30:29.785,-0.1,0.052,1.069
2026/05/14 10:30:29.805,-0.031,0.037,1.064
2026/05/14 10:30:29.825,-0.035,0.025,1.019
2026/05/14 10:30:29.845,-0.021,0.028,0.993
2026/05/14 10:30:29.865,-0.04,-0.08,1.335
2026/05/14 10:30:29.885,-0.032,0.014,0.99
2026/05/14 10:30:29.905,-0.063,0.022,1.056
2026/05/14 10:30:29.925,-0.079,0.055,1.007
2026/05/14 10:30:29.945,0.0,0.012,1.067
2026/05/14 10:30:29.965,-0.036,0.011,1.064
2026/05/14 10:30:29.985,-0.032,0.019,1.021
2026/05/14 10:30:30.005,-0.041,-0.001,1.125
2026/05/14 10:30:30.025,-0.014,0.049,0.998
2026/05/14 10:30:30.045,-0.111,-0.037,1.046
2026/05/14 10:30:30.065,-0.027,0.041,1.012
2026/05/14 10:30:30.085,-0.068,0.011,1.059
2026/05/14 10:30:30.105,-0.07,0.025,1.02
2026/05/14 10:30:30.125,-0.096,-0.002,1.071
2026/05/14 10:30:30.145,-0.027,0.045,0.995
2026/05/14 10:30:30.165,-0.059,0.037,1.032
2026/05/14 10:30:30.185,-0.03,0.035,0.97
2026/05/14 10:30:30.205,-0.099,0.026,0.994
2026/05/14 10:30:30.225,-0.042,0.048,1.017
2026/05/14 10:30:30.245,-0.049,0.037,1.019
2026/05/14 10:30:30.266,-0.061,0.025,1.026
2026/05/14 10:30:30.286,-0.051,0.024,1.041
2026/05/14 10:30:30.306,-0.039,0.023,1.025
2026/05/14 10:30:30.326,-0.043,0.016,1.09
2026/05/14 10:30:30.346,-0.029,0.043,0.974
2026/05/14 10:30:30.366,-0.092,0.022,1.032
2026/05/14 10:30:30.386,-0.094,0.026,1.02
2026/05/14 10:30:30.406,0.062,-0.013,1.055
2026/05/14 10:30:30.426,-0.239,0.375,-0.028
2026/05/14 10:30:30.446,0.085,-0.073,1.006
2026/05/14 10:30:30.466,-0.04,0.008,1.009
2026/05/14 10:30:30.486,-0.046,0.024,0.985
2026/05/14 10:30:30.506,-0.053,0.029,1.026
2026/05/14 10:30:30.526,-0.065,0.026,1.009
2026/05/14 10:30:30.546,-0.052,0.041,0.999
2026/05/14 10:30:30.566,-0.058,0.055,0.989
2026/05/14 10:30:30.586,-0.073,0.035,1.038
2026/05/14 10:30:30.606,-0.061,0.031,1.014
2026/05/14 10:30:30.626,-0.055,0.027,1.021
2026/05/14 10:30:30.646,-0.046,0.024,1.009
2026/05/14 10:30:30.666,-0.046,0.022,1.018
2026/05/14 10:30:30.686,-0.054,0.017,1.013
2026/05/14 10:30:30.706,-0.056,0.023,1.025
2026/05/14 10:30:30.726,-0.071,0.03,1.018
2026/05/14 10:30:30.746,-0.062,0.028,1.013
2026/05/14 10:30:30.766,-0.048,0.049,1.036
2026/05/14 10:30:30.786,-0.009,0.035,1.387
2026/05/14 10:30:30.806,-0.051,0.015,0.98
2026/05/14 10:30:30.826,-0.066,0.023,1.012
2026/05/14 10:30:30.846,-0.047,0.087,0.947
2026/05/14 10:30:30.866,-0.006,0.156,0.918
2026/05/14 10:30:30.886,-0.047,0.114,0.918
2026/05/14 10:30:30.906,-0.026,0.045,0.997
2026/05/14 10:30:30.926,-0.066,0.036,1.033
2026/05/14 10:30:30.947,-0.053,0.038,1.02
2026/05/14 10:30:30.967,-0.053,0.027,1.015
2026/05/14 10:30:30.987,-0.055,0.03,1.019
2026/05/14 10:30:31.007,-0.056,0.021,1.022
2026/05/14 10:30:31.027,-0.056,0.026,1.029
2026/05/14 10:30:31.047,-0.051,0.038,1.02
2026/05/14 10:30:31.067,-0.053,0.016,1.04
2026/05/14 10:30:31.087,-0.165,0.037,0.921
2026/05/14 10:30:31.107,-0.038,-0.212,2.416
2026/05/14 10:30:31.127,-0.056,0.083,0.759
2026/05/14 10:30:31.147,-0.159,-0.265,2.119
2026/05/14 10:30:31.167,-0.037,0.097,0.809
2026/05/14 10:30:31.187,-0.032,0.031,0.979
2026/05/14 10:30:31.207,-0.105,-0.066,0.793
2026/05/14 10:30:31.227,-0.001,0.154,0.75
2026/05/14 10:30:31.247,-0.106,-0.028,1.125
2026/05/14 10:30:31.267,-0.045,-0.009,1.094
2026/05/14 10:30:31.287,-0.037,0.031,1.062
2026/05/14 10:30:31.307,-0.055,0.032,1.029
2026/05/14 10:30:31.327,-0.055,0.024,1.017
2026/05/14 10:30:31.347,-0.055,0.029,1.027
2026/05/14 10:30:31.367,-0.051,0.049,0.946
2026/05/14 10:30:31.387,-0.103,-0.019,1.078
2026/05/14 10:30:31.407,-0.042,0.04,0.97
2026/05/14 10:30:31.427,-0.077,0.033,1.026
2026/05/14 10:30:31.447,-0.048,0.034,0.998
2026/05/14 10:30:31.467,-0.064,0.047,1.007
2026/05/14 10:30:31.487,-0.068,0.058,1.006
2026/05/14 10:30:31.507,-0.05,0.052,0.98
2026/05/14 10:30:31.527,-0.055,0.028,0.986
2026/05/14 10:30:31.547,-0.048,0.026,1.023
2026/05/14 10:30:31.567,-0.055,0.024,1.085
2026/05/14 10:30:31.587,-0.06,0.032,1.071
2026/05/14 10:30:31.608,-0.045,0.042,0.992
2026/05/14 10:30:31.628,-0.058,0.036,1.033
2026/05/14 10:30:31.648,-0.061,0.036,1.023
2026/05/14 10:30:31.668,-0.034,-0.005,1.097
2026/05/14 10:30:31.688,-0.057,0.011,1.048
2026/05/14 10:30:31.708,-0.072,0.013,1.037
2026/05/14 10:30:31.728,-0.124,0.004,1.094
2026/05/14 10:30:31.748,-0.055,0.024,1.027
2026/05/14 10:30:31.768,-0.04,0.025,1.002
2026/05/14 10:30:31.788,-0.032,0.029,1.053
2026/05/14 10:30:31.808,-0.036,0.021,1.063
2026/05/14 10:30:31.828,-0.05,0.069,0.987
2026/05/14 10:30:31.848,-0.06,0.032,1.026
2026/05/14 10:30:31.868,-0.079,0.034,1.029
2026/05/14 10:30:31.888,-0.065,0.026,1.022
2026/05/14 10:30:31.908,0.031,0.024,1.058
2026/05/14 10:30:31.928,-0.013,0.171,0.987
2026/05/14 10:30:31.948,-0.04,-0.045,1.106
2026/05/14 10:30:31.968,-0.109,0.019,1.32
2026/05/14 10:30:31.988,-0.02,0.036,1.012
2026/05/14 10:30:32.008,-0.088,0.002,1.128
2026/05/14 10:30:32.028,-0.065,0.031,1.019
2026/05/14 10:30:32.048,-0.067,0.032,1.017
2026/05/14 10:30:32.068,-0.074,0.026,1.101
2026/05/14 10:30:32.088,-0.047,0.033,1.029
2026/05/14 10:30:32.108,-0.053,0.029,1.021
2026/05/14 10:30:32.128,-0.053,0.026,1.028
2026/05/14 10:30:32.148,-0.051,0.036,1.023
2026/05/14 10:30:32.168,-0.055,0.037,1.021
2026/05/14 10:30:32.188,-0.062,0.023,0.989
2026/05/14 10:30:32.208,-0.188,-0.047,0.943
2026/05/14 10:30:32.228,0.0,0.095,0.831
2026/05/14 10:30:32.248,-0.05,0.015,1.066
2026/05/14 10:30:32.268,-0.094,0.005,0.965
2026/05/14 10:30:32.289,-0.031,0.028,1.026
2026/05/14 10:30:32.309,-0.077,0.019,1.007
2026/05/14 10:30:32.329,-0.08,0.005,1.048
2026/05/14 10:30:32.349,-0.018,0.107,0.385
2026/05/14 10:30:32.369,-0.14,-0.092,1.313
2026/05/14 10:30:32.389,-0.017,0.157,0.459
2026/05/14 10:30:32.409,-0.09,0.019,1.044
2026/05/14 10:30:32.429,-0.061,0.032,1.04
2026/05/14 10:30:32.449,-0.054,0.018,1.036
2026/05/14 10:30:32.469,-0.063,0.032,1.032
2026/05/14 10:30:32.489,-0.055,0.036,1.01
2026/05/14 10:30:32.509,-0.044,0.104,0.748
2026/05/14 10:30:32.529,-0.108,-0.048,0.983
2026/05/14 10:30:32.549,-0.032,-0.047,1.088
2026/05/14 10:30:32.569,-0.057,0.032,1.026
2026/05/14 10:30:32.589,-0.05,0.036,1.019
2026/05/14 10:30:32.609,-0.05,0.029,1.025
2026/05/14 10:30:32.629,-0.058,0.031,1.026
2026/05/14 10:30:32.649,-0.053,0.03,1.02
2026/05/14 10:30:32.669,-0.1,-0.013,1.066
2026/05/14 10:30:32.689,-0.052,0.037,1.027
2026/05/14 10:30:32.709,-0.128,0.07,1.054
2026/05/14 10:30:32.729,-0.06,0.032,1.02
2026/05/14 10:30:32.749,-0.064,0.031,1.027
2026/05/14 10:30:32.769,-0.057,0.025,1.019
2026/05/14 10:30:32.789,-0.055,0.013,1.034
2026/05/14 10:30:32.809,-0.037,0.066,0.894
2026/05/14 10:30:32.829,-0.118,-0.335,2.226
2026/05/14 10:30:32.849,-0.032,0.148,0.608
2026/05/14 10:30:32.869,-0.089,-0.092,1.086
2026/05/14 10:30:32.889,-0.046,0.013,0.648
2026/05/14 10:30:32.909,-0.062,0.044,0.989
2026/05/14 10:30:32.929,-0.041,-0.056,1.052
2026/05/14 10:30:32.949,-0.126,0.32,-0.006
2026/05/14 10:30:32.969,-0.009,0.043,0.928
2026/05/14 10:30:32.990,-0.089,-0.052,1.249
2026/05/14 10:30:33.010,-0.077,0.016,0.949
2026/05/14 10:30:33.030,-0.039,0.062,0.934
2026/05/14 10:30:33.050,-0.053,0.024,1.013
2026/05/14 10:30:33.070,-0.076,0.029,1.008
2026/05/14 10:30:33.090,-0.055,0.029,1.032
2026/05/14 10:30:33.110,-0.056,0.027,1.017
2026/05/14 10:30:33.130,-0.045,0.028,1.011
2026/05/14 10:30:33.150,-0.057,0.027,1.02
2026/05/14 10:30:33.170,-0.032,0.087,0.995
2026/05/14 10:30:33.190,-0.148,0.102,1.189
2026/05/14 10:30:33.210,-0.079,0.046,0.809
2026/05/14 10:30:33.230,-0.046,0.057,0.971
2026/05/14 10:30:33.250,-0.067,0.013,1.017
2026/05/14 10:30:33.270,-0.044,0.026,1.023
2026/05/14 10:30:33.290,-0.045,0.067,0.93
2026/05/14 10:30:33.310,-0.048,0.08,0.96
2026/05/14 10:30:33.330,-0.033,0.071,0.854
2026/05/14 10:30:33.350,-0.154,-0.462,3.289
2026/05/14 10:30:33.370,-0.069,-0.028,1.119
2026/05/14 10:30:33.390,-0.052,0.041,1.156
2026/05/14 10:30:33.410,-0.038,0.036,0.996
2026/05/14 10:30:33.430,-0.041,0.067,1.024
2026/05/14 10:30:33.450,-0.041,0.038,1.019
2026/05/14 10:30:33.470,-0.054,0.03,1.04
2026/05/14 10:30:33.490,-0.133,-0.015,1.066
2026/05/14 10:30:33.510,-0.064,0.02,1.043
2026/05/14 10:30:33.530,-0.06,0.016,1.027
2026/05/14 10:30:33.550,-0.049,0.008,1.045
2026/05/14 10:30:33.570,-0.062,0.064,0.935
2026/05/14 10:30:33.590,-0.07,0.027,1.029
2026/05/14 10:30:33.610,-0.055,0.034,1.026
2026/05/14 10:30:33.630,-0.044,0.036,1.022
2026/05/14 10:30:33.650,-0.086,-0.026,1.224
2026/05/14 10:30:33.671,-0.065,0.034,1.039
2026/05/14 10:30:33.691,-0.058,0.033,1.056
2026/05/14 10:30:33.711,-0.061,0.03,1.035
2026/05/14 10:30:33.731,-0.045,0.049,1.007
2026/05/14 10:30:33.751,0.145,-0.005,0.875
2026/05/14 10:30:33.771,-0.078,0.022,1.037
2026/05/14 10:30:33.791,-0.035,0.062,0.866
2026/05/14 10:30:33.811,-0.033,0.042,0.975
2026/05/14 10:30:33.831,-0.037,0.042,0.995
2026/05/14 10:30:33.851,-0.074,0.017,1.042
2026/05/14 10:30:33.871,-0.059,-0.041,1.17
2026/05/14 10:30:33.891,-0.065,0.032,1.025
2026/05/14 10:30:33.911,-0.092,0.141,0.85
2026/05/14 10:30:33.931,-0.05,0.141,0.59
2026/05/14 10:30:33.951,-0.046,0.038,1.003
2026/05/14 10:30:33.971,-0.048,0.033,1.016
2026/05/14 10:30:33.991,-0.054,0.03,1.022
2026/05/14 10:30:34.011,-0.058,0.033,1.022
2026/05/14 10:30:34.031,-0.056,0.029,1.016
2026/05/14 10:30:34.051,-0.062,0.027,1.031
2026/05/14 10:30:34.071,-0.077,0.021,1.052
2026/05/14 10:30:34.091,-0.063,0.021,1.044
2026/05/14 10:30:34.111,-0.066,0.027,1.019
2026/05/14 10:30:34.131,-0.057,0.037,1.002
2026/05/14 10:30:34.151,-0.053,0.034,1.029
2026/05/14 10:30:34.171,-0.067,0.014,1.045
2026/05/14 10:30:34.191,-0.059,0.034,1.025
2026/05/14 10:30:34.211,0.003,0.076,1.065
2026/05/14 10:30:34.231,-0.02,0.062,0.949
2026/05/14 10:30:34.251,-0.051,0.043,1.006
2026/05/14 10:30:34.271,-0.056,0.029,1.029
2026/05/14 10:30:34.291,-0.049,0.044,0.997
2026/05/14 10:30:34.311,-0.055,0.034,1.023
2026/05/14 10:30:34.331,-0.055,0.022,1.029
2026/05/14 10:30:34.352,-0.06,0.009,1.096
2026/05/14 10:30:34.372,-0.065,0.017,1.055
2026/05/14 10:30:34.392,-0.056,0.024,1.021
2026/05/14 10:30:34.412,-0.033,0.011,1.054
2026/05/14 10:30:34.432,-0.061,0.022,1.051
2026/05/14 10:30:34.452,-0.059,0.028,1.032
2026/05/14 10:30:34.472,-0.058,0.031,1.02
2026/05/14 10:30:34.492,-0.056,-0.07,1.283
2026/05/14 10:30:34.512,-0.186,-0.122,1.627
2026/05/14 10:30:34.532,-0.025,0.052,0.93
2026/05/14 10:30:34.552,-0.119,-0.096,1.361
2026/05/14 10:30:34.572,-0.008,0.118,0.788
2026/05/14 10:30:34.592,-0.075,-0.146,1.533
2026/05/14 10:30:34.612,-0.057,-0.014,1.16
2026/05/14 10:30:34.632,-0.018,0.024,0.984
2026/05/14 10:30:34.652,-0.214,-0.127,1.887
2026/05/14 10:30:34.672,-0.01,-0.081,1.315
2026/05/14 10:30:34.692,-0.198,0.377,-0.005
2026/05/14 10:30:34.712,-0.039,0.037,1.056
2026/05/14 10:30:34.732,-0.108,-0.066,1.151
2026/05/14 10:30:34.752,-0.031,0.122,0.854
2026/05/14 10:30:34.772,-0.039,0.057,0.929
2026/05/14 10:30:34.792,-0.047,0.042,1.008
2026/05/14 10:30:34.812,-0.058,0.028,1.046
2026/05/14 10:30:34.832,-0.055,0.035,1.027
2026/05/14 10:30:34.852,-0.057,0.029,1.025
2026/05/14 10:30:34.872,-0.056,0.037,1.01
2026/05/14 10:30:34.892,-0.062,0.029,1.02
2026/05/14 10:30:34.912,-0.054,0.029,1.025
2026/05/14 10:30:34.932,-0.058,0.027,1.026
2026/05/14 10:30:34.952,-0.053,0.026,1.026
2026/05/14 10:30:34.972,-0.101,0.001,0.853
2026/05/14 10:30:34.992,-0.024,0.134,0.645
2026/05/14 10:30:35.012,-0.051,0.03,0.988
2026/05/14 10:30:35.033,-0.057,0.033,1.013
2026/05/14 10:30:35.053,-0.013,0.16,0.628
2026/05/14 10:30:35.073,-0.07,0.02,1.063
2026/05/14 10:30:35.093,-0.057,0.034,1.028
2026/05/14 10:30:35.113,-0.041,0.029,1.017
2026/05/14 10:30:35.133,-0.044,0.021,1.029
2026/05/14 10:30:35.153,-0.052,0.028,1.023
2026/05/14 10:30:35.173,-0.062,0.067,0.964
2026/05/14 10:30:35.193,-0.076,0.055,0.989
2026/05/14 10:30:35.213,-0.034,0.03,1.082
2026/05/14 10:30:35.233,-0.073,0.022,0.648
2026/05/14 10:30:35.253,-0.102,0.028,1.073
2026/05/14 10:30:35.273,-0.063,0.056,0.595
2026/05/14 10:30:35.293,-0.064,-0.002,1.327
2026/05/14 10:30:35.313,0.022,0.15,0.435
2026/05/14 10:30:35.333,0.039,0.061,0.871
2026/05/14 10:30:35.353,-0.051,0.054,1.029
2026/05/14 10:30:35.373,-0.051,0.036,1.05
2026/05/14 10:30:35.393,-0.057,0.034,1.036
2026/05/14 10:30:35.413,-0.052,0.032,1.015
2026/05/14 10:30:35.433,-0.05,0.024,1.006
2026/05/14 10:30:35.453,-0.058,0.028,1.003
2026/05/14 10:30:35.473,-0.061,0.031,1.017
2026/05/14 10:30:35.493,-0.058,0.036,1.027
2026/05/14 10:30:35.513,-0.06,0.032,1.035
2026/05/14 10:30:35.533,-0.052,0.036,1.022
2026/05/14 10:30:35.553,-0.049,0.035,1.021
2026/05/14 10:30:35.573,-0.022,-0.002,1.032
2026/05/14 10:30:35.593,-0.056,0.017,1.024
2026/05/14 10:30:35.613,-0.049,0.037,1.021
2026/05/14 10:30:35.633,-0.069,0.038,1.092
2026/05/14 10:30:35.653,-0.062,0.021,1.067
2026/05/14 10:30:35.673,-0.045,0.034,1.023
2026/05/14 10:30:35.693,-0.042,0.057,0.96
2026/05/14 10:30:35.713,-0.066,0.002,3.105
2026/05/14 10:30:35.734,-0.053,0.032,1.052
2026/05/14 10:30:35.754,-0.058,0.079,0.812
2026/05/14 10:30:35.774,-0.048,0.009,1.16
2026/05/14 10:30:35.794,0.018,0.136,0.082
2026/05/14 10:30:35.814,-0.074,-0.069,1.252
2026/05/14 10:30:35.834,-0.058,-0.016,0.937
2026/05/14 10:30:35.854,-0.095,0.021,1.104
2026/05/14 10:30:35.874,-0.025,0.147,1.128
2026/05/14 10:30:35.894,-0.107,-0.265,3.058
2026/05/14 10:30:35.914,-0.069,0.07,0.4
2026/05/14 10:30:35.934,-0.06,0.02,1.072
2026/05/14 10:30:35.954,-0.052,0.035,1.019
2026/05/14 10:30:35.974,-0.056,0.034,1.03
2026/05/14 10:30:35.994,-0.052,0.034,1.028
2026/05/14 10:30:36.014,-0.044,0.038,1.02
2026/05/14 10:30:36.034,-0.052,0.036,1.03
2026/05/14 10:30:36.054,-0.057,0.029,1.035
2026/05/14 10:30:36.074,-0.045,0.031,1.021
2026/05/14 10:30:36.094,-0.057,0.028,1.025
2026/05/14 10:30:36.114,-0.059,0.03,1.027
2026/05/14 10:30:36.134,-0.052,0.032,1.018
2026/05/14 10:30:36.154,-0.059,0.03,1.022
2026/05/14 10:30:36.174,-0.064,0.027,1.029
2026/05/14 10:30:36.194,-0.054,0.029,1.026
2026/05/14 10:30:36.214,-0.05,0.031,1.021
2026/05/14 10:30:36.234,-0.057,0.029,1.026
2026/05/14 10:30:36.254,-0.054,0.031,1.028
2026/05/14 10:30:36.274,-0.048,0.036,1.021
2026/05/14 10:30:36.294,-0.06,0.031,1.024
2026/05/14 10:30:36.314,-0.055,0.033,1.025
2026/05/14 10:30:36.334,-0.055,0.033,1.023
2026/05/14 10:30:36.354,-0.057,0.031,1.024
2026/05/14 10:30:36.374,-0.06,0.026,1.027
2026/05/14 10:30:36.394,-0.048,0.032,1.022
2026/05/14 10:30:36.414,-0.053,0.026,1.025
2026/05/14 10:30:36.435,-0.057,0.025,1.026
2026/05/14 10:30:36.455,-0.055,0.031,1.02
2026/05/14 10:30:36.475,-0.056,0.03,1.024
2026/05/14 10:30:36.495,-0.056,0.031,1.019
2026/05/14 10:30:36.515,-0.055,0.032,1.023
2026/05/14 10:30:36.535,-0.053,0.035,1.026
2026/05/14 10:30:36.555,-0.055,0.027,1.03
2026/05/14 10:30:36.575,-0.046,0.035,1.02
2026/05/14 10:30:36.595,-0.052,0.028,1.02
2026/05/14 10:30:36.615,-0.06,0.032,1.022
2026/05/14 10:30:36.635,-0.056,0.033,1.02
2026/05/14 10:30:36.655,-0.057,0.034,1.022
2026/05/14 10:30:36.675,-0.061,0.031,1.028
2026/05/14 10:30:36.695,-0.056,0.03,1.026
2026/05/14 10:30:36.715,-0.053,0.027,1.022
2026/05/14 10:30:36.735,-0.051,0.029,1.028
2026/05/14 10:30:36.755,-0.057,0.032,1.023
2026/05/14 10:30:36.775,-0.054,0.034,1.025
2026/05/14 10:30:36.795,-0.053,0.034,1.026
2026/05/14 10:30:36.815,-0.054,0.033,1.024
2026/05/14 10:30:36.835,-0.051,0.033,1.021
2026/05/14 10:30:36.855,-0.057,0.031,1.025
2026/05/14 10:30:36.875,-0.056,0.03,1.024
2026/05/14 10:30:36.895,-0.056,0.029,1.021
2026/05/14 10:30:36.915,-0.059,0.031,1.022
2026/05/14 10:30:36.935,-0.054,0.027,1.022
2026/05/14 10:30:36.955,-0.057,0.033,1.022
2026/05/14 10:30:36.975,-0.059,0.028,1.022
2026/05/14 10:30:36.995,-0.057,0.032,1.024
2026/05/14 10:30:37.015,-0.055,0.033,1.02
2026/05/14 10:30:37.035,-0.051,0.032,1.023
2026/05/14 10:30:37.055,-0.052,0.03,1.021
2026/05/14 10:30:37.075,-0.054,0.036,1.018
2026/05/14 10:30:37.095,-0.056,0.035,1.026
2026/05/14 10:30:37.115,-0.053,0.033,1.023
2026/05/14 10:30:37.136,-0.059,0.031,1.021
2026/05/14 10:30:37.156,-0.055,0.035,1.025
2026/05/14 10:30:37.176,-0.058,0.028,1.021
2026/05/14 10:30:37.196,-0.055,0.024,1.023
2026/05/14 10:30:37.216,-0.056,0.024,1.026
2026/05/14 10:30:37.236,-0.056,0.031,1.022
2026/05/14 10:30:37.256,-0.054,0.028,1.023
2026/05/14 10:30:37.276,-0.056,0.031,1.022
2026/05/14 10:30:37.296,-0.051,0.035,1.025
2026/05/14 10:30:37.316,-0.057,0.033,1.022
2026/05/14 10:30:37.336,-0.055,0.036,1.019
2026/05/14 10:30:37.356,-0.055,0.034,1.024
2026/05/14 10:30:37.376,-0.053,0.03,1.026
2026/05/14 10:30:37.396,-0.055,0.031,1.025
2026/05/14 10:30:37.416,-0.055,0.032,1.023
2026/05/14 10:30:37.436,-0.057,0.034,1.025
2026/05/14 10:30:37.456,-0.059,0.03,1.025
2026/05/14 10:30:37.476,-0.057,0.032,1.026
2026/05/14 10:30:37.496,-0.059,0.032,1.025
2026/05/14 10:30:37.516,-0.055,0.03,1.021
2026/05/14 10:30:37.536,-0.052,0.032,1.024
2026/05/14 10:30:37.556,-0.057,0.033,1.025
2026/05/14 10:30:37.576,-0.056,0.034,1.024
2026/05/14 10:30:37.596,-0.057,0.031,1.025
2026/05/14 10:30:37.616,-0.058,0.036,1.02
2026/05/14 10:30:37.636,-0.054,0.03,1.028
2026/05/14 10:30:37.656,-0.058,0.031,1.02
2026/05/14 10:30:37.676,-0.055,0.027,1.024
2026/05/14 10:30:37.696,-0.058,0.033,1.024
2026/05/14 10:30:37.716,-0.057,0.032,1.025
2026/05/14 10:30:37.736,-0.059,0.03,1.024
2026/05/14 10:30:37.756,-0.055,0.032,1.022
2026/05/14 10:30:37.776,-0.056,0.03,1.024
2026/05/14 10:30:37.796,-0.052,0.032,1.026
2026/05/14 10:30:37.816,-0.055,0.036,1.021
2026/05/14 10:30:37.837,-0.054,0.034,1.026
2026/05/14 10:30:37.857,-0.056,0.031,1.023
2026/05/14 10:30:37.877,-0.055,0.032,1.022
2026/05/14 10:30:37.897,-0.055,0.032,1.02
2026/05/14 10:30:37.917,-0.055,0.032,1.023
2026/05/14 10:30:37.937,-0.056,0.031,1.025
2026/05/14 10:30:37.957,-0.057,0.031,1.026
2026/05/14 10:30:37.977,-0.058,0.031,1.022
2026/05/14 10:30:37.997,-0.056,0.032,1.022
2026/05/14 10:30:38.017,-0.055,0.034,1.025
2026/05/14 10:30:38.037,-0.054,0.033,1.02
2026/05/14 10:30:38.057,-0.055,0.033,1.023
2026/05/14 10:30:38.077,-0.056,0.033,1.026
2026/05/14 10:30:38.097,-0.054,0.034,1.021
2026/05/14 10:30:38.117,-0.057,0.033,1.02
2026/05/14 10:30:38.137,-0.051,0.031,1.026
2026/05/14 10:30:38.157,-0.059,0.029,1.023
2026/05/14 10:30:38.177,-0.059,0.031,1.022
2026/05/14 10:30:38.197,-0.059,0.034,1.022
2026/05/14 10:30:38.217,-0.059,0.03,1.025
2026/05/14 10:30:38.237,-0.056,0.03,1.024
2026/05/14 10:30:38.257,-0.06,0.031,1.024
2026/05/14 10:30:38.277,-0.056,0.033,1.024
2026/05/14 10:30:38.297,-0.051,0.03,1.019
2026/05/14 10:30:38.317,-0.053,0.034,1.023
2026/05/14 10:30:38.337,-0.057,0.029,1.021
2026/05/14 10:30:38.357,-0.056,0.036,1.024
2026/05/14 10:30:38.377,-0.056,0.029,1.024
2026/05/14 10:30:38.397,-0.056,0.029,1.023
2026/05/14 10:30:38.417,-0.056,0.033,1.024
2026/05/14 10:30:38.437,-0.055,0.026,1.024
2026/05/14 10:30:38.457,-0.056,0.032,1.024
2026/05/14 10:30:38.477,-0.053,0.029,1.023
2026/05/14 10:30:38.497,-0.055,0.027,1.023
2026/05/14 10:30:38.518,-0.058,0.032,1.026
2026/05/14 10:30:38.538,-0.057,0.031,1.023
2026/05/14 10:30:38.558,-0.053,0.033,1.021
2026/05/14 10:30:38.578,-0.055,0.032,1.02
2026/05/14 10:30:38.598,-0.053,0.034,1.021
2026/05/14 10:30:38.618,-0.054,0.027,1.027
2026/05/14 10:30:38.638,-0.054,0.031,1.025
2026/05/14 10:30:38.658,-0.058,0.025,1.026
2026/05/14 10:30:38.678,-0.055,0.035,1.026
2026/05/14 10:30:38.698,-0.057,0.03,1.025
2026/05/14 10:30:38.718,-0.055,0.028,1.026
2026/05/14 10:30:38.738,-0.055,0.03,1.023
2026/05/14 10:30:38.758,-0.055,0.034,1.025
2026/05/14 10:30:38.778,-0.058,0.029,1.022
2026/05/14 10:30:38.798,-0.06,0.031,1.019
2026/05/14 10:30:38.818,-0.056,0.03,1.023
2026/05/14 10:30:38.838,-0.057,0.033,1.022
2026/05/14 10:30:38.858,-0.052,0.029,1.022
2026/05/14 10:30:38.878,-0.054,0.031,1.022
2026/05/14 10:30:38.898,-0.056,0.031,1.022
2026/05/14 10:30:38.918,-0.058,0.029,1.022
2026/05/14 10:30:38.938,-0.057,0.03,1.02
2026/05/14 10:30:38.958,-0.056,0.028,1.024
2026/05/14 10:30:38.978,-0.059,0.032,1.023
2026/05/14 10:30:38.998,-0.053,0.032,1.026
2026/05/14 10:30:39.018,-0.056,0.031,1.024
2026/05/14 10:30:39.038,-0.057,0.032,1.025
2026/05/14 10:30:39.058,-0.056,0.029,1.026
2026/05/14 10:30:39.078,-0.054,0.029,1.023
2026/05/14 10:30:39.098,-0.055,0.03,1.024
2026/05/14 10:30:39.118,-0.056,0.03,1.02
2026/05/14 10:30:39.138,-0.057,0.03,1.024
2026/05/14 10:30:39.158,-0.059,0.033,1.023
2026/05/14 10:30:39.178,-0.056,0.029,1.021
2026/05/14 10:30:39.198,-0.055,0.034,1.024
2026/05/14 10:30:39.218,-0.056,0.03,1.018
2026/05/14 10:30:39.239,-0.056,0.031,1.025
2026/05/14 10:30:39.259,-0.052,0.028,1.022
2026/05/14 10:30:39.279,-0.053,0.037,1.026
2026/05/14 10:30:39.299,-0.055,0.035,1.028
2026/05/14 10:30:39.319,-0.057,0.037,1.024
2026/05/14 10:30:39.339,-0.056,0.036,1.017
2026/05/14 10:30:39.359,-0.055,0.037,1.026
2026/05/14 10:30:39.379,-0.054,0.032,1.025
2026/05/14 10:30:39.399,-0.052,0.03,1.024
2026/05/14 10:30:39.419,-0.056,0.026,1.022
2026/05/14 10:30:39.439,-0.055,0.025,1.022
2026/05/14 10:30:39.459,-0.059,0.027,1.024
2026/05/14 10:30:39.479,-0.058,0.021,1.025
2026/05/14 10:30:39.499,-0.054,0.022,1.027
2026/05/14 10:30:39.519,-0.057,0.02,1.025
2026/05/14 10:30:39.539,-0.058,0.018,1.027
2026/05/14 10:30:39.559,-0.061,0.021,1.022
2026/05/14 10:30:39.579,-0.06,0.031,1.026
2026/05/14 10:30:39.599,-0.057,0.034,1.025
2026/05/14 10:30:39.619,-0.054,0.036,1.022
2026/05/14 10:30:39.639,-0.056,0.037,1.024
2026/05/14 10:30:39.659,-0.05,0.041,1.024
2026/05/14 10:30:39.679,-0.053,0.037,1.021
2026/05/14 10:30:39.699,-0.049,0.037,1.026
2026/05/14 10:30:39.719,-0.049,0.033,1.025
2026/05/14 10:30:39.739,-0.057,0.031,1.024
2026/05/14 10:30:39.759,-0.06,0.027,1.02
2026/05/14 10:30:39.779,-0.062,0.025,1.024
2026/05/14 10:30:39.799,-0.056,0.024,1.028
2026/05/14 10:30:39.819,-0.062,0.024,1.022
2026/05/14 10:30:39.839,-0.059,0.026,1.024
2026/05/14 10:30:39.859,-0.057,0.03,1.024
2026/05/14 10:30:39.879,-0.054,0.035,1.022
2026/05/14 10:30:39.899,-0.055,0.031,1.023
2026/05/14 10:30:39.919,-0.055,0.035,1.019
2026/05/14 10:30:39.940,-0.051,0.039,1.023
2026/05/14 10:30:39.960,-0.055,0.036,1.024
2026/05/14 10:30:39.980,-0.06,0.037,1.023
2026/05/14 10:30:40.000,-0.057,0.036,1.02
2026/05/14 10:30:40.020,-0.06,0.03,1.031
2026/05/14 10:30:40.040,-0.058,0.027,1.02
2026/05/14 10:30:40.060,-0.058,0.027,1.025
2026/05/14 10:30:40.080,-0.057,0.026,1.022
2026/05/14 10:30:40.100,-0.053,0.025,1.022
2026/05/14 10:30:40.120,-0.057,0.035,1.022
2026/05/14 10:30:40.140,-0.061,0.035,1.022
2026/05/14 10:30:40.160,-0.055,0.033,1.025
2026/05/14 10:30:40.180,-0.054,0.034,1.027
2026/05/14 10:30:40.200,-0.051,0.032,1.023
2026/05/14 10:30:40.220,-0.052,0.032,1.022
2026/05/14 10:30:40.240,-0.055,0.036,1.025
2026/05/14 10:30:40.260,-0.057,0.033,1.02
2026/05/14 10:30:40.280,-0.059,0.029,1.023
2026/05/14 10:30:40.300,-0.062,0.024,1.024
2026/05/14 10:30:40.320,-0.059,0.027,1.021
2026/05/14 10:30:40.340,-0.055,0.025,1.024
2026/05/14 10:30:40.360,-0.055,0.029,1.025
2026/05/14 10:30:40.380,-0.052,0.028,1.024
2026/05/14 10:30:40.400,-0.057,0.027,1.028
2026/05/14 10:30:40.420,-0.059,0.028,1.024
2026/05/14 10:30:40.440,-0.058,0.026,1.016
2026/05/14 10:30:40.460,-0.055,0.032,1.023
2026/05/14 10:30:40.480,-0.05,0.037,1.021
2026/05/14 10:30:40.500,-0.051,0.043,1.021
2026/05/14 10:30:40.520,-0.05,0.045,1.018
2026/05/14 10:30:40.540,-0.054,0.043,1.021
2026/05/14 10:30:40.560,-0.056,0.033,1.024
2026/05/14 10:30:40.580,-0.054,0.032,1.022
2026/05/14 10:30:40.600,-0.06,0.024,1.024
2026/05/14 10:30:40.620,-0.059,0.027,1.023
2026/05/14 10:30:40.640,-0.058,0.02,1.021
2026/05/14 10:30:40.661,-0.064,0.026,1.026
2026/05/14 10:30:40.681,-0.057,0.03,1.024
2026/05/14 10:30:40.701,-0.058,0.027,1.021
2026/05/14 10:30:40.721,-0.056,0.031,1.02
2026/05/14 10:30:40.741,-0.051,0.036,1.024
2026/05/14 10:30:40.761,-0.051,0.033,1.025
2026/05/14 10:30:40.781,-0.05,0.037,1.023
2026/05/14 10:30:40.801,-0.054,0.037,1.019
2026/05/14 10:30:40.821,-0.058,0.031,1.019
2026/05/14 10:30:40.841,-0.057,0.029,1.023
2026/05/14 10:30:40.861,-0.056,0.03,1.025
2026/05/14 10:30:40.881,-0.059,0.027,1.024
2026/05/14 10:30:40.901,-0.056,0.024,1.02
2026/05/14 10:30:40.921,-0.055,0.023,1.021
2026/05/14 10:30:40.941,-0.058,0.028,1.023
2026/05/14 10:30:40.961,-0.058,0.031,1.025
2026/05/14 10:30:40.981,-0.054,0.035,1.023
2026/05/14 10:30:41.001,-0.055,0.033,1.023
2026/05/14 10:30:41.021,-0.051,0.035,1.022
2026/05/14 10:30:41.041,-0.05,0.037,1.024
2026/05/14 10:30:41.061,-0.051,0.03,1.023
2026/05/14 10:30:41.081,-0.057,0.035,1.022
2026/05/14 10:30:41.101,-0.054,0.031,1.024
2026/05/14 10:30:41.121,-0.054,0.034,1.023
2026/05/14 10:30:41.141,-0.058,0.028,1.024
2026/05/14 10:30:41.161,-0.06,0.026,1.025
2026/05/14 10:30:41.181,-0.058,0.026,1.026
2026/05/14 10:30:41.201,-0.063,0.028,1.026
2026/05/14 10:30:41.221,-0.054,0.032,1.025
2026/05/14 10:30:41.241,-0.056,0.031,1.027
2026/05/14 10:30:41.261,-0.058,0.034,1.025
2026/05/14 10:30:41.281,-0.058,0.031,1.019
2026/05/14 10:30:41.301,-0.05,0.032,1.021
2026/05/14 10:30:41.321,-0.053,0.032,1.021
2026/05/14 10:30:41.341,-0.056,0.032,1.023
2026/05/14 10:30:41.362,-0.06,0.029,1.023
2026/05/14 10:30:41.382,-0.059,0.026,1.026
2026/05/14 10:30:41.402,-0.054,0.027,1.025
2026/05/14 10:30:41.422,-0.058,0.027,1.024
2026/05/14 10:30:41.442,-0.055,0.027,1.023
2026/05/14 10:30:41.462,-0.06,0.028,1.026
2026/05/14 10:30:41.482,-0.055,0.029,1.024
2026/05/14 10:30:41.502,-0.055,0.032,1.021
2026/05/14 10:30:41.522,-0.056,0.031,1.025
2026/05/14 10:30:41.542,-0.052,0.034,1.024
2026/05/14 10:30:41.562,-0.055,0.037,1.019
2026/05/14 10:30:41.582,-0.054,0.031,1.022
2026/05/14 10:30:41.602,-0.052,0.032,1.025
2026/05/14 10:30:41.622,-0.054,0.031,1.028
2026/05/14 10:30:41.642,-0.056,0.032,1.021
2026/05/14 10:30:41.662,-0.057,0.034,1.02
2026/05/14 10:30:41.682,-0.058,0.031,1.023
2026/05/14 10:30:41.702,-0.055,0.031,1.022
2026/05/14 10:30:41.722,-0.059,0.029,1.023
2026/05/14 10:30:41.742,-0.055,0.031,1.023
2026/05/14 10:30:41.762,-0.059,0.03,1.024
2026/05/14 10:30:41.782,-0.054,0.032,1.022
2026/05/14 10:30:41.802,-0.056,0.032,1.025
2026/05/14 10:30:41.822,-0.054,0.036,1.02
2026/05/14 10:30:41.842,-0.055,0.032,1.021
2026/05/14 10:30:41.862,-0.058,0.035,1.024
2026/05/14 10:30:41.882,-0.055,0.031,1.02
2026/05/14 10:30:41.902,-0.056,0.031,1.024
2026/05/14 10:30:41.922,-0.057,0.028,1.025
2026/05/14 10:30:41.942,-0.059,0.032,1.024
2026/05/14 10:30:41.962,-0.056,0.034,1.024
2026/05/14 10:30:41.982,-0.056,0.034,1.02
2026/05/14 10:30:42.002,-0.054,0.029,1.028
2026/05/14 10:30:42.022,-0.055,0.031,1.022
2026/05/14 10:30:42.042,-0.058,0.035,1.026
2026/05/14 10:30:42.063,-0.052,0.035,1.027
2026/05/14 10:30:42.083,-0.055,0.032,1.02
2026/05/14 10:30:42.103,-0.059,0.031,1.023
2026/05/14 10:30:42.123,-0.053,0.031,1.02
2026/05/14 10:30:42.143,-0.056,0.026,1.025
2026/05/14 10:30:42.163,-0.053,0.032,1.026
2026/05/14 10:30:42.183,-0.056,0.033,1.023
2026/05/14 10:30:42.203,-0.056,0.029,1.029
2026/05/14 10:30:42.223,-0.055,0.03,1.024
2026/05/14 10:30:42.243,-0.061,0.026,1.026
2026/05/14 10:30:42.263,-0.059,0.03,1.023
2026/05/14 10:30:42.283,-0.058,0.033,1.026
2026/05/14 10:30:42.303,-0.054,0.034,1.02
2026/05/14 10:30:42.323,-0.055,0.032,1.024
2026/05/14 10:30:42.343,-0.053,0.034,1.023
2026/05/14 10:30:42.363,-0.054,0.029,1.02
2026/05/14 10:30:42.383,-0.056,0.029,1.021
2026/05/14 10:30:42.403,-0.056,0.029,1.02
2026/05/14 10:30:42.423,-0.054,0.034,1.022
2026/05/14 10:30:42.443,-0.055,0.027,1.026
2026/05/14 10:30:42.463,-0.055,0.033,1.024
2026/05/14 10:30:42.483,-0.055,0.03,1.024
2026/05/14 10:30:42.503,-0.056,0.026,1.023
2026/05/14 10:30:42.523,-0.056,0.03,1.026
2026/05/14 10:30:42.543,-0.058,0.034,1.024
2026/05/14 10:30:42.563,-0.056,0.032,1.024
2026/05/14 10:30:42.583,-0.058,0.032,1.022
2026/05/14 10:30:42.603,-0.052,0.035,1.021
2026/05/14 10:30:42.623,-0.057,0.031,1.023
2026/05/14 10:30:42.643,-0.056,0.032,1.027
2026/05/14 10:30:42.663,-0.061,0.032,1.023
2026/05/14 10:30:42.683,-0.057,0.031,1.025
2026/05/14 10:30:42.703,-0.055,0.032,1.024
2026/05/14 10:30:42.723,-0.057,0.032,1.024
2026/05/14 10:30:42.743,-0.057,0.03,1.023
2026/05/14 10:30:42.764,-0.052,0.034,1.028
2026/05/14 10:30:42.784,-0.057,0.031,1.023
2026/05/14 10:30:42.804,-0.056,0.032,1.021
2026/05/14 10:30:42.824,-0.053,0.032,1.024
2026/05/14 10:30:42.844,-0.054,0.031,1.02
2026/05/14 10:30:42.864,-0.055,0.033,1.023
2026/05/14 10:30:42.884,-0.057,0.03,1.024
2026/05/14 10:30:42.904,-0.057,0.03,1.024
2026/05/14 10:30:42.924,-0.056,0.03,1.02
2026/05/14 10:30:42.944,-0.056,0.033,1.021
2026/05/14 10:30:42.964,-0.059,0.031,1.024
2026/05/14 10:30:42.984,-0.058,0.029,1.024
2026/05/14 10:30:43.004,-0.06,0.029,1.025
2026/05/14 10:30:43.024,-0.054,0.029,1.019
2026/05/14 10:30:43.044,-0.056,0.032,1.021
2026/05/14 10:30:43.064,-0.053,0.031,1.022
2026/05/14 10:30:43.084,-0.056,0.033,1.023
2026/05/14 10:30:43.104,-0.053,0.03,1.026
2026/05/14 10:30:43.124,-0.055,0.029,1.022
2026/05/14 10:30:43.144,-0.057,0.031,1.023
2026/05/14 10:30:43.164,-0.053,0.032,1.022
2026/05/14 10:30:43.184,-0.056,0.026,1.02
2026/05/14 10:30:43.204,-0.056,0.028,1.022
2026/05/14 10:30:43.224,-0.058,0.032,1.024
2026/05/14 10:30:43.244,-0.055,0.031,1.018
2026/05/14 10:30:43.264,-0.059,0.035,1.019
2026/05/14 10:30:43.284,-0.056,0.031,1.014
2026/05/14 10:30:43.304,-0.058,0.028,1.027
2026/05/14 10:30:43.324,-0.053,0.031,1.025
2026/05/14 10:30:43.344,-0.054,0.032,1.02
2026/05/14 10:30:43.364,-0.055,0.031,1.018
2026/05/14 10:30:43.384,-0.055,0.03,1.023
2026/05/14 10:30:43.404,-0.056,0.028,1.024
2026/05/14 10:30:43.424,-0.057,0.029,1.021
2026/05/14 10:30:43.444,-0.056,0.03,1.022
2026/05/14 10:30:43.465,-0.058,0.031,1.024
2026/05/14 10:30:43.485,-0.058,0.031,1.024
2026/05/14 10:30:43.505,-0.059,0.05,1.043
2026/05/14 10:30:43.525,-0.128,-0.156,1.087
2026/05/14 10:30:43.545,0.029,0.234,0.945
2026/05/14 10:30:43.565,-0.002,-0.09,1.349
2026/05/14 10:30:43.585,0.092,0.125,0.914
2026/05/14 10:30:43.605,-0.043,0.02,1.069
2026/05/14 10:30:43.625,-0.021,-0.041,1.032
2026/05/14 10:30:43.645,-0.047,-0.015,1.04
2026/05/14 10:30:43.665,-0.118,-0.055,1.056
2026/05/14 10:30:43.685,-0.133,-0.011,1.035
2026/05/14 10:30:43.705,-0.147,-0.009,0.956
2026/05/14 10:30:43.725,-0.087,0.01,1.028
2026/05/14 10:30:43.745,-0.081,0.015,1.007
2026/05/14 10:30:43.765,-0.042,0.047,0.993
2026/05/14 10:30:43.785,-0.052,0.039,1.021
2026/05/14 10:30:43.805,-0.038,0.035,1.035
2026/05/14 10:30:43.825,-0.032,0.039,0.999
2026/05/14 10:30:43.845,-0.052,0.041,1.006
2026/05/14 10:30:43.865,-0.031,0.063,1.012
2026/05/14 10:30:43.885,-0.043,0.06,1.023
2026/05/14 10:30:43.905,-0.052,0.054,0.989
2026/05/14 10:30:43.925,-0.073,0.034,1.01
2026/05/14 10:30:43.945,-0.075,0.016,1.018
2026/05/14 10:30:43.965,-0.068,-0.003,1.017
2026/05/14 10:30:43.985,-0.056,-0.004,1.027
2026/05/14 10:30:44.005,-0.053,0.004,1.023
2026/05/14 10:30:44.025,-0.057,0.016,1.018
2026/05/14 10:30:44.045,-0.07,0.02,1.022
2026/05/14 10:30:44.065,-0.067,0.032,1.016
2026/05/14 10:30:44.085,-0.054,0.048,1.02
2026/05/14 10:30:44.105,-0.048,0.051,1.02
2026/05/14 10:30:44.125,-0.04,0.047,1.025
2026/05/14 10:30:44.146,-0.036,0.046,1.023
2026/05/14 10:30:44.166,-0.045,0.042,1.02
2026/05/14 10:30:44.186,-0.057,0.03,1.022
2026/05/14 10:30:44.206,-0.059,0.034,1.029
2026/05/14 10:30:44.226,-0.062,0.027,1.021
2026/05/14 10:30:44.246,-0.066,0.019,1.025
2026/05/14 10:30:44.266,-0.068,0.015,1.029
2026/05/14 10:30:44.286,-0.064,0.009,1.025
2026/05/14 10:30:44.306,-0.064,0.014,1.024
2026/05/14 10:30:44.326,-0.062,0.019,1.023
2026/05/14 10:30:44.346,-0.048,0.036,1.026
2026/05/14 10:30:44.366,-0.048,0.044,1.025
2026/05/14 10:30:44.386,-0.042,0.047,1.027
2026/05/14 10:30:44.406,-0.047,0.044,1.019
2026/05/14 10:30:44.426,-0.053,0.04,1.023
2026/05/14 10:30:44.446,-0.058,0.04,1.024
2026/05/14 10:30:44.466,-0.051,0.039,1.028
2026/05/14 10:30:44.486,-0.052,0.028,1.023
2026/05/14 10:30:44.506,-0.051,0.021,1.023
2026/05/14 10:30:44.526,-0.064,0.016,1.024
2026/05/14 10:30:44.546,-0.063,0.012,1.018
2026/05/14 10:30:44.566,-0.065,0.014,1.025
2026/05/14 10:30:44.586,-0.062,0.03,1.02
2026/05/14 10:30:44.606,-0.056,0.037,1.025
2026/05/14 10:30:44.626,-0.047,0.038,1.025
2026/05/14 10:30:44.646,-0.048,0.041,1.022
2026/05/14 10:30:44.666,-0.047,0.036,1.021
2026/05/14 10:30:44.686,-0.045,0.035,1.022
2026/05/14 10:30:44.706,-0.048,0.035,1.025
2026/05/14 10:30:44.726,-0.055,0.035,1.025
2026/05/14 10:30:44.746,-0.06,0.029,1.023
2026/05/14 10:30:44.766,-0.058,0.024,1.023
2026/05/14 10:30:44.786,-0.065,0.019,1.026
2026/05/14 10:30:44.806,-0.063,0.017,1.025
2026/05/14 10:30:44.827,-0.058,0.022,1.021
2026/05/14 10:30:44.847,-0.051,0.029,1.025
2026/05/14 10:30:44.867,-0.048,0.036,1.019
2026/05/14 10:30:44.887,-0.054,0.037,1.023
2026/05/14 10:30:44.907,-0.053,0.034,1.026
2026/05/14 10:30:44.927,-0.052,0.039,1.02
2026/05/14 10:30:44.947,-0.047,0.037,1.021
2026/05/14 10:30:44.967,-0.05,0.036,1.026
2026/05/14 10:30:44.987,-0.051,0.032,1.024
2026/05/14 10:30:45.007,-0.057,0.024,1.023
2026/05/14 10:30:45.027,-0.063,0.024,1.026
2026/05/14 10:30:45.047,-0.064,0.02,1.023
2026/05/14 10:30:45.067,-0.065,0.027,1.021
2026/05/14 10:30:45.087,-0.154,0.161,0.924
2026/05/14 10:30:45.107,-0.123,-0.059,1.337
2026/05/14 10:30:45.127,-0.061,0.019,1.025
2026/05/14 10:30:45.147,-0.046,0.019,1.034
2026/05/14 10:30:45.167,-0.046,0.037,1.053
2026/05/14 10:30:45.187,-0.064,0.028,1.045
2026/05/14 10:30:45.207,-0.067,0.03,1.03
2026/05/14 10:30:45.227,-0.063,0.028,1.046
2026/05/14 10:30:45.247,-0.051,0.033,1.044
2026/05/14 10:30:45.267,-0.054,0.003,0.964
2026/05/14 10:30:45.287,-0.107,0.019,0.998
2026/05/14 10:30:45.307,-0.092,0.016,1.057
2026/05/14 10:30:45.327,-0.055,0.024,1.027
2026/05/14 10:30:45.347,-0.129,-0.014,1.128
2026/05/14 10:30:45.367,-0.031,-0.033,1.053
2026/05/14 10:30:45.387,-0.075,0.047,1.027
2026/05/14 10:30:45.407,-0.026,0.048,1.054
2026/05/14 10:30:45.427,-0.037,0.045,1.035
2026/05/14 10:30:45.447,-0.045,0.038,1.032
2026/05/14 10:30:45.467,-0.051,0.031,1.023
2026/05/14 10:30:45.488,-0.054,0.028,1.032
2026/05/14 10:30:45.508,-0.058,0.027,1.024
2026/05/14 10:30:45.528,-0.063,0.02,1.028
2026/05/14 10:30:45.548,-0.065,0.025,1.028
2026/05/14 10:30:45.568,-0.07,0.022,1.027
2026/05/14 10:30:45.588,-0.058,0.026,1.036
2026/05/14 10:30:45.608,-0.046,0.035,1.028
2026/05/14 10:30:45.628,-0.05,0.037,1.036
2026/05/14 10:30:45.648,-0.038,0.04,1.022
2026/05/14 10:30:45.668,-0.034,0.02,0.985
2026/05/14 10:30:45.688,-0.056,0.043,1.007
2026/05/14 10:30:45.708,-0.067,0.028,1.025
2026/05/14 10:30:45.728,-0.052,0.035,1.032
2026/05/14 10:30:45.748,-0.048,0.03,1.032
2026/05/14 10:30:45.768,-0.056,0.025,1.022
2026/05/14 10:30:45.788,-0.065,0.024,1.048
2026/05/14 10:30:45.808,-0.058,0.027,1.012
2026/05/14 10:30:45.828,-0.066,0.036,1.02
2026/05/14 10:30:45.848,-0.054,0.028,1.014
2026/05/14 10:30:45.868,-0.055,0.032,1.031
2026/05/14 10:30:45.888,-0.058,0.034,1.026
2026/05/14 10:30:45.908,-0.055,0.036,1.021
2026/05/14 10:30:45.928,-0.053,0.037,1.028
2026/05/14 10:30:45.948,-0.045,0.037,1.027
2026/05/14 10:30:45.968,-0.048,0.034,1.026
2026/05/14 10:30:45.988,-0.049,0.034,1.028
2026/05/14 10:30:46.008,-0.056,0.027,1.024
2026/05/14 10:30:46.028,-0.061,0.029,1.022
2026/05/14 10:30:46.048,-0.06,0.023,1.022
2026/05/14 10:30:46.068,-0.053,0.025,1.024
2026/05/14 10:30:46.088,-0.053,0.026,1.024
2026/05/14 10:30:46.108,-0.057,0.032,1.024
2026/05/14 10:30:46.129,-0.056,0.035,1.026
2026/05/14 10:30:46.149,-0.056,0.036,1.019
2026/05/14 10:30:46.169,-0.058,0.035,1.025
2026/05/14 10:30:46.189,-0.06,0.034,1.026
2026/05/14 10:30:46.209,-0.043,0.032,1.004
2026/05/14 10:30:46.229,-0.057,0.047,1.02
2026/05/14 10:30:46.249,-0.053,0.027,1.019
2026/05/14 10:30:46.269,-0.068,0.015,1.028
2026/05/14 10:30:46.289,-0.057,0.023,1.022
2026/05/14 10:30:46.309,-0.059,0.031,1.026
2026/05/14 10:30:46.329,-0.191,0.006,1.188
2026/05/14 10:30:46.349,-0.107,-0.022,1.125
2026/05/14 10:30:46.369,-0.079,0.021,1.022
2026/05/14 10:30:46.389,0.022,-0.038,1.056
2026/05/14 10:30:46.409,-0.026,0.033,0.99
2026/05/14 10:30:46.429,0.076,-0.178,1.377
2026/05/14 10:30:46.449,-0.065,0.058,1.076
2026/05/14 10:30:46.469,-0.047,0.028,0.936
2026/05/14 10:30:46.489,-0.126,-0.056,1.087
2026/05/14 10:30:46.509,-0.083,0.021,0.981
2026/05/14 10:30:46.529,-0.094,0.004,1.046
2026/05/14 10:30:46.549,-0.027,0.034,0.965
2026/05/14 10:30:46.569,-0.025,0.037,0.997
2026/05/14 10:30:46.589,-0.049,0.035,1.011
2026/05/14 10:30:46.609,-0.057,0.033,1.021
2026/05/14 10:30:46.629,-0.051,0.033,1.027
2026/05/14 10:30:46.649,-0.053,0.031,1.028
2026/05/14 10:30:46.669,-0.058,0.029,1.017
2026/05/14 10:30:46.689,-0.061,0.054,0.943
2026/05/14 10:30:46.709,0.008,0.018,0.942
2026/05/14 10:30:46.729,-0.023,0.023,0.976
2026/05/14 10:30:46.750,-0.083,-0.015,1.063
2026/05/14 10:30:46.770,-0.066,0.004,1.029
2026/05/14 10:30:46.790,-0.059,0.041,1.009
2026/05/14 10:30:46.810,-0.047,0.016,1.034
2026/05/14 10:30:46.830,-0.151,-0.139,1.353
2026/05/14 10:30:46.850,-0.061,0.07,0.986
2026/05/14 10:30:46.870,-0.06,0.034,1.016
2026/05/14 10:30:46.890,-0.065,0.035,1.029
2026/05/14 10:30:46.910,-0.054,-0.023,1.118
2026/05/14 10:30:46.930,0.053,0.159,0.686
2026/05/14 10:30:46.950,-0.093,0.056,1.106
2026/05/14 10:30:46.970,-0.069,0.032,1.011
2026/05/14 10:30:46.990,-0.087,0.017,1.059
2026/05/14 10:30:47.010,-0.079,0.025,1.045
2026/05/14 10:30:47.030,-0.063,0.014,1.043
2026/05/14 10:30:47.050,-0.058,0.044,0.971
2026/05/14 10:30:47.070,0.0,-0.005,1.059
2026/05/14 10:30:47.090,-0.049,0.032,1.053
2026/05/14 10:30:47.110,-0.043,0.034,1.029
2026/05/14 10:30:47.130,-0.049,0.038,1.034
2026/05/14 10:30:47.150,-0.055,0.042,1.023
2026/05/14 10:30:47.170,-0.049,0.038,1.021
2026/05/14 10:30:47.190,-0.046,0.044,1.017
2026/05/14 10:30:47.210,-0.046,0.036,1.024
2026/05/14 10:30:47.230,-0.051,0.025,1.03
2026/05/14 10:30:47.250,-0.056,0.02,1.034
2026/05/14 10:30:47.270,-0.066,0.018,1.027
2026/05/14 10:30:47.290,-0.069,0.026,1.026
2026/05/14 10:30:47.310,-0.066,0.025,1.023
2026/05/14 10:30:47.330,-0.063,0.032,1.022
2026/05/14 10:30:47.350,-0.057,0.035,1.028
2026/05/14 10:30:47.370,-0.046,0.035,1.024
2026/05/14 10:30:47.390,-0.047,0.038,1.031
2026/05/14 10:30:47.411,-0.046,0.042,1.026
2026/05/14 10:30:47.431,-0.045,0.041,1.021
2026/05/14 10:30:47.451,-0.055,0.037,1.034
2026/05/14 10:30:47.471,-0.056,0.024,1.023
2026/05/14 10:30:47.491,-0.06,0.029,1.029
2026/05/14 10:30:47.511,-0.059,0.024,1.01
2026/05/14 10:30:47.531,-0.07,0.013,1.043
2026/05/14 10:30:47.551,-0.057,0.022,1.021
2026/05/14 10:30:47.571,0.0,0.096,0.983
2026/05/14 10:30:47.591,-0.062,-0.001,1.057
2026/05/14 10:30:47.611,-0.045,0.038,1.019
2026/05/14 10:30:47.631,-0.053,0.035,1.03
2026/05/14 10:30:47.651,-0.045,0.039,1.025
2026/05/14 10:30:47.671,-0.047,0.037,1.019
2026/05/14 10:30:47.691,-0.049,0.036,1.022
2026/05/14 10:30:47.711,-0.076,-0.008,1.038
2026/05/14 10:30:47.731,-0.062,0.035,1.046
2026/05/14 10:30:47.751,-0.078,0.027,1.031
2026/05/14 10:30:47.771,0.002,0.07,0.929
2026/05/14 10:30:47.791,-0.035,-0.033,1.116
2026/05/14 10:30:47.811,0.011,0.198,0.588
2026/05/14 10:30:47.831,-0.297,0.283,1.123
2026/05/14 10:30:47.851,-0.028,0.058,0.937
2026/05/14 10:30:47.871,-0.068,0.009,1.094
2026/05/14 10:30:47.891,-0.104,0.041,1.274
2026/05/14 10:30:47.911,-0.089,0.028,1.055
2026/05/14 10:30:47.931,-0.075,-0.039,1.054
2026/05/14 10:30:47.951,-0.112,0.013,1.243
2026/05/14 10:30:47.971,-0.007,0.039,0.865
2026/05/14 10:30:47.991,-0.046,0.03,0.715
2026/05/14 10:30:48.011,-0.043,0.047,0.651
2026/05/14 10:30:48.031,-0.114,0.003,1.068
2026/05/14 10:30:48.051,-0.031,-0.026,1.116
2026/05/14 10:30:48.071,-0.042,0.042,0.997
2026/05/14 10:30:48.092,-0.045,0.016,1.058
2026/05/14 10:30:48.112,-0.037,0.008,1.008
2026/05/14 10:30:48.132,-0.037,0.033,1.012
2026/05/14 10:30:48.152,-0.062,0.027,1.034
2026/05/14 10:30:48.172,-0.052,0.031,1.032
2026/05/14 10:30:48.192,-0.057,0.029,1.036
2026/05/14 10:30:48.212,-0.058,0.024,1.025
2026/05/14 10:30:48.232,-0.055,0.027,1.02
2026/05/14 10:30:48.252,-0.06,0.027,1.027
2026/05/14 10:30:48.272,-0.058,0.029,1.029
2026/05/14 10:30:48.292,-0.056,0.027,1.021
2026/05/14 10:30:48.312,-0.058,0.03,1.02
2026/05/14 10:30:48.332,-0.053,0.034,1.024
2026/05/14 10:30:48.352,-0.053,0.034,1.027
2026/05/14 10:30:48.372,-0.054,0.031,1.023
2026/05/14 10:30:48.392,-0.05,0.035,1.021
2026/05/14 10:30:48.412,-0.05,0.034,1.023
2026/05/14 10:30:48.432,-0.054,0.034,1.022
2026/05/14 10:30:48.452,-0.056,0.028,1.022
2026/05/14 10:30:48.472,-0.058,0.028,1.023
2026/05/14 10:30:48.492,-0.057,0.029,1.025
2026/05/14 10:30:48.512,-0.054,0.031,1.077
2026/05/14 10:30:48.532,-0.006,0.06,1.006
2026/05/14 10:30:48.552,-0.126,0.093,0.841
2026/05/14 10:30:48.572,0.011,0.031,1.015
2026/05/14 10:30:48.592,-0.04,0.01,1.053
2026/05/14 10:30:48.612,-0.035,0.018,1.03
2026/05/14 10:30:48.632,-0.048,0.036,1.012
2026/05/14 10:30:48.652,-0.063,0.046,1.036
2026/05/14 10:30:48.672,-0.082,0.039,1.017
2026/05/14 10:30:48.692,-0.075,0.037,1.017
2026/05/14 10:30:48.712,-0.055,0.037,1.014
2026/05/14 10:30:48.732,-0.038,0.029,1.025
2026/05/14 10:30:48.752,-0.032,0.027,1.033
2026/05/14 10:30:48.773,-0.043,0.025,1.033
2026/05/14 10:30:48.793,-0.055,0.03,1.021
2026/05/14 10:30:48.813,-0.064,0.029,0.973
2026/05/14 10:30:48.833,-0.125,0.009,1.051
2026/05/14 10:30:48.853,-0.058,0.034,1.015
2026/05/14 10:30:48.873,-0.06,0.03,1.036
2026/05/14 10:30:48.893,-0.041,0.023,1.019
2026/05/14 10:30:48.913,-0.043,0.019,1.031
2026/05/14 10:30:48.933,-0.047,0.025,1.023
2026/05/14 10:30:48.953,-0.058,0.032,1.02
2026/05/14 10:30:48.973,-0.059,0.037,1.019
2026/05/14 10:30:48.993,-0.056,0.045,1.018
2026/05/14 10:30:49.013,-0.058,0.04,1.025
2026/05/14 10:30:49.033,-0.069,0.05,1.132
2026/05/14 10:30:49.053,-0.045,0.014,1.033
2026/05/14 10:30:49.073,-0.058,-0.005,1.021
2026/05/14 10:30:49.093,-0.058,0.024,1.052
2026/05/14 10:30:49.113,-0.051,0.034,1.039
2026/05/14 10:30:49.133,-0.071,0.027,1.016
2026/05/14 10:30:49.153,-0.063,0.036,1.016
2026/05/14 10:30:49.173,-0.05,0.042,1.043
2026/05/14 10:30:49.193,-0.048,0.038,1.05
2026/05/14 10:30:49.213,-0.05,0.027,1.035
2026/05/14 10:30:49.233,-0.041,0.036,1.019
2026/05/14 10:30:49.253,-0.077,-0.022,1.045
2026/05/14 10:30:49.273,-0.043,0.035,0.901
2026/05/14 10:30:49.293,0.018,0.047,0.898
2026/05/14 10:30:49.313,-0.022,0.074,0.935
2026/05/14 10:30:49.333,-0.035,0.034,1.07
2026/05/14 10:30:49.353,-0.068,0.011,1.03
2026/05/14 10:30:49.373,0.083,0.1,0.825
2026/05/14 10:30:49.393,0.202,-0.116,1.196
2026/05/14 10:30:49.413,0.017,0.018,1.047
2026/05/14 10:30:49.433,-0.139,0.011,1.034
2026/05/14 10:30:49.453,-0.157,0.115,1.217
2026/05/14 10:30:49.473,-0.048,0.053,1.174
2026/05/14 10:30:49.494,0.062,0.095,1.075
2026/05/14 10:30:49.514,0.052,0.035,1.016
2026/05/14 10:30:49.534,-0.013,0.039,0.938
2026/05/14 10:30:49.554,-0.029,0.116,0.822
2026/05/14 10:30:49.574,-0.118,0.083,0.835
2026/05/14 10:30:49.594,-0.048,0.03,0.766
2026/05/14 10:30:49.614,0.021,-0.027,0.81
2026/05/14 10:30:49.634,-0.013,0.055,1.009
2026/05/14 10:30:49.654,-0.046,0.172,1.052
2026/05/14 10:30:49.674,-0.135,0.123,1.095
2026/05/14 10:30:49.694,0.003,-0.019,0.999
2026/05/14 10:30:49.714,0.094,-0.196,1.371
2026/05/14 10:30:49.734,0.031,0.052,0.999
2026/05/14 10:30:49.754,0.065,0.105,0.814
2026/05/14 10:30:49.774,0.011,0.056,0.855
2026/05/14 10:30:49.794,-0.031,0.003,0.928
2026/05/14 10:30:49.814,-0.051,0.003,1.344
2026/05/14 10:30:49.834,-0.091,0.026,1.261
2026/05/14 10:30:49.854,-0.036,0.025,1.102
2026/05/14 10:30:49.874,0.003,0.082,0.909
2026/05/14 10:30:49.894,0.061,0.086,0.739
2026/05/14 10:30:49.914,0.02,0.048,0.509
2026/05/14 10:30:49.934,-0.027,0.041,0.546
2026/05/14 10:30:49.954,0.02,0.119,0.69
2026/05/14 10:30:49.974,0.04,0.092,0.879
2026/05/14 10:30:49.994,-0.028,-0.008,0.632
2026/05/14 10:30:50.014,-0.025,-0.212,0.813
2026/05/14 10:30:50.034,-0.012,0.026,-0.024
2026/05/14 10:30:50.054,0.014,0.148,0.05
2026/05/14 10:30:50.074,0.003,0.108,0.029
2026/05/14 10:30:50.094,0.045,-0.101,1.229
2026/05/14 10:30:50.114,-0.085,0.047,1.439
2026/05/14 10:30:50.134,-0.203,-0.001,1.375
2026/05/14 10:30:50.154,0.023,-0.037,1.001
2026/05/14 10:30:50.175,0.007,0.005,0.77
2026/05/14 10:30:50.195,-0.035,0.137,0.56
2026/05/14 10:30:50.215,0.052,0.133,0.647
2026/05/14 10:30:50.235,0.007,0.125,0.587
2026/05/14 10:30:50.255,0.1,0.029,0.578
2026/05/14 10:30:50.275,0.111,0.019,0.875
2026/05/14 10:30:50.295,-4.663,0.577,8.002
2026/05/14 10:30:50.315,-0.034,0.043,-0.01
2026/05/14 10:30:50.335,0.047,0.191,0.1
2026/05/14 10:30:50.355,-0.344,-0.15,1.253
2026/05/14 10:30:50.375,0.034,0.181,0.329
2026/05/14 10:30:50.395,0.066,-0.071,1.515
2026/05/14 10:30:50.415,-0.332,-0.025,1.514
2026/05/14 10:30:50.435,0.049,-0.086,1.243
2026/05/14 10:30:50.455,0.057,0.041,0.753
2026/05/14 10:30:50.475,0.006,0.126,0.709
2026/05/14 10:30:50.495,-0.084,0.166,0.523
2026/05/14 10:30:50.515,-0.015,0.11,0.493
2026/05/14 10:30:50.535,0.081,0.086,0.54
2026/05/14 10:30:50.555,0.191,0.113,0.619
2026/05/14 10:30:50.575,0.152,0.104,1.108
2026/05/14 10:30:50.595,-0.04,0.553,0.586
2026/05/14 10:30:50.615,-0.017,0.165,0.145
2026/05/14 10:30:50.635,-0.039,0.014,0.019
2026/05/14 10:30:50.655,-0.03,0.116,0.089
2026/05/14 10:30:50.675,0.075,-0.342,1.351
2026/05/14 10:30:50.695,0.006,0.367,1.104
2026/05/14 10:30:50.715,-0.197,-0.157,1.138
2026/05/14 10:30:50.735,0.014,-0.047,1.053
2026/05/14 10:30:50.755,0.058,0.051,0.736
2026/05/14 10:30:50.775,-0.018,0.12,0.575
2026/05/14 10:30:50.795,-0.111,0.107,0.641
2026/05/14 10:30:50.815,-0.017,0.133,0.542
2026/05/14 10:30:50.836,0.123,0.042,0.826
2026/05/14 10:30:50.856,0.143,0.064,0.608
2026/05/14 10:30:50.876,-0.01,0.145,0.093
2026/05/14 10:30:50.896,-0.025,0.016,0.023
2026/05/14 10:30:50.916,-0.013,0.038,0.04
2026/05/14 10:30:50.936,-0.017,0.013,0.006
2026/05/14 10:30:50.956,-0.184,-0.101,0.823
2026/05/14 10:30:50.976,0.263,0.266,0.903
2026/05/14 10:30:50.996,0.187,-0.158,1.058
2026/05/14 10:30:51.016,-0.238,0.019,0.902
2026/05/14 10:30:51.036,-0.005,0.108,0.396
2026/05/14 10:30:51.056,0.195,0.13,0.629
2026/05/14 10:30:51.076,0.05,-0.01,1.003
2026/05/14 10:30:51.096,-0.05,0.163,0.717
2026/05/14 10:30:51.116,0.079,0.123,0.492
2026/05/14 10:30:51.136,0.04,0.127,0.185
2026/05/14 10:30:51.156,-0.03,0.015,0.01
2026/05/14 10:30:51.176,-0.032,0.116,0.09
2026/05/14 10:30:51.196,-0.002,0.067,0.094
2026/05/14 10:30:51.216,-0.075,0.041,0.48
2026/05/14 10:30:51.236,-0.19,-0.054,1.199
2026/05/14 10:30:51.256,0.056,-0.203,1.365
2026/05/14 10:30:51.276,-0.049,-0.03,1.083
2026/05/14 10:30:51.296,-0.231,0.012,1.021
2026/05/14 10:30:51.316,-0.124,0.084,0.898
2026/05/14 10:30:51.336,0.058,0.062,0.953
2026/05/14 10:30:51.356,0.051,0.051,1.019
2026/05/14 10:30:51.376,0.001,0.055,1.044
2026/05/14 10:30:51.396,-0.117,0.035,1.036
2026/05/14 10:30:51.416,0.009,-0.002,0.995
2026/05/14 10:30:51.436,0.002,0.019,0.989
2026/05/14 10:30:51.456,-0.017,0.038,0.977
2026/05/14 10:30:51.476,-0.144,0.041,0.975
2026/05/14 10:30:51.496,-0.04,0.013,1.02
2026/05/14 10:30:51.517,-0.023,-0.015,1.013
2026/05/14 10:30:51.537,-0.146,-0.004,0.968
2026/05/14 10:30:51.557,-0.043,-0.046,1.003
2026/05/14 10:30:51.577,0.003,0.0,0.998
2026/05/14 10:30:51.597,-0.016,0.029,1.01
2026/05/14 10:30:51.617,-0.114,0.052,1.01
2026/05/14 10:30:51.637,-0.009,0.049,1.015
2026/05/14 10:30:51.657,-0.027,0.026,1.014
2026/05/14 10:30:51.677,-0.001,0.04,1.008
2026/05/14 10:30:51.697,-0.065,0.022,1.1
2026/05/14 10:30:51.717,-0.021,0.042,1.021
2026/05/14 10:30:51.737,-0.02,0.009,1.033
2026/05/14 10:30:51.757,-0.033,0.009,1.026
2026/05/14 10:30:51.777,-0.049,-0.003,1.023
2026/05/14 10:30:51.797,-0.062,-0.011,1.02
2026/05/14 10:30:51.817,-0.064,-0.006,1.021
2026/05/14 10:30:51.837,-0.063,0.011,1.022
2026/05/14 10:30:51.857,-0.057,0.015,1.018
2026/05/14 10:30:51.877,-0.049,0.02,1.021
2026/05/14 10:30:51.897,-0.042,0.028,1.02
2026/05/14 10:30:51.917,-0.038,0.026,1.021
2026/05/14 10:30:51.937,-0.033,0.035,1.021
2026/05/14 10:30:51.957,-0.03,0.035,1.023
2026/05/14 10:30:51.977,-0.04,0.03,1.022
2026/05/14 10:30:51.997,-0.05,0.027,1.02
2026/05/14 10:30:52.017,-0.057,0.017,1.023
2026/05/14 10:30:52.037,-0.062,0.006,1.016
2026/05/14 10:30:52.057,-0.061,0.002,1.023
2026/05/14 10:30:52.077,-0.055,-0.001,1.026
2026/05/14 10:30:52.097,-0.055,-0.002,1.023
2026/05/14 10:30:52.117,-0.05,0.006,1.026
2026/05/14 10:30:52.137,-0.055,0.016,1.016
2026/05/14 10:30:52.157,-0.048,0.021,1.018
2026/05/14 10:30:52.177,-0.046,0.026,1.027
2026/05/14 10:30:52.197,-0.034,0.032,1.023
2026/05/14 10:30:52.218,-0.036,0.03,1.023
2026/05/14 10:30:52.238,-0.037,0.026,1.027
2026/05/14 10:30:52.258,-0.047,0.023,1.017
2026/05/14 10:30:52.278,-0.048,0.012,1.025
2026/05/14 10:30:52.298,-0.054,0.013,1.02
2026/05/14 10:30:52.318,-0.058,0.01,1.031
2026/05/14 10:30:52.338,-0.058,0.004,1.028
2026/05/14 10:30:52.358,-0.062,0.005,1.019
2026/05/14 10:30:52.378,-0.058,0.004,1.025
2026/05/14 10:30:52.398,-0.051,0.013,1.024
2026/05/14 10:30:52.418,-0.042,0.021,1.021
2026/05/14 10:30:52.438,-0.042,0.02,1.022
2026/05/14 10:30:52.458,-0.042,0.029,1.022
2026/05/14 10:30:52.478,-0.039,0.025,1.027
2026/05/14 10:30:52.498,-0.041,0.021,1.023
2026/05/14 10:30:52.518,-0.046,0.022,1.025
2026/05/14 10:30:52.538,-0.048,0.022,1.023
2026/05/14 10:30:52.558,-0.053,0.013,1.024
2026/05/14 10:30:52.578,-0.053,0.011,1.024
