Timestamp,ACC X,ACC Y,ACC Z
2026/05/14 10:29:04.643,-0.056,0.001,0.996
2026/05/14 10:29:04.662,-0.062,0.002,0.996
2026/05/14 10:29:04.681,-0.062,0.005,0.999
2026/05/14 10:29:04.701,-0.061,0.005,0.998
2026/05/14 10:29:04.720,-0.062,0.006,0.996
2026/05/14 10:29:04.739,-0.061,0.001,0.998
2026/05/14 10:29:04.758,-0.058,0.001,0.994
2026/05/14 10:29:04.777,-0.061,-0.001,0.998
2026/05/14 10:29:04.797,-0.061,0.002,0.995
2026/05/14 10:29:04.816,-0.061,0.001,0.996
2026/05/14 10:29:04.835,-0.062,0.005,0.999
2026/05/14 10:29:04.854,-0.064,0.003,0.996
2026/05/14 10:29:04.874,-0.064,0.001,0.998
2026/05/14 10:29:04.893,-0.062,-0.002,0.994
2026/05/14 10:29:04.912,-0.06,0.002,0.996
2026/05/14 10:29:04.931,-0.058,0.006,0.996
2026/05/14 10:29:04.951,-0.06,0.005,0.997
2026/05/14 10:29:04.970,-0.062,0.004,0.998
2026/05/14 10:29:04.989,-0.061,0.002,0.998
2026/05/14 10:29:05.008,-0.061,0.006,1.0
2026/05/14 10:29:05.027,-0.062,0.008,0.997
2026/05/14 10:29:05.047,-0.062,0.002,0.999
2026/05/14 10:29:05.066,-0.062,0.006,0.994
2026/05/14 10:29:05.085,-0.064,0.001,0.999
2026/05/14 10:29:05.104,-0.062,-0.001,1.0
2026/05/14 10:29:05.124,-0.061,0.0,0.996
2026/05/14 10:29:05.143,-0.06,0.002,0.998
2026/05/14 10:29:05.162,-0.064,0.0,0.993
2026/05/14 10:29:05.181,-0.062,0.002,0.997
2026/05/14 10:29:05.201,-0.058,0.003,0.999
2026/05/14 10:29:05.220,-0.06,0.002,0.997
2026/05/14 10:29:05.239,-0.061,0.003,0.997
2026/05/14 10:29:05.258,-0.062,0.001,0.996
2026/05/14 10:29:05.277,-0.062,0.002,0.996
2026/05/14 10:29:05.297,-0.061,0.004,0.998
2026/05/14 10:29:05.316,-0.062,-0.001,0.999
2026/05/14 10:29:05.335,-0.062,0.001,0.999
2026/05/14 10:29:05.354,-0.061,0.003,0.997
2026/05/14 10:29:05.374,-0.064,0.0,0.994
2026/05/14 10:29:05.393,-0.061,0.004,0.996
2026/05/14 10:29:05.412,-0.064,0.003,0.998
2026/05/14 10:29:05.431,-0.06,0.001,1.0
2026/05/14 10:29:05.451,-0.064,0.003,0.996
2026/05/14 10:29:05.470,-0.062,0.0,0.994
2026/05/14 10:29:05.489,-0.06,0.001,0.997
2026/05/14 10:29:05.508,-0.064,0.001,0.996
2026/05/14 10:29:05.527,-0.063,0.005,0.997
2026/05/14 10:29:05.547,-0.061,0.0,0.995
2026/05/14 10:29:05.566,-0.064,0.002,0.996
2026/05/14 10:29:05.585,-0.061,0.003,0.994
2026/05/14 10:29:05.604,-0.061,0.003,0.998
2026/05/14 10:29:05.624,-0.06,0.011,1.0
2026/05/14 10:29:05.643,-0.063,0.0,0.998
2026/05/14 10:29:05.662,-0.063,0.0,0.996
2026/05/14 10:29:05.681,-0.063,0.002,0.997
2026/05/14 10:29:05.701,-0.062,0.003,0.998
2026/05/14 10:29:05.720,-0.06,0.001,0.997
2026/05/14 10:29:05.739,-0.061,0.001,0.997
2026/05/14 10:29:05.758,-0.06,0.003,1.0
2026/05/14 10:29:05.777,-0.06,0.002,0.998
2026/05/14 10:29:05.797,-0.06,-0.002,0.999
2026/05/14 10:29:05.816,-0.058,-0.002,0.995
2026/05/14 10:29:05.835,-0.064,0.0,0.994
2026/05/14 10:29:05.854,-0.06,0.002,0.997
2026/05/14 10:29:05.874,-0.063,0.003,0.995
2026/05/14 10:29:05.893,-0.06,0.004,1.0
2026/05/14 10:29:05.912,-0.061,0.001,1.0
2026/05/14 10:29:05.931,-0.058,0.003,0.998
2026/05/14 10:29:05.951,-0.063,0.0,0.996
2026/05/14 10:29:05.970,-0.061,0.002,0.997
2026/05/14 10:29:05.989,-0.062,0.003,0.996
2026/05/14 10:29:06.008,-0.063,0.004,0.998
2026/05/14 10:29:06.027,-0.064,0.002,1.002
2026/05/14 10:29:06.047,-0.062,0.001,0.999
2026/05/14 10:29:06.066,-0.064,0.0,1.0
2026/05/14 10:29:06.085,-0.061,0.009,0.995
2026/05/14 10:29:06.104,-0.062,0.004,0.997
2026/05/14 10:29:06.124,-0.061,0.006,0.999
2026/05/14 10:29:06.143,-0.064,0.003,0.995
2026/05/14 10:29:06.162,-0.058,0.002,1.001
2026/05/14 10:29:06.181,-0.062,0.001,1.0
2026/05/14 10:29:06.201,-0.062,0.003,1.001
2026/05/14 10:29:06.220,-0.062,0.003,0.997
2026/05/14 10:29:06.239,-0.062,0.001,0.998
2026/05/14 10:29:06.258,-0.064,0.003,0.998
2026/05/14 10:29:06.277,-0.062,0.001,0.997
2026/05/14 10:29:06.297,-0.06,0.005,0.994
2026/05/14 10:29:06.316,-0.062,0.0,0.999
2026/05/14 10:29:06.335,-0.066,0.0,0.994
2026/05/14 10:29:06.354,-0.058,0.007,0.995
2026/05/14 10:29:06.374,-0.06,0.0,0.999
2026/05/14 10:29:06.393,-0.059,0.004,0.999
2026/05/14 10:29:06.412,-0.059,0.0,1.001
2026/05/14 10:29:06.431,-0.061,0.006,0.998
2026/05/14 10:29:06.451,-0.061,0.003,0.994
2026/05/14 10:29:06.470,-0.061,0.002,0.994
2026/05/14 10:29:06.489,-0.063,0.002,0.997
2026/05/14 10:29:06.508,-0.063,0.002,0.996
2026/05/14 10:29:06.527,-0.061,0.005,0.998
2026/05/14 10:29:06.547,-0.058,-0.002,0.995
2026/05/14 10:29:06.566,-0.058,0.004,0.999
2026/05/14 10:29:06.585,-0.059,0.003,1.0
2026/05/14 10:29:06.604,-0.064,0.004,1.0
2026/05/14 10:29:06.624,-0.061,0.003,0.998
2026/05/14 10:29:06.643,-0.061,0.002,0.999
2026/05/14 10:29:06.662,-0.057,0.003,0.998
2026/05/14 10:29:06.681,-0.058,-0.001,0.992
2026/05/14 10:29:06.701,-0.064,0.003,1.0
2026/05/14 10:29:06.720,-0.064,0.005,0.996
2026/05/14 10:29:06.739,-0.063,-0.003,0.996
2026/05/14 10:29:06.758,-0.062,0.003,0.997
2026/05/14 10:29:06.777,-0.06,0.0,0.999
2026/05/14 10:29:06.797,-0.058,0.002,0.998
2026/05/14 10:29:06.816,-0.061,0.006,0.999
2026/05/14 10:29:06.835,-0.06,0.002,0.998
2026/05/14 10:29:06.854,-0.06,0.003,0.995
2026/05/14 10:29:06.874,-0.061,0.003,0.997
2026/05/14 10:29:06.893,-0.066,0.003,0.996
2026/05/14 10:29:06.912,-0.059,0.003,0.999
2026/05/14 10:29:06.931,-0.064,0.002,0.999
2026/05/14 10:29:06.951,-0.064,-0.002,0.997
2026/05/14 10:29:06.970,-0.058,0.002,0.996
2026/05/14 10:29:06.989,-0.059,0.002,0.998
2026/05/14 10:29:07.008,-0.061,0.003,0.999
2026/05/14 10:29:07.027,-0.061,0.001,1.003
2026/05/14 10:29:07.047,-0.06,-0.002,0.999
2026/05/14 10:29:07.066,-0.06,0.002,0.997
2026/05/14 10:29:07.085,-0.062,0.003,1.001
2026/05/14 10:29:07.104,-0.061,0.001,1.001
2026/05/14 10:29:07.124,-0.063,0.002,0.999
2026/05/14 10:29:07.143,-0.064,0.0,0.997
2026/05/14 10:29:07.162,-0.061,0.0,0.993
2026/05/14 10:29:07.181,-0.064,0.004,1.004
2026/05/14 10:29:07.200,-0.063,0.006,0.998
2026/05/14 10:29:07.219,-0.102,0.073,1.048
2026/05/14 10:29:07.238,-0.088,-0.018,0.924
2026/05/14 10:29:07.257,-0.05,0.024,0.821
2026/05/14 10:29:07.276,-0.055,0.01,1.039
2026/05/14 10:29:07.295,-0.065,-0.009,1.02
2026/05/14 10:29:07.314,-0.057,0.0,0.972
2026/05/14 10:29:07.334,-0.053,0.001,1.005
2026/05/14 10:29:07.353,-0.053,0.008,0.953
2026/05/14 10:29:07.372,-0.059,0.009,1.01
2026/05/14 10:29:07.391,-0.066,0.007,1.002
2026/05/14 10:29:07.410,-0.067,0.003,1.011
2026/05/14 10:29:07.429,-0.068,0.007,1.017
2026/05/14 10:29:07.448,-0.062,0.0,0.995
2026/05/14 10:29:07.467,-0.058,0.0,1.01
2026/05/14 10:29:07.486,-0.064,-0.001,1.019
2026/05/14 10:29:07.505,-0.062,0.0,1.014
2026/05/14 10:29:07.524,-0.061,-0.007,0.991
2026/05/14 10:29:07.543,-0.066,0.003,1.005
2026/05/14 10:29:07.563,-0.064,0.004,0.988
2026/05/14 10:29:07.582,-0.064,0.008,0.998
2026/05/14 10:29:07.601,-0.056,0.008,0.996
2026/05/14 10:29:07.620,-0.059,0.006,0.99
2026/05/14 10:29:07.639,-0.057,0.006,0.988
2026/05/14 10:29:07.658,-0.057,0.001,0.989
2026/05/14 10:29:07.677,-0.059,0.0,0.993
2026/05/14 10:29:07.696,-0.054,0.0,0.995
2026/05/14 10:29:07.715,-0.062,0.005,1.002
2026/05/14 10:29:07.734,-0.062,0.006,0.998
2026/05/14 10:29:07.753,-0.062,0.003,1.0
2026/05/14 10:29:07.772,-0.069,0.001,1.0
2026/05/14 10:29:07.791,-0.064,0.001,1.001
2026/05/14 10:29:07.811,-0.07,-0.002,1.003
2026/05/14 10:29:07.830,-0.064,-0.001,1.002
2026/05/14 10:29:07.849,-0.058,-0.002,1.0
2026/05/14 10:29:07.868,-0.053,0.002,1.0
2026/05/14 10:29:07.887,-0.057,0.003,0.998
2026/05/14 10:29:07.906,-0.06,0.002,1.0
2026/05/14 10:29:07.925,-0.063,0.006,0.995
2026/05/14 10:29:07.944,-0.062,0.008,0.995
2026/05/14 10:29:07.963,-0.061,0.009,0.993
2026/05/14 10:29:07.982,-0.058,0.009,0.993
2026/05/14 10:29:08.001,-0.059,0.001,0.992
2026/05/14 10:29:08.020,-0.056,-0.002,0.997
2026/05/14 10:29:08.040,-0.056,-0.001,0.999
2026/05/14 10:29:08.059,-0.061,0.0,0.995
2026/05/14 10:29:08.078,-0.061,0.004,0.998
2026/05/14 10:29:08.097,-0.061,0.004,1.0
2026/05/14 10:29:08.116,-0.065,0.0,1.0
2026/05/14 10:29:08.135,-0.066,0.002,0.997
2026/05/14 10:29:08.154,-0.062,0.002,0.998
2026/05/14 10:29:08.173,-0.064,0.0,1.001
2026/05/14 10:29:08.192,-0.062,0.003,0.996
2026/05/14 10:29:08.211,-0.06,-0.001,0.995
2026/05/14 10:29:08.230,-0.06,0.002,0.997
2026/05/14 10:29:08.249,-0.059,0.006,0.998
2026/05/14 10:29:08.269,-0.059,0.005,0.998
2026/05/14 10:29:08.288,-0.059,0.003,0.997
2026/05/14 10:29:08.307,-0.06,0.006,0.996
2026/05/14 10:29:08.326,-0.062,0.005,1.002
2026/05/14 10:29:08.345,-0.059,0.004,0.998
2026/05/14 10:29:08.364,-0.059,0.003,0.996
2026/05/14 10:29:08.383,-0.061,-0.002,0.998
2026/05/14 10:29:08.402,-0.061,0.004,0.998
2026/05/14 10:29:08.421,-0.064,-0.001,0.997
2026/05/14 10:29:08.440,-0.064,0.0,0.997
2026/05/14 10:29:08.459,-0.066,-0.002,0.998
2026/05/14 10:29:08.478,-0.063,0.003,0.999
2026/05/14 10:29:08.497,-0.063,0.003,1.0
2026/05/14 10:29:08.517,-0.062,0.005,0.995
2026/05/14 10:29:08.536,-0.062,0.002,1.0
2026/05/14 10:29:08.555,-0.058,0.002,0.994
2026/05/14 10:29:08.574,-0.06,0.004,0.997
2026/05/14 10:29:08.593,-0.06,0.006,0.997
2026/05/14 10:29:08.612,-0.061,-0.001,1.001
2026/05/14 10:29:08.631,-0.063,0.002,0.999
2026/05/14 10:29:08.650,-0.061,0.003,1.002
2026/05/14 10:29:08.669,-0.064,0.007,1.0
2026/05/14 10:29:08.688,-0.06,0.001,0.997
2026/05/14 10:29:08.707,-0.058,0.0,0.998
2026/05/14 10:29:08.726,-0.065,0.0,0.993
2026/05/14 10:29:08.746,-0.061,0.003,0.999
2026/05/14 10:29:08.765,-0.062,-0.003,1.001
2026/05/14 10:29:08.784,-0.063,0.003,0.997
2026/05/14 10:29:08.803,-0.061,0.002,0.997
2026/05/14 10:29:08.822,-0.063,0.005,0.998
2026/05/14 10:29:08.841,-0.058,0.004,0.999
2026/05/14 10:29:08.860,-0.059,0.004,0.998
2026/05/14 10:29:08.879,-0.062,0.004,0.997
2026/05/14 10:29:08.898,-0.059,0.005,0.999
2026/05/14 10:29:08.917,-0.062,0.001,1.0
2026/05/14 10:29:08.936,-0.062,0.002,0.996
2026/05/14 10:29:08.955,-0.064,0.002,0.997
2026/05/14 10:29:08.974,-0.064,0.0,1.0
2026/05/14 10:29:08.994,-0.062,0.002,0.997
2026/05/14 10:29:09.013,-0.062,0.0,0.997
2026/05/14 10:29:09.032,-0.062,-0.001,0.995
2026/05/14 10:29:09.051,-0.064,0.0,0.998
2026/05/14 10:29:09.070,-0.059,0.004,0.994
2026/05/14 10:29:09.089,-0.057,0.003,1.0
2026/05/14 10:29:09.108,-0.063,0.0,0.994
2026/05/14 10:29:09.127,-0.059,0.005,0.999
2026/05/14 10:29:09.146,-0.061,0.004,0.998
2026/05/14 10:29:09.165,-0.062,0.003,1.0
2026/05/14 10:29:09.184,-0.058,0.002,0.996
2026/05/14 10:29:09.203,-0.061,0.005,1.0
2026/05/14 10:29:09.223,-0.065,0.001,0.993
2026/05/14 10:29:09.242,-0.063,0.005,0.997
2026/05/14 10:29:09.261,-0.062,0.001,0.999
2026/05/14 10:29:09.280,-0.064,0.004,0.998
2026/05/14 10:29:09.299,-0.06,0.002,0.996
2026/05/14 10:29:09.318,-0.059,0.006,0.996
2026/05/14 10:29:09.337,-0.063,0.001,1.0
2026/05/14 10:29:09.356,-0.065,-0.003,0.995
2026/05/14 10:29:09.375,-0.061,0.002,0.998
2026/05/14 10:29:09.394,-0.062,0.001,0.996
2026/05/14 10:29:09.413,-0.058,0.003,0.999
2026/05/14 10:29:09.432,-0.059,0.002,0.996
2026/05/14 10:29:09.452,-0.059,0.003,0.997
2026/05/14 10:29:09.471,-0.061,-0.001,1.001
2026/05/14 10:29:09.490,-0.06,0.005,0.999
2026/05/14 10:29:09.509,-0.06,0.001,0.998
2026/05/14 10:29:09.528,-0.062,0.001,0.999
2026/05/14 10:29:09.547,-0.057,0.004,0.998
2026/05/14 10:29:09.566,-0.061,0.004,1.0
2026/05/14 10:29:09.585,-0.061,0.002,0.997
2026/05/14 10:29:09.604,-0.063,0.0,0.994
2026/05/14 10:29:09.623,-0.064,0.003,0.998
2026/05/14 10:29:09.642,-0.063,0.001,0.993
2026/05/14 10:29:09.661,-0.063,0.0,0.998
2026/05/14 10:29:09.680,-0.06,0.005,0.999
2026/05/14 10:29:09.700,-0.06,0.004,1.001
2026/05/14 10:29:09.719,-0.064,0.003,0.998
2026/05/14 10:29:09.738,-0.061,0.002,0.997
2026/05/14 10:29:09.757,-0.065,0.001,0.996
2026/05/14 10:29:09.776,-0.059,0.006,1.0
2026/05/14 10:29:09.795,-0.061,0.004,0.998
2026/05/14 10:29:09.814,-0.061,0.004,0.999
2026/05/14 10:29:09.833,-0.064,0.005,0.999
2026/05/14 10:29:09.852,-0.061,0.007,0.996
2026/05/14 10:29:09.871,-0.06,0.002,0.998
2026/05/14 10:29:09.890,-0.059,0.004,0.999
2026/05/14 10:29:09.909,-0.061,0.001,0.998
2026/05/14 10:29:09.929,-0.062,0.004,0.998
2026/05/14 10:29:09.948,-0.062,0.004,0.996
2026/05/14 10:29:09.967,-0.058,0.003,0.998
2026/05/14 10:29:09.986,-0.06,0.006,1.0
2026/05/14 10:29:10.005,-0.061,0.001,0.998
2026/05/14 10:29:10.024,-0.061,0.003,0.998
2026/05/14 10:29:10.043,-0.059,0.002,1.0
2026/05/14 10:29:10.062,-0.062,0.002,0.999
2026/05/14 10:29:10.081,-0.059,0.003,0.996
2026/05/14 10:29:10.100,-0.063,0.009,1.003
2026/05/14 10:29:10.119,-0.06,0.007,0.998
2026/05/14 10:29:10.138,-0.057,0.004,0.997
2026/05/14 10:29:10.158,-0.062,0.003,0.997
2026/05/14 10:29:10.177,-0.06,0.005,0.999
2026/05/14 10:29:10.196,-0.063,0.003,0.995
2026/05/14 10:29:10.215,-0.062,0.002,0.994
2026/05/14 10:29:10.234,-0.063,-0.001,1.0
2026/05/14 10:29:10.253,-0.063,0.002,1.001
2026/05/14 10:29:10.272,-0.058,0.005,0.993
2026/05/14 10:29:10.291,-0.06,0.001,0.996
2026/05/14 10:29:10.310,-0.065,0.002,0.998
2026/05/14 10:29:10.329,-0.064,0.005,0.997
2026/05/14 10:29:10.348,-0.064,0.002,0.995
2026/05/14 10:29:10.367,-0.061,0.001,0.996
2026/05/14 10:29:10.386,-0.061,0.001,0.997
2026/05/14 10:29:10.406,-0.061,0.003,1.0
2026/05/14 10:29:10.425,-0.06,0.006,0.991
2026/05/14 10:29:10.444,-0.06,0.004,0.999
2026/05/14 10:29:10.463,-0.066,0.002,0.998
2026/05/14 10:29:10.482,-0.061,0.001,0.996
2026/05/14 10:29:10.501,-0.063,0.001,0.997
2026/05/14 10:29:10.520,-0.059,0.003,0.999
2026/05/14 10:29:10.539,-0.06,0.004,1.002
2026/05/14 10:29:10.558,-0.063,0.006,0.992
2026/05/14 10:29:10.577,-0.061,-0.001,0.999
2026/05/14 10:29:10.596,-0.062,0.004,1.0
2026/05/14 10:29:10.615,-0.061,0.003,0.995
2026/05/14 10:29:10.635,-0.06,0.005,1.003
2026/05/14 10:29:10.654,-0.061,-0.002,0.998
2026/05/14 10:29:10.673,-0.062,0.003,1.0
2026/05/14 10:29:10.692,-0.063,0.002,0.998
2026/05/14 10:29:10.711,-0.064,0.002,1.003
2026/05/14 10:29:10.730,-0.061,0.003,0.997
2026/05/14 10:29:10.749,-0.062,-0.002,0.998
2026/05/14 10:29:10.768,-0.062,0.0,1.0
2026/05/14 10:29:10.787,-0.061,0.001,0.996
2026/05/14 10:29:10.806,-0.063,0.001,0.999
2026/05/14 10:29:10.825,-0.06,0.005,0.995
2026/05/14 10:29:10.844,-0.061,0.003,0.995
2026/05/14 10:29:10.864,-0.064,0.002,0.994
2026/05/14 10:29:10.883,-0.065,0.003,0.996
2026/05/14 10:29:10.902,-0.061,0.004,0.996
2026/05/14 10:29:10.921,-0.062,0.005,0.998
2026/05/14 10:29:10.940,-0.061,0.003,0.993
2026/05/14 10:29:10.959,-0.062,0.0,0.998
2026/05/14 10:29:10.978,-0.065,0.0,0.995
2026/05/14 10:29:10.997,-0.062,0.003,1.0
2026/05/14 10:29:11.016,-0.059,-0.001,0.996
2026/05/14 10:29:11.035,-0.061,0.004,1.0
2026/05/14 10:29:11.054,-0.062,0.001,0.998
2026/05/14 10:29:11.073,-0.059,0.005,1.001
2026/05/14 10:29:11.092,-0.059,0.002,0.998
2026/05/14 10:29:11.112,-0.065,0.001,0.999
2026/05/14 10:29:11.131,-0.062,0.004,0.998
2026/05/14 10:29:11.150,-0.064,0.0,0.999
2026/05/14 10:29:11.169,-0.062,0.001,0.997
2026/05/14 10:29:11.188,-0.061,0.004,0.996
2026/05/14 10:29:11.207,-0.062,0.001,0.998
2026/05/14 10:29:11.226,-0.061,0.003,1.001
2026/05/14 10:29:11.245,-0.062,0.002,0.998
2026/05/14 10:29:11.264,-0.059,0.006,0.998
2026/05/14 10:29:11.283,-0.062,0.001,0.996
2026/05/14 10:29:11.302,-0.06,0.006,0.998
2026/05/14 10:29:11.321,-0.062,0.003,0.995
2026/05/14 10:29:11.341,-0.057,0.002,0.997
2026/05/14 10:29:11.360,-0.062,0.001,0.996
2026/05/14 10:29:11.379,-0.062,0.0,0.995
2026/05/14 10:29:11.398,-0.061,0.006,0.998
2026/05/14 10:29:11.417,-0.06,0.001,0.998
2026/05/14 10:29:11.436,-0.061,0.0,0.998
2026/05/14 10:29:11.455,-0.062,0.004,0.997
2026/05/14 10:29:11.474,-0.057,0.0,0.997
2026/05/14 10:29:11.493,-0.06,0.001,0.995
2026/05/14 10:29:11.512,-0.06,0.004,1.001
2026/05/14 10:29:11.531,-0.062,0.0,0.999
2026/05/14 10:29:11.550,-0.064,0.002,1.0
2026/05/14 10:29:11.569,-0.06,0.004,0.996
2026/05/14 10:29:11.589,-0.061,0.0,0.999
2026/05/14 10:29:11.608,-0.06,0.001,0.993
2026/05/14 10:29:11.627,-0.059,0.003,0.997
2026/05/14 10:29:11.646,-0.061,0.003,0.996
2026/05/14 10:29:11.665,-0.061,0.002,0.999
2026/05/14 10:29:11.684,-0.06,0.002,0.997
2026/05/14 10:29:11.703,-0.064,0.002,1.0
2026/05/14 10:29:11.722,-0.061,0.0,0.995
2026/05/14 10:29:11.741,-0.061,0.007,0.999
2026/05/14 10:29:11.760,-0.062,0.002,0.997
2026/05/14 10:29:11.779,-0.065,0.003,0.996
2026/05/14 10:29:11.798,-0.063,0.004,1.0
2026/05/14 10:29:11.818,-0.062,0.002,0.993
2026/05/14 10:29:11.837,-0.061,0.004,0.999
2026/05/14 10:29:11.856,-0.063,0.0,0.998
2026/05/14 10:29:11.875,-0.061,0.003,0.999
2026/05/14 10:29:11.894,-0.061,0.0,0.995
2026/05/14 10:29:11.913,-0.062,0.002,0.996
2026/05/14 10:29:11.932,-0.064,0.002,0.995
2026/05/14 10:29:11.951,-0.065,0.0,0.994
2026/05/14 10:29:11.970,-0.061,0.004,0.999
2026/05/14 10:29:11.989,-0.06,0.004,0.993
2026/05/14 10:29:12.008,-0.06,0.0,1.0
2026/05/14 10:29:12.027,-0.064,0.002,1.0
2026/05/14 10:29:12.047,-0.06,0.0,0.998
2026/05/14 10:29:12.066,-0.061,0.001,0.996
2026/05/14 10:29:12.085,-0.062,0.0,0.996
2026/05/14 10:29:12.104,-0.06,0.008,0.994
2026/05/14 10:29:12.123,-0.066,0.002,0.998
2026/05/14 10:29:12.142,-0.059,0.006,1.0
2026/05/14 10:29:12.161,-0.06,0.0,0.996
2026/05/14 10:29:12.180,-0.063,-0.001,0.999
2026/05/14 10:29:12.199,-0.062,0.001,0.999
2026/05/14 10:29:12.218,-0.06,0.002,0.998
2026/05/14 10:29:12.237,-0.058,0.002,0.998
2026/05/14 10:29:12.256,-0.064,0.0,0.998
2026/05/14 10:29:12.275,-0.061,0.002,0.996
2026/05/14 10:29:12.295,-0.063,0.004,0.999
2026/05/14 10:29:12.314,-0.063,0.002,0.997
2026/05/14 10:29:12.333,-0.061,-0.001,0.998
2026/05/14 10:29:12.352,-0.062,0.001,0.999
2026/05/14 10:29:12.371,-0.06,0.002,1.0
2026/05/14 10:29:12.390,-0.056,0.002,1.001
2026/05/14 10:29:12.409,-0.061,0.001,0.991
2026/05/14 10:29:12.428,-0.059,0.004,0.996
2026/05/14 10:29:12.447,-0.056,0.001,0.998
2026/05/14 10:29:12.466,-0.06,0.005,0.997
2026/05/14 10:29:12.485,-0.065,0.002,0.996
2026/05/14 10:29:12.504,-0.063,0.003,0.997
2026/05/14 10:29:12.524,-0.064,0.0,0.997
2026/05/14 10:29:12.543,-0.061,0.004,0.997
2026/05/14 10:29:12.562,-0.062,0.005,0.999
2026/05/14 10:29:12.581,-0.059,0.003,0.996
2026/05/14 10:29:12.600,-0.059,0.004,1.0
2026/05/14 10:29:12.619,-0.069,-0.005,1.011
2026/05/14 10:29:12.638,-0.062,0.011,1.011
2026/05/14 10:29:12.657,-0.07,0.006,1.011
2026/05/14 10:29:12.676,-0.046,-0.013,1.006
2026/05/14 10:29:12.695,-0.068,-0.004,1.0
2026/05/14 10:29:12.714,-0.062,0.0,1.009
2026/05/14 10:29:12.733,-0.056,0.002,0.989
2026/05/14 10:29:12.752,-0.059,0.002,0.996
2026/05/14 10:29:12.772,-0.062,0.004,0.997
2026/05/14 10:29:12.791,-0.062,0.003,0.988
2026/05/14 10:29:12.810,-0.065,0.001,1.021
2026/05/14 10:29:12.829,-0.064,-0.003,0.987
2026/05/14 10:29:12.848,-0.052,0.006,0.989
2026/05/14 10:29:12.867,-0.056,0.004,1.001
2026/05/14 10:29:12.886,-0.059,-0.004,0.999
2026/05/14 10:29:12.905,-0.06,0.0,0.994
2026/05/14 10:29:12.924,-0.064,0.003,1.0
2026/05/14 10:29:12.943,-0.065,0.004,1.003
2026/05/14 10:29:12.962,-0.063,0.007,0.995
2026/05/14 10:29:12.981,-0.061,0.004,1.002
2026/05/14 10:29:13.001,-0.062,0.005,0.987
2026/05/14 10:29:13.020,-0.06,0.001,0.991
2026/05/14 10:29:13.039,-0.058,-0.002,1.005
2026/05/14 10:29:13.058,-0.06,-0.002,0.999
2026/05/14 10:29:13.077,-0.064,-0.003,0.995
2026/05/14 10:29:13.096,-0.055,0.004,0.994
2026/05/14 10:29:13.115,-0.061,0.007,0.999
2026/05/14 10:29:13.134,-0.062,0.007,1.003
2026/05/14 10:29:13.153,-0.064,0.003,0.995
2026/05/14 10:29:13.172,-0.064,0.002,0.993
2026/05/14 10:29:13.191,-0.06,-0.001,0.995
2026/05/14 10:29:13.210,-0.061,0.006,0.998
2026/05/14 10:29:13.229,-0.059,0.0,1.0
2026/05/14 10:29:13.249,-0.057,-0.002,0.995
2026/05/14 10:29:13.268,-0.058,0.003,0.995
2026/05/14 10:29:13.287,-0.065,0.005,0.997
2026/05/14 10:29:13.306,-0.064,0.002,0.999
2026/05/14 10:29:13.325,-0.065,0.006,0.999
2026/05/14 10:29:13.344,-0.058,0.007,0.995
2026/05/14 10:29:13.363,-0.059,0.002,0.999
2026/05/14 10:29:13.382,-0.059,0.003,0.998
2026/05/14 10:29:13.401,-0.059,0.004,0.999
2026/05/14 10:29:13.420,-0.062,0.001,0.995
2026/05/14 10:29:13.439,-0.057,0.0,1.0
2026/05/14 10:29:13.458,-0.059,0.006,1.0
2026/05/14 10:29:13.478,-0.062,0.002,0.996
2026/05/14 10:29:13.497,-0.061,0.001,0.996
2026/05/14 10:29:13.516,-0.064,0.002,0.999
2026/05/14 10:29:13.535,-0.061,0.002,0.996
2026/05/14 10:29:13.554,-0.059,0.003,1.0
2026/05/14 10:29:13.573,-0.059,0.003,0.999
2026/05/14 10:29:13.592,-0.058,0.001,0.999
2026/05/14 10:29:13.611,-0.059,0.002,0.996
2026/05/14 10:29:13.630,-0.064,0.001,0.995
2026/05/14 10:29:13.649,-0.06,0.002,0.998
2026/05/14 10:29:13.668,-0.063,0.002,0.995
2026/05/14 10:29:13.687,-0.063,0.005,0.996
2026/05/14 10:29:13.706,-0.061,0.004,0.998
2026/05/14 10:29:13.726,-0.058,0.005,0.995
2026/05/14 10:29:13.745,-0.062,0.004,0.997
2026/05/14 10:29:13.764,-0.063,-0.001,1.002
2026/05/14 10:29:13.783,-0.065,0.001,0.993
2026/05/14 10:29:13.802,-0.063,0.003,0.997
2026/05/14 10:29:13.821,-0.063,0.002,0.997
2026/05/14 10:29:13.840,-0.064,0.006,0.998
2026/05/14 10:29:13.859,-0.062,0.003,0.996
2026/05/14 10:29:13.878,-0.059,-0.001,0.995
2026/05/14 10:29:13.897,-0.064,0.002,0.996
2026/05/14 10:29:13.916,-0.058,0.0,0.996
2026/05/14 10:29:13.935,-0.061,0.004,1.0
2026/05/14 10:29:13.955,-0.06,0.003,0.998
2026/05/14 10:29:13.974,-0.06,0.003,0.994
2026/05/14 10:29:13.993,-0.059,0.001,0.997
2026/05/14 10:29:14.012,-0.061,0.0,0.997
2026/05/14 10:29:14.031,-0.06,0.004,0.996
2026/05/14 10:29:14.050,-0.063,0.002,0.995
2026/05/14 10:29:14.069,-0.063,0.002,0.995
2026/05/14 10:29:14.088,-0.058,0.005,0.996
2026/05/14 10:29:14.107,-0.06,0.004,0.996
2026/05/14 10:29:14.126,-0.06,0.002,0.995
2026/05/14 10:29:14.145,-0.061,0.0,0.998
2026/05/14 10:29:14.164,-0.063,0.0,0.999
2026/05/14 10:29:14.183,-0.059,0.003,0.995
2026/05/14 10:29:14.203,-0.061,0.002,0.998
2026/05/14 10:29:14.222,-0.062,-0.001,0.998
2026/05/14 10:29:14.241,-0.059,0.001,0.996
2026/05/14 10:29:14.260,-0.06,0.002,0.998
2026/05/14 10:29:14.279,-0.058,0.003,0.994
2026/05/14 10:29:14.298,-0.058,0.001,0.995
2026/05/14 10:29:14.317,-0.057,-0.002,1.002
2026/05/14 10:29:14.336,-0.061,-0.001,0.997
2026/05/14 10:29:14.355,-0.06,0.0,0.996
2026/05/14 10:29:14.374,-0.062,0.004,0.999
2026/05/14 10:29:14.393,-0.059,0.003,0.993
2026/05/14 10:29:14.412,-0.057,0.002,0.998
2026/05/14 10:29:14.432,-0.062,0.0,0.994
2026/05/14 10:29:14.451,-0.062,0.004,0.998
2026/05/14 10:29:14.470,-0.059,0.0,0.993
2026/05/14 10:29:14.489,-0.06,0.003,0.994
2026/05/14 10:29:14.508,-0.062,0.005,0.993
2026/05/14 10:29:14.527,-0.062,-0.002,1.0
2026/05/14 10:29:14.546,-0.061,0.002,0.997
2026/05/14 10:29:14.565,-0.06,0.002,0.997
2026/05/14 10:29:14.584,-0.061,0.001,0.994
2026/05/14 10:29:14.603,-0.063,0.002,0.996
2026/05/14 10:29:14.622,-0.061,0.003,1.0
2026/05/14 10:29:14.641,-0.064,0.001,0.998
2026/05/14 10:29:14.660,-0.061,0.002,0.996
2026/05/14 10:29:14.680,-0.063,0.002,0.998
2026/05/14 10:29:14.699,-0.061,0.001,0.998
2026/05/14 10:29:14.718,-0.076,-0.036,1.049
2026/05/14 10:29:14.737,-0.051,0.032,1.063
2026/05/14 10:29:14.756,-0.06,0.005,0.971
2026/05/14 10:29:14.775,-0.056,-0.006,0.98
2026/05/14 10:29:14.794,-0.047,-0.01,0.974
2026/05/14 10:29:14.813,-0.054,0.002,0.988
2026/05/14 10:29:14.832,-0.06,0.005,0.998
2026/05/14 10:29:14.851,-0.065,0.002,0.981
2026/05/14 10:29:14.870,-0.067,0.007,1.005
2026/05/14 10:29:14.889,-0.064,0.002,0.99
2026/05/14 10:29:14.909,-0.064,0.006,0.998
2026/05/14 10:29:14.928,-0.062,0.002,0.997
2026/05/14 10:29:14.947,-0.058,-0.003,0.995
2026/05/14 10:29:14.966,-0.055,-0.005,0.992
2026/05/14 10:29:14.985,-0.058,-0.004,0.997
2026/05/14 10:29:15.004,-0.057,-0.003,0.999
2026/05/14 10:29:15.023,-0.063,0.003,1.004
2026/05/14 10:29:15.042,-0.063,0.007,1.005
2026/05/14 10:29:15.061,-0.066,0.01,0.998
2026/05/14 10:29:15.080,-0.06,0.003,0.998
2026/05/14 10:29:15.099,-0.059,0.003,0.996
2026/05/14 10:29:15.118,-0.059,0.0,0.998
2026/05/14 10:29:15.138,-0.058,-0.002,0.995
2026/05/14 10:29:15.157,-0.057,0.002,0.992
2026/05/14 10:29:15.176,-0.059,0.002,0.991
2026/05/14 10:29:15.195,-0.061,0.002,0.996
2026/05/14 10:29:15.214,-0.06,0.006,0.995
2026/05/14 10:29:15.233,-0.064,0.003,0.995
2026/05/14 10:29:15.252,-0.066,0.002,0.997
2026/05/14 10:29:15.271,-0.066,0.003,0.995
2026/05/14 10:29:15.290,-0.058,-0.002,0.998
2026/05/14 10:29:15.309,-0.057,0.0,0.996
2026/05/14 10:29:15.328,-0.059,-0.003,0.994
2026/05/14 10:29:15.347,-0.058,0.004,0.996
2026/05/14 10:29:15.366,-0.063,0.001,1.0
2026/05/14 10:29:15.386,-0.059,0.005,0.997
2026/05/14 10:29:15.405,-0.066,0.004,0.997
2026/05/14 10:29:15.424,-0.065,0.005,0.997
2026/05/14 10:29:15.443,-0.063,0.007,0.998
2026/05/14 10:29:15.462,-0.059,0.002,0.999
2026/05/14 10:29:15.481,-0.057,0.004,0.995
2026/05/14 10:29:15.500,-0.06,-0.001,0.996
2026/05/14 10:29:15.519,-0.062,0.001,0.996
2026/05/14 10:29:15.538,-0.061,0.001,0.997
2026/05/14 10:29:15.557,-0.063,0.002,0.991
2026/05/14 10:29:15.576,-0.061,0.004,0.995
2026/05/14 10:29:15.595,-0.064,0.006,0.995
2026/05/14 10:29:15.615,-0.059,0.004,1.001
2026/05/14 10:29:15.634,-0.06,0.0,0.999
2026/05/14 10:29:15.653,-0.059,0.002,0.996
2026/05/14 10:29:15.672,-0.059,0.0,1.001
2026/05/14 10:29:15.691,-0.058,0.001,0.998
2026/05/14 10:29:15.710,-0.059,0.005,0.998
2026/05/14 10:29:15.729,-0.061,0.002,0.993
2026/05/14 10:29:15.748,-0.062,0.005,1.003
2026/05/14 10:29:15.767,-0.064,-0.001,0.997
2026/05/14 10:29:15.786,-0.057,0.004,0.999
2026/05/14 10:29:15.805,-0.064,0.003,0.994
2026/05/14 10:29:15.824,-0.06,0.003,0.997
2026/05/14 10:29:15.843,-0.061,0.0,1.0
2026/05/14 10:29:15.863,-0.058,0.003,0.992
2026/05/14 10:29:15.882,-0.06,0.003,0.992
2026/05/14 10:29:15.901,-0.063,0.002,0.994
2026/05/14 10:29:15.920,-0.064,0.003,0.996
2026/05/14 10:29:15.939,-0.063,0.003,0.997
2026/05/14 10:29:15.958,-0.065,0.002,0.997
2026/05/14 10:29:15.977,-0.061,0.002,0.999
2026/05/14 10:29:15.996,-0.062,0.002,0.997
2026/05/14 10:29:16.015,-0.062,0.001,1.0
2026/05/14 10:29:16.034,-0.061,0.002,0.997
2026/05/14 10:29:16.053,-0.059,0.003,0.997
2026/05/14 10:29:16.072,-0.063,0.007,1.001
2026/05/14 10:29:16.092,-0.063,0.005,1.004
2026/05/14 10:29:16.111,-0.06,0.003,0.994
2026/05/14 10:29:16.130,-0.061,0.005,1.001
2026/05/14 10:29:16.149,-0.064,0.001,1.009
2026/05/14 10:29:16.168,-0.063,0.003,0.991
2026/05/14 10:29:16.187,-0.064,0.002,1.0
2026/05/14 10:29:16.206,-0.06,-0.003,1.001
2026/05/14 10:29:16.225,-0.062,-0.002,1.002
2026/05/14 10:29:16.244,-0.06,0.005,0.997
2026/05/14 10:29:16.263,-0.058,0.005,0.998
2026/05/14 10:29:16.282,-0.06,0.007,0.998
2026/05/14 10:29:16.301,-0.059,0.005,1.001
2026/05/14 10:29:16.321,-0.061,0.0,0.999
2026/05/14 10:29:16.340,-0.059,0.0,0.998
2026/05/14 10:29:16.359,-0.062,0.003,0.996
2026/05/14 10:29:16.378,-0.063,0.002,1.0
2026/05/14 10:29:16.397,-0.061,0.002,1.0
2026/05/14 10:29:16.416,-0.06,0.001,0.989
2026/05/14 10:29:16.435,-0.064,0.006,1.001
2026/05/14 10:29:16.454,-0.064,0.002,1.002
2026/05/14 10:29:16.473,-0.062,0.002,0.997
2026/05/14 10:29:16.492,-0.062,-0.001,0.996
2026/05/14 10:29:16.511,-0.061,0.002,0.995
2026/05/14 10:29:16.530,-0.067,0.003,1.001
2026/05/14 10:29:16.549,-0.062,0.004,0.995
2026/05/14 10:29:16.569,-0.064,0.0,1.0
2026/05/14 10:29:16.588,-0.062,0.003,0.997
2026/05/14 10:29:16.607,-0.06,0.001,0.998
2026/05/14 10:29:16.626,-0.061,0.001,0.997
2026/05/14 10:29:16.645,-0.063,0.002,0.992
2026/05/14 10:29:16.664,-0.063,0.001,1.002
2026/05/14 10:29:16.683,-0.065,-0.002,0.999
2026/05/14 10:29:16.702,-0.062,0.0,0.993
2026/05/14 10:29:16.721,-0.062,0.0,1.0
2026/05/14 10:29:16.740,-0.065,0.004,0.998
2026/05/14 10:29:16.759,-0.062,0.003,0.997
2026/05/14 10:29:16.778,-0.062,0.002,0.999
2026/05/14 10:29:16.798,-0.063,0.001,0.995
2026/05/14 10:29:16.817,-0.061,0.004,0.996
2026/05/14 10:29:16.836,-0.063,0.005,0.995
2026/05/14 10:29:16.855,-0.059,0.001,0.998
2026/05/14 10:29:16.874,-0.06,0.001,0.994
2026/05/14 10:29:16.893,-0.06,0.004,1.002
2026/05/14 10:29:16.912,-0.059,0.005,1.001
2026/05/14 10:29:16.931,-0.062,-0.001,0.994
2026/05/14 10:29:16.950,-0.064,0.004,0.997
2026/05/14 10:29:16.969,-0.061,0.003,0.999
2026/05/14 10:29:16.988,-0.063,0.003,0.991
2026/05/14 10:29:17.007,-0.06,0.004,0.997
2026/05/14 10:29:17.027,-0.059,0.001,0.998
2026/05/14 10:29:17.046,-0.062,0.0,0.991
2026/05/14 10:29:17.065,-0.063,0.005,0.993
2026/05/14 10:29:17.084,-0.061,0.002,0.999
2026/05/14 10:29:17.103,-0.06,-0.001,0.997
2026/05/14 10:29:17.122,-0.059,0.002,0.997
2026/05/14 10:29:17.141,-0.065,0.003,1.002
2026/05/14 10:29:17.160,-0.062,0.0,1.002
2026/05/14 10:29:17.179,-0.06,0.002,0.996
2026/05/14 10:29:17.198,-0.062,0.003,0.993
2026/05/14 10:29:17.217,-0.061,0.002,1.002
2026/05/14 10:29:17.236,-0.064,0.002,0.998
2026/05/14 10:29:17.255,-0.059,-0.001,0.999
2026/05/14 10:29:17.275,-0.065,0.001,0.995
2026/05/14 10:29:17.294,-0.06,-0.001,0.998
2026/05/14 10:29:17.313,-0.06,0.005,1.004
2026/05/14 10:29:17.332,-0.06,-0.001,0.997
2026/05/14 10:29:17.351,-0.061,0.007,0.998
2026/05/14 10:29:17.370,-0.064,0.005,0.998
2026/05/14 10:29:17.389,-0.06,0.005,1.0
2026/05/14 10:29:17.408,-0.057,0.004,0.992
2026/05/14 10:29:17.427,-0.059,0.002,1.002
2026/05/14 10:29:17.446,-0.064,0.003,0.995
2026/05/14 10:29:17.465,-0.061,0.002,0.991
2026/05/14 10:29:17.484,-0.06,0.002,0.996
2026/05/14 10:29:17.504,-0.062,0.002,0.996
2026/05/14 10:29:17.523,-0.06,0.006,0.994
2026/05/14 10:29:17.542,-0.062,0.003,0.997
2026/05/14 10:29:17.561,-0.063,0.002,0.997
2026/05/14 10:29:17.580,-0.061,0.007,0.999
2026/05/14 10:29:17.599,-0.062,0.007,0.999
2026/05/14 10:29:17.618,-0.058,0.006,0.998
2026/05/14 10:29:17.637,-0.063,0.006,0.998
2026/05/14 10:29:17.656,-0.063,0.0,1.001
2026/05/14 10:29:17.675,-0.06,0.001,1.0
2026/05/14 10:29:17.694,-0.065,0.003,0.998
2026/05/14 10:29:17.713,-0.06,0.001,0.995
2026/05/14 10:29:17.732,-0.06,0.006,0.996
2026/05/14 10:29:17.752,-0.061,0.0,0.994
2026/05/14 10:29:17.771,-0.059,0.002,0.998
2026/05/14 10:29:17.790,-0.063,-0.001,0.998
2026/05/14 10:29:17.809,-0.063,-0.001,0.996
2026/05/14 10:29:17.828,-0.061,0.001,0.994
2026/05/14 10:29:17.847,-0.06,0.004,0.998
2026/05/14 10:29:17.866,-0.064,0.005,0.995
2026/05/14 10:29:17.885,-0.061,0.006,1.002
2026/05/14 10:29:17.904,-0.063,0.003,1.0
2026/05/14 10:29:17.923,-0.064,0.0,0.998
2026/05/14 10:29:17.942,-0.059,0.0,0.995
2026/05/14 10:29:17.961,-0.064,0.003,0.997
2026/05/14 10:29:17.981,-0.059,-0.004,0.996
2026/05/14 10:29:18.000,-0.061,-0.003,0.996
2026/05/14 10:29:18.019,-0.062,0.0,0.997
2026/05/14 10:29:18.038,-0.061,0.0,0.998
2026/05/14 10:29:18.057,-0.06,0.001,0.994
2026/05/14 10:29:18.076,-0.061,0.003,0.998
2026/05/14 10:29:18.095,-0.061,0.007,0.996
2026/05/14 10:29:18.114,-0.058,0.003,0.994
2026/05/14 10:29:18.133,-0.062,0.004,0.999
2026/05/14 10:29:18.152,-0.06,0.002,0.999
2026/05/14 10:29:18.171,-0.062,0.004,0.999
2026/05/14 10:29:18.190,-0.063,0.002,0.994
2026/05/14 10:29:18.209,-0.063,0.006,0.996
2026/05/14 10:29:18.229,-0.058,0.004,0.999
2026/05/14 10:29:18.248,-0.062,-0.002,0.996
2026/05/14 10:29:18.267,-0.059,0.001,0.995
2026/05/14 10:29:18.286,-0.058,0.003,0.999
2026/05/14 10:29:18.305,-0.062,0.001,0.998
2026/05/14 10:29:18.324,-0.061,0.002,0.999
2026/05/14 10:29:18.343,-0.059,0.004,0.996
2026/05/14 10:29:18.362,-0.058,0.003,0.999
2026/05/14 10:29:18.381,-0.062,0.005,0.993
2026/05/14 10:29:18.400,-0.063,0.004,0.992
2026/05/14 10:29:18.419,-0.057,0.0,0.998
2026/05/14 10:29:18.438,-0.059,0.001,0.995
2026/05/14 10:29:18.458,-0.06,0.002,0.997
2026/05/14 10:29:18.477,-0.063,0.0,0.997
2026/05/14 10:29:18.496,-0.061,0.001,0.998
2026/05/14 10:29:18.515,-0.061,0.0,0.993
2026/05/14 10:29:18.534,-0.061,0.003,0.995
2026/05/14 10:29:18.553,-0.06,0.003,0.996
2026/05/14 10:29:18.572,-0.063,0.003,1.0
2026/05/14 10:29:18.591,-0.06,0.002,0.995
2026/05/14 10:29:18.610,-0.062,0.001,0.995
2026/05/14 10:29:18.629,-0.062,0.001,0.994
2026/05/14 10:29:18.648,-0.063,0.001,0.998
2026/05/14 10:29:18.667,-0.058,0.004,0.998
2026/05/14 10:29:18.686,-0.059,0.004,0.996
2026/05/14 10:29:18.706,-0.062,0.004,0.995
2026/05/14 10:29:18.725,-0.059,0.002,0.994
2026/05/14 10:29:18.744,-0.062,0.003,0.996
2026/05/14 10:29:18.763,-0.062,0.002,0.998
2026/05/14 10:29:18.782,-0.06,0.002,0.996
2026/05/14 10:29:18.801,-0.062,0.001,0.995
2026/05/14 10:29:18.820,-0.06,0.0,0.996
2026/05/14 10:29:18.839,-0.058,-0.001,0.998
2026/05/14 10:29:18.858,-0.061,0.004,1.001
2026/05/14 10:29:18.877,-0.063,0.004,0.999
2026/05/14 10:29:18.896,-0.06,0.002,0.995
2026/05/14 10:29:18.915,-0.063,0.001,0.996
2026/05/14 10:29:18.935,-0.059,0.004,0.996
2026/05/14 10:29:18.954,-0.061,0.007,0.998
2026/05/14 10:29:18.973,-0.062,0.003,0.995
2026/05/14 10:29:18.992,-0.058,0.003,0.998
2026/05/14 10:29:19.011,-0.063,0.005,0.997
2026/05/14 10:29:19.030,-0.059,0.001,0.995
2026/05/14 10:29:19.049,-0.062,0.001,0.999
2026/05/14 10:29:19.068,-0.063,0.002,0.996
2026/05/14 10:29:19.087,-0.063,0.001,0.996
2026/05/14 10:29:19.106,-0.061,0.004,0.996
2026/05/14 10:29:19.125,-0.06,0.007,0.994
2026/05/14 10:29:19.144,-0.063,-0.002,1.002
2026/05/14 10:29:19.163,-0.061,0.002,0.999
2026/05/14 10:29:19.183,-0.062,0.004,0.996
2026/05/14 10:29:19.202,-0.062,0.005,1.001
2026/05/14 10:29:19.221,-0.059,0.003,0.997
2026/05/14 10:29:19.240,-0.06,0.005,0.995
2026/05/14 10:29:19.259,-0.059,0.002,0.998
2026/05/14 10:29:19.278,-0.064,0.002,0.994
2026/05/14 10:29:19.297,-0.063,0.0,0.997
2026/05/14 10:29:19.316,-0.059,0.0,1.005
2026/05/14 10:29:19.335,-0.06,0.007,0.997
2026/05/14 10:29:19.354,-0.062,0.001,0.995
2026/05/14 10:29:19.373,-0.063,0.004,0.998
2026/05/14 10:29:19.392,-0.062,0.001,0.994
2026/05/14 10:29:19.412,-0.059,0.005,0.995
2026/05/14 10:29:19.431,-0.063,0.0,0.998
2026/05/14 10:29:19.450,-0.06,0.003,0.993
2026/05/14 10:29:19.469,-0.062,0.005,1.0
2026/05/14 10:29:19.488,-0.06,0.0,1.001
2026/05/14 10:29:19.507,-0.06,0.003,0.999
2026/05/14 10:29:19.526,-0.064,0.003,0.996
2026/05/14 10:29:19.545,-0.061,0.0,0.996
2026/05/14 10:29:19.564,-0.061,0.003,0.995
2026/05/14 10:29:19.583,-0.064,0.003,1.001
2026/05/14 10:29:19.602,-0.063,0.004,0.998
2026/05/14 10:29:19.621,-0.062,0.0,0.996
2026/05/14 10:29:19.640,-0.063,0.001,0.993
2026/05/14 10:29:19.660,-0.059,0.001,0.996
2026/05/14 10:29:19.679,-0.06,0.003,0.997
2026/05/14 10:29:19.698,-0.058,0.0,0.994
2026/05/14 10:29:19.717,-0.061,-0.002,0.996
2026/05/14 10:29:19.736,-0.061,0.003,0.998
2026/05/14 10:29:19.755,-0.06,0.001,0.998
2026/05/14 10:29:19.774,-0.061,0.002,0.994
2026/05/14 10:29:19.793,-0.059,0.003,1.0
2026/05/14 10:29:19.812,-0.062,0.001,0.996
2026/05/14 10:29:19.831,-0.06,0.004,0.996
2026/05/14 10:29:19.850,-0.061,0.003,1.001
2026/05/14 10:29:19.869,-0.063,0.005,0.999
2026/05/14 10:29:19.889,-0.066,0.001,0.997
2026/05/14 10:29:19.908,-0.063,0.004,0.993
2026/05/14 10:29:19.927,-0.059,0.004,0.997
2026/05/14 10:29:19.946,-0.061,0.004,0.996
2026/05/14 10:29:19.965,-0.061,0.002,0.993
2026/05/14 10:29:19.984,-0.058,0.004,0.996
2026/05/14 10:29:20.003,-0.062,0.004,0.996
2026/05/14 10:29:20.022,-0.06,0.0,0.999
2026/05/14 10:29:20.041,-0.06,0.004,0.994
2026/05/14 10:29:20.060,-0.06,0.003,0.995
2026/05/14 10:29:20.079,-0.061,0.002,0.993
2026/05/14 10:29:20.098,-0.063,0.001,0.997
2026/05/14 10:29:20.117,-0.061,0.003,0.998
2026/05/14 10:29:20.137,-0.062,0.003,1.0
2026/05/14 10:29:20.156,-0.062,0.002,1.006
2026/05/14 10:29:20.175,-0.059,0.003,0.997
2026/05/14 10:29:20.194,-0.059,0.003,0.994
2026/05/14 10:29:20.213,-0.057,-0.002,0.999
2026/05/14 10:29:20.232,-0.06,0.002,1.0
2026/05/14 10:29:20.251,-0.059,0.006,0.998
2026/05/14 10:29:20.270,-0.062,-0.001,0.998
2026/05/14 10:29:20.289,-0.061,0.005,0.997
2026/05/14 10:29:20.308,-0.059,0.005,0.997
2026/05/14 10:29:20.327,-0.064,0.001,1.0
2026/05/14 10:29:20.346,-0.061,0.004,0.998
2026/05/14 10:29:20.366,-0.058,0.0,1.0
2026/05/14 10:29:20.385,-0.059,0.003,0.996
2026/05/14 10:29:20.404,-0.063,0.003,0.995
2026/05/14 10:29:20.423,-0.058,0.003,0.993
2026/05/14 10:29:20.442,-0.06,-0.002,0.994
2026/05/14 10:29:20.461,-0.058,0.003,0.993
2026/05/14 10:29:20.480,-0.061,-0.001,0.996
2026/05/14 10:29:20.499,-0.064,0.004,0.994
2026/05/14 10:29:20.518,-0.062,0.004,0.997
2026/05/14 10:29:20.537,-0.064,0.002,0.996
2026/05/14 10:29:20.556,-0.059,0.003,0.999
2026/05/14 10:29:20.575,-0.063,0.001,0.997
2026/05/14 10:29:20.594,-0.059,0.003,0.996
2026/05/14 10:29:20.614,-0.06,0.004,0.997
2026/05/14 10:29:20.633,-0.063,0.0,0.996
2026/05/14 10:29:20.652,-0.057,0.002,0.996
2026/05/14 10:29:20.671,-0.059,0.001,0.997
2026/05/14 10:29:20.690,-0.061,0.007,0.995
2026/05/14 10:29:20.709,-0.059,0.007,0.999
2026/05/14 10:29:20.728,-0.059,0.0,0.994
2026/05/14 10:29:20.747,-0.059,0.004,1.001
2026/05/14 10:29:20.766,-0.062,0.002,0.994
2026/05/14 10:29:20.785,-0.061,0.005,0.995
2026/05/14 10:29:20.804,-0.061,0.003,0.995
2026/05/14 10:29:20.823,-0.062,0.001,0.997
2026/05/14 10:29:20.843,-0.059,0.003,0.993
2026/05/14 10:29:20.862,-0.058,0.002,0.999
2026/05/14 10:29:20.881,-0.061,0.002,0.997
2026/05/14 10:29:20.900,-0.065,0.003,0.997
2026/05/14 10:29:20.919,-0.063,-0.001,0.994
2026/05/14 10:29:20.938,-0.063,0.003,0.995
2026/05/14 10:29:20.957,-0.058,0.001,0.998
2026/05/14 10:29:20.976,-0.062,0.003,0.998
2026/05/14 10:29:20.995,-0.062,0.002,0.995
2026/05/14 10:29:21.014,-0.06,0.0,0.994
2026/05/14 10:29:21.033,-0.06,0.002,0.996
2026/05/14 10:29:21.052,-0.06,-0.001,0.994
2026/05/14 10:29:21.071,-0.059,0.003,0.998
2026/05/14 10:29:21.091,-0.062,0.003,0.993
2026/05/14 10:29:21.110,-0.06,0.002,0.997
2026/05/14 10:29:21.129,-0.062,0.001,0.998
2026/05/14 10:29:21.148,-0.061,0.004,0.994
2026/05/14 10:29:21.167,-0.064,0.003,0.994
2026/05/14 10:29:21.186,-0.061,0.003,0.995
2026/05/14 10:29:21.205,-0.061,0.003,0.995
2026/05/14 10:29:21.224,-0.062,0.003,0.996
2026/05/14 10:29:21.243,-0.061,0.002,0.997
2026/05/14 10:29:21.262,-0.064,0.001,1.0
2026/05/14 10:29:21.281,-0.059,0.001,0.996
2026/05/14 10:29:21.300,-0.059,0.003,0.996
2026/05/14 10:29:21.320,-0.059,-0.001,0.997
2026/05/14 10:29:21.339,-0.06,0.005,0.996
2026/05/14 10:29:21.358,-0.058,0.002,0.999
2026/05/14 10:29:21.377,-0.062,0.0,1.0
2026/05/14 10:29:21.396,-0.061,0.004,0.997
2026/05/14 10:29:21.415,-0.06,-0.001,0.998
2026/05/14 10:29:21.434,-0.06,0.001,0.994
2026/05/14 10:29:21.453,-0.061,0.002,1.002
2026/05/14 10:29:21.472,-0.061,0.0,0.995
2026/05/14 10:29:21.491,-0.062,0.001,1.0
2026/05/14 10:29:21.510,-0.061,0.002,0.997
2026/05/14 10:29:21.529,-0.059,0.002,0.997
2026/05/14 10:29:21.548,-0.06,0.002,0.999
2026/05/14 10:29:21.568,-0.065,0.003,0.996
2026/05/14 10:29:21.587,-0.062,0.001,0.996
2026/05/14 10:29:21.606,-0.064,0.0,0.995
2026/05/14 10:29:21.625,-0.063,0.006,0.994
2026/05/14 10:29:21.644,-0.061,0.003,0.997
2026/05/14 10:29:21.663,-0.06,0.004,0.997
2026/05/14 10:29:21.682,-0.058,0.0,0.998
2026/05/14 10:29:21.701,-0.062,0.005,0.996
2026/05/14 10:29:21.720,-0.065,0.003,0.994
2026/05/14 10:29:21.739,-0.057,0.001,0.996
2026/05/14 10:29:21.758,-0.06,0.001,0.994
2026/05/14 10:29:21.777,-0.059,0.001,0.995
2026/05/14 10:29:21.797,-0.065,0.005,0.996
2026/05/14 10:29:21.816,-0.058,0.003,0.993
2026/05/14 10:29:21.835,-0.06,0.002,0.998
2026/05/14 10:29:21.854,-0.059,0.001,0.995
2026/05/14 10:29:21.873,-0.059,0.007,0.996
2026/05/14 10:29:21.892,-0.06,0.006,0.997
2026/05/14 10:29:21.911,-0.057,0.002,0.998
2026/05/14 10:29:21.930,-0.06,0.001,1.001
2026/05/14 10:29:21.949,-0.06,0.0,0.999
2026/05/14 10:29:21.968,-0.063,0.003,0.998
2026/05/14 10:29:21.987,-0.064,0.001,0.998
2026/05/14 10:29:22.006,-0.064,0.004,0.995
2026/05/14 10:29:22.025,-0.064,0.004,0.999
2026/05/14 10:29:22.045,-0.063,0.001,1.004
2026/05/14 10:29:22.064,-0.062,-0.001,0.994
2026/05/14 10:29:22.083,-0.062,0.001,0.996
2026/05/14 10:29:22.102,-0.063,0.002,0.991
2026/05/14 10:29:22.121,-0.06,0.0,1.0
2026/05/14 10:29:22.140,-0.065,0.002,0.995
2026/05/14 10:29:22.159,-0.061,0.006,0.994
2026/05/14 10:29:22.178,-0.058,0.0,0.996
2026/05/14 10:29:22.197,-0.062,0.001,0.998
2026/05/14 10:29:22.216,-0.061,0.001,0.995
2026/05/14 10:29:22.235,-0.062,0.004,0.997
2026/05/14 10:29:22.254,-0.06,0.002,0.999
2026/05/14 10:29:22.274,-0.058,0.003,0.997
2026/05/14 10:29:22.293,-0.061,0.001,0.999
2026/05/14 10:29:22.312,-0.062,-0.002,0.996
2026/05/14 10:29:22.331,-0.062,-0.004,0.999
2026/05/14 10:29:22.350,-0.061,0.0,0.996
2026/05/14 10:29:22.369,-0.062,0.004,0.997
2026/05/14 10:29:22.388,-0.061,0.002,1.0
2026/05/14 10:29:22.407,-0.059,0.008,0.997
2026/05/14 10:29:22.426,-0.06,0.001,1.002
2026/05/14 10:29:22.445,-0.061,0.005,0.997
2026/05/14 10:29:22.464,-0.062,0.002,0.998
2026/05/14 10:29:22.483,-0.057,0.002,0.993
2026/05/14 10:29:22.502,-0.061,0.001,0.997
2026/05/14 10:29:22.522,-0.064,0.002,0.998
2026/05/14 10:29:22.541,-0.059,0.0,0.999
2026/05/14 10:29:22.560,-0.06,0.003,1.0
2026/05/14 10:29:22.579,-0.062,0.003,0.995
2026/05/14 10:29:22.598,-0.06,0.0,0.995
2026/05/14 10:29:22.617,-0.062,0.004,0.998
2026/05/14 10:29:22.636,-0.059,0.002,1.0
2026/05/14 10:29:22.655,-0.063,0.004,1.0
2026/05/14 10:29:22.674,-0.063,0.002,1.0
2026/05/14 10:29:22.693,-0.064,0.0,0.999
2026/05/14 10:29:22.712,-0.06,0.004,0.996
2026/05/14 10:29:22.731,-0.059,0.002,0.999
2026/05/14 10:29:22.750,-0.06,0.0,0.997
2026/05/14 10:29:22.770,-0.062,0.003,0.994
2026/05/14 10:29:22.789,-0.064,0.002,0.995
2026/05/14 10:29:22.808,-0.06,0.002,1.0
2026/05/14 10:29:22.827,-0.064,0.004,0.998
2026/05/14 10:29:22.846,-0.065,0.002,0.998
2026/05/14 10:29:22.865,-0.062,0.003,0.995
2026/05/14 10:29:22.884,-0.061,0.003,0.996
2026/05/14 10:29:22.903,-0.06,0.002,0.997
2026/05/14 10:29:22.922,-0.062,0.001,1.0
2026/05/14 10:29:22.941,-0.064,0.001,0.995
2026/05/14 10:29:22.960,-0.06,0.001,0.996
2026/05/14 10:29:22.979,-0.062,0.001,0.998
2026/05/14 10:29:22.998,-0.058,0.005,0.995
2026/05/14 10:29:23.018,-0.062,0.002,0.999
2026/05/14 10:29:23.037,-0.06,0.004,0.998
2026/05/14 10:29:23.056,-0.06,0.0,0.992
2026/05/14 10:29:23.075,-0.059,0.003,0.998
2026/05/14 10:29:23.094,-0.064,0.002,0.999
2026/05/14 10:29:23.113,-0.061,0.001,0.996
2026/05/14 10:29:23.132,-0.061,0.0,1.0
2026/05/14 10:29:23.151,-0.063,0.0,0.996
2026/05/14 10:29:23.170,-0.063,0.003,0.999
2026/05/14 10:29:23.189,-0.058,0.002,0.996
2026/05/14 10:29:23.208,-0.063,0.003,0.997
2026/05/14 10:29:23.227,-0.063,0.005,0.998
2026/05/14 10:29:23.247,-0.062,0.001,0.997
2026/05/14 10:29:23.266,-0.058,0.004,0.996
2026/05/14 10:29:23.285,-0.063,0.0,0.997
2026/05/14 10:29:23.304,-0.062,0.003,0.996
2026/05/14 10:29:23.323,-0.06,0.002,1.0
2026/05/14 10:29:23.342,-0.064,0.004,0.998
2026/05/14 10:29:23.361,-0.068,0.011,1.04
2026/05/14 10:29:23.380,-0.06,0.011,0.942
2026/05/14 10:29:23.399,-0.034,-0.004,0.731
2026/05/14 10:29:23.418,-0.051,0.01,1.002
2026/05/14 10:29:23.437,-0.074,-0.001,0.936
2026/05/14 10:29:23.456,-0.048,0.005,0.961
2026/05/14 10:29:23.475,-0.072,0.0,0.978
2026/05/14 10:29:23.495,-0.077,-0.007,1.005
2026/05/14 10:29:23.514,-0.086,-0.017,0.94
2026/05/14 10:29:23.533,-0.071,-0.033,1.0
2026/05/14 10:29:23.552,-0.067,-0.041,0.961
2026/05/14 10:29:23.571,-0.059,-0.028,1.066
2026/05/14 10:29:23.590,-0.095,0.0,1.066
2026/05/14 10:29:23.609,-0.075,0.043,0.989
2026/05/14 10:29:23.628,-0.084,0.012,0.945
2026/05/14 10:29:23.647,-0.084,0.018,1.082
2026/05/14 10:29:23.666,-0.052,0.001,0.998
2026/05/14 10:29:23.685,-0.042,0.008,0.963
2026/05/14 10:29:23.704,-0.029,0.017,0.995
2026/05/14 10:29:23.723,-0.037,0.017,1.033
2026/05/14 10:29:23.743,-0.032,0.023,1.033
2026/05/14 10:29:23.762,-0.047,0.013,1.034
2026/05/14 10:29:23.781,-0.064,0.011,1.003
2026/05/14 10:29:23.800,-0.069,0.005,0.984
2026/05/14 10:29:23.819,-0.074,0.006,1.005
2026/05/14 10:29:23.838,-0.076,0.006,1.001
2026/05/14 10:29:23.857,-0.07,-0.004,0.977
2026/05/14 10:29:23.876,-0.065,-0.009,0.998
2026/05/14 10:29:23.895,-0.065,-0.01,0.985
2026/05/14 10:29:23.914,-0.06,-0.009,0.981
2026/05/14 10:29:23.933,-0.056,-0.01,0.996
2026/05/14 10:29:23.952,-0.057,-0.001,1.001
2026/05/14 10:29:23.972,-0.065,0.011,0.994
2026/05/14 10:29:23.991,-0.061,0.015,0.996
2026/05/14 10:29:24.010,-0.059,0.02,1.008
2026/05/14 10:29:24.029,-0.054,0.028,0.966
2026/05/14 10:29:24.048,-0.051,0.005,0.994
2026/05/14 10:29:24.067,-0.048,-0.014,0.957
2026/05/14 10:29:24.086,-0.05,-0.012,1.003
2026/05/14 10:29:24.105,-0.063,-0.016,1.017
2026/05/14 10:29:24.124,-0.069,-0.004,0.943
2026/05/14 10:29:24.143,-0.063,0.009,1.045
2026/05/14 10:29:24.162,-0.075,0.027,1.001
2026/05/14 10:29:24.181,-0.071,0.02,1.013
2026/05/14 10:29:24.200,-0.09,-0.014,0.973
2026/05/14 10:29:24.220,-0.082,0.006,1.05
2026/05/14 10:29:24.239,-0.046,0.007,0.933
2026/05/14 10:29:24.258,-0.034,0.008,0.997
2026/05/14 10:29:24.277,-0.031,0.004,0.983
2026/05/14 10:29:24.296,-0.056,-0.001,0.984
2026/05/14 10:29:24.315,-0.067,0.001,0.991
2026/05/14 10:29:24.334,-0.071,0.009,0.934
2026/05/14 10:29:24.353,-0.07,0.017,1.02
2026/05/14 10:29:24.372,-0.075,0.02,0.993
2026/05/14 10:29:24.391,-0.065,0.009,0.986
2026/05/14 10:29:24.410,-0.06,-0.006,1.017
2026/05/14 10:29:24.429,-0.034,0.04,0.962
2026/05/14 10:29:24.448,-0.073,-0.066,1.083
2026/05/14 10:29:24.468,-0.042,0.016,1.183
2026/05/14 10:29:24.487,-0.086,0.02,1.115
2026/05/14 10:29:24.506,-0.04,-0.011,0.977
2026/05/14 10:29:24.525,-0.074,0.01,1.096
2026/05/14 10:29:24.544,-0.065,-0.006,1.035
2026/05/14 10:29:24.563,-0.063,0.0,0.942
2026/05/14 10:29:24.582,-0.063,0.0,0.943
2026/05/14 10:29:24.601,-0.06,-0.007,0.986
2026/05/14 10:29:24.620,-0.061,-0.001,0.973
2026/05/14 10:29:24.639,-0.065,-0.004,0.98
2026/05/14 10:29:24.658,-0.063,0.003,0.981
2026/05/14 10:29:24.677,-0.06,0.003,0.959
2026/05/14 10:29:24.697,-0.062,0.007,0.983
2026/05/14 10:29:24.716,-0.058,0.001,1.021
2026/05/14 10:29:24.735,-0.059,0.006,1.003
2026/05/14 10:29:24.754,-0.06,0.006,1.001
2026/05/14 10:29:24.773,-0.061,0.006,1.018
2026/05/14 10:29:24.792,-0.058,0.001,1.005
2026/05/14 10:29:24.811,-0.057,0.001,1.009
2026/05/14 10:29:24.830,-0.061,0.002,1.014
2026/05/14 10:29:24.849,-0.061,0.005,0.995
2026/05/14 10:29:24.868,-0.064,0.003,0.999
2026/05/14 10:29:24.887,-0.064,0.003,0.991
2026/05/14 10:29:24.906,-0.063,0.002,0.988
2026/05/14 10:29:24.926,-0.062,-0.001,0.995
2026/05/14 10:29:24.945,-0.065,0.001,0.994
2026/05/14 10:29:24.964,-0.064,0.004,0.982
2026/05/14 10:29:24.983,-0.059,0.0,0.99
2026/05/14 10:29:25.002,-0.063,0.002,0.996
2026/05/14 10:29:25.021,-0.058,0.001,1.001
2026/05/14 10:29:25.040,-0.059,0.004,0.995
2026/05/14 10:29:25.059,-0.062,0.002,0.999
2026/05/14 10:29:25.078,-0.06,0.008,1.001
2026/05/14 10:29:25.097,-0.061,0.007,1.004
2026/05/14 10:29:25.116,-0.064,0.006,1.004
2026/05/14 10:29:25.135,-0.062,0.005,1.004
2026/05/14 10:29:25.154,-0.058,0.002,0.994
2026/05/14 10:29:25.174,-0.062,0.001,1.003
2026/05/14 10:29:25.193,-0.062,-0.002,0.996
2026/05/14 10:29:25.212,-0.059,0.004,0.998
2026/05/14 10:29:25.231,-0.063,0.0,0.994
2026/05/14 10:29:25.250,-0.059,0.003,1.001
2026/05/14 10:29:25.269,-0.063,0.002,0.995
2026/05/14 10:29:25.288,-0.062,0.0,0.997
2026/05/14 10:29:25.307,-0.062,0.003,0.999
2026/05/14 10:29:25.326,-0.059,0.007,0.998
2026/05/14 10:29:25.345,-0.056,0.004,0.999
2026/05/14 10:29:25.364,-0.058,0.006,0.997
2026/05/14 10:29:25.383,-0.061,0.003,1.0
2026/05/14 10:29:25.403,-0.06,0.006,0.995
2026/05/14 10:29:25.422,-0.061,0.006,0.996
2026/05/14 10:29:25.441,-0.061,0.003,0.999
2026/05/14 10:29:25.460,-0.063,0.002,0.997
2026/05/14 10:29:25.479,-0.061,-0.003,0.998
2026/05/14 10:29:25.498,-0.06,0.004,0.998
2026/05/14 10:29:25.517,-0.063,-0.002,0.995
2026/05/14 10:29:25.536,-0.06,0.001,0.998
2026/05/14 10:29:25.555,-0.064,0.002,0.997
2026/05/14 10:29:25.574,-0.063,0.005,0.995
2026/05/14 10:29:25.593,-0.064,0.003,0.997
2026/05/14 10:29:25.612,-0.059,0.003,0.993
2026/05/14 10:29:25.631,-0.062,0.004,0.997
2026/05/14 10:29:25.651,-0.062,0.006,0.996
2026/05/14 10:29:25.670,-0.06,0.006,0.994
2026/05/14 10:29:25.689,-0.057,0.003,0.996
2026/05/14 10:29:25.708,-0.062,0.005,0.997
2026/05/14 10:29:25.727,-0.059,0.005,0.996
2026/05/14 10:29:25.746,-0.057,0.005,0.994
2026/05/14 10:29:25.765,-0.06,0.0,0.995
2026/05/14 10:29:25.784,-0.063,0.002,0.999
2026/05/14 10:29:25.803,-0.062,0.004,1.001
2026/05/14 10:29:25.822,-0.058,0.004,0.998
2026/05/14 10:29:25.841,-0.062,0.001,0.996
2026/05/14 10:29:25.860,-0.058,0.0,0.998
2026/05/14 10:29:25.880,-0.063,-0.001,0.997
2026/05/14 10:29:25.899,-0.058,0.002,0.996
2026/05/14 10:29:25.918,-0.062,0.005,1.002
2026/05/14 10:29:25.937,-0.062,0.004,0.999
2026/05/14 10:29:25.956,-0.059,0.0,1.001
2026/05/14 10:29:25.975,-0.06,0.004,0.997
2026/05/14 10:29:25.994,-0.059,0.004,0.994
2026/05/14 10:29:26.013,-0.061,0.004,0.997
2026/05/14 10:29:26.032,-0.065,0.006,0.997
2026/05/14 10:29:26.051,-0.061,0.007,0.997
2026/05/14 10:29:26.070,-0.058,0.001,0.998
2026/05/14 10:29:26.089,-0.063,0.0,0.991
2026/05/14 10:29:26.109,-0.064,0.004,1.0
2026/05/14 10:29:26.128,-0.062,0.0,0.996
2026/05/14 10:29:26.147,-0.064,0.005,0.997
2026/05/14 10:29:26.166,-0.059,0.004,0.994
2026/05/14 10:29:26.185,-0.063,0.0,0.993
2026/05/14 10:29:26.204,-0.061,0.002,0.994
2026/05/14 10:29:26.223,-0.059,0.001,0.996
2026/05/14 10:29:26.242,-0.059,0.006,0.996
2026/05/14 10:29:26.261,-0.062,0.006,0.998
2026/05/14 10:29:26.280,-0.064,0.006,0.994
2026/05/14 10:29:26.299,-0.061,0.001,0.997
2026/05/14 10:29:26.318,-0.058,0.003,0.996
2026/05/14 10:29:26.337,-0.061,0.005,0.992
2026/05/14 10:29:26.357,-0.064,0.002,0.996
2026/05/14 10:29:26.376,-0.063,0.002,0.993
2026/05/14 10:29:26.395,-0.059,0.002,0.995
2026/05/14 10:29:26.414,-0.064,0.006,1.001
2026/05/14 10:29:26.433,-0.062,0.004,0.996
2026/05/14 10:29:26.452,-0.064,0.0,0.994
2026/05/14 10:29:26.471,-0.061,0.0,0.998
2026/05/14 10:29:26.490,-0.064,0.005,0.998
2026/05/14 10:29:26.509,-0.063,0.001,0.993
2026/05/14 10:29:26.528,-0.061,0.005,0.997
2026/05/14 10:29:26.547,-0.06,0.004,0.996
2026/05/14 10:29:26.566,-0.06,0.005,0.997
2026/05/14 10:29:26.586,-0.06,0.002,0.992
2026/05/14 10:29:26.605,-0.063,0.006,0.995
2026/05/14 10:29:26.624,-0.059,0.004,1.0
2026/05/14 10:29:26.643,-0.062,0.002,0.996
2026/05/14 10:29:26.662,-0.063,0.005,1.0
2026/05/14 10:29:26.681,-0.059,0.002,0.994
2026/05/14 10:29:26.700,-0.056,0.004,1.0
2026/05/14 10:29:26.719,-0.062,0.003,0.999
2026/05/14 10:29:26.738,-0.062,0.002,0.998
2026/05/14 10:29:26.757,-0.059,0.002,0.997
2026/05/14 10:29:26.776,-0.059,0.004,0.994
2026/05/14 10:29:26.795,-0.062,0.003,0.999
2026/05/14 10:29:26.815,-0.062,0.004,0.991
2026/05/14 10:29:26.834,-0.06,0.004,0.994
2026/05/14 10:29:26.853,-0.063,0.004,1.003
2026/05/14 10:29:26.872,-0.058,0.001,0.994
2026/05/14 10:29:26.891,-0.061,0.004,0.994
2026/05/14 10:29:26.910,-0.059,0.002,0.997
2026/05/14 10:29:26.929,-0.06,0.006,0.997
2026/05/14 10:29:26.948,-0.06,0.002,0.994
2026/05/14 10:29:26.967,-0.063,0.0,0.997
2026/05/14 10:29:26.986,-0.062,0.006,0.998
2026/05/14 10:29:27.005,-0.059,0.002,1.01
2026/05/14 10:29:27.024,-0.062,0.003,1.005
2026/05/14 10:29:27.043,-0.061,0.005,0.997
2026/05/14 10:29:27.063,-0.06,0.006,0.997
2026/05/14 10:29:27.082,-0.062,-0.001,0.996
2026/05/14 10:29:27.101,-0.062,0.002,0.994
2026/05/14 10:29:27.120,-0.059,0.003,0.994
2026/05/14 10:29:27.139,-0.06,0.001,1.028
2026/05/14 10:29:27.158,-0.06,0.004,0.996
2026/05/14 10:29:27.177,-0.059,0.0,0.998
2026/05/14 10:29:27.196,-0.064,0.004,0.997
2026/05/14 10:29:27.215,-0.06,0.003,0.997
2026/05/14 10:29:27.234,-0.065,0.001,0.997
2026/05/14 10:29:27.253,-0.06,0.002,0.993
2026/05/14 10:29:27.272,-0.058,0.007,0.994
2026/05/14 10:29:27.292,-0.058,0.001,0.994
2026/05/14 10:29:27.311,-0.056,0.006,1.004
2026/05/14 10:29:27.330,-0.058,0.004,0.999
2026/05/14 10:29:27.349,-0.063,0.0,0.999
2026/05/14 10:29:27.368,-0.06,0.001,0.997
2026/05/14 10:29:27.387,-0.062,0.007,0.996
2026/05/14 10:29:27.406,-0.058,0.003,1.0
2026/05/14 10:29:27.425,-0.057,0.006,0.996
2026/05/14 10:29:27.444,-0.061,0.002,0.993
2026/05/14 10:29:27.463,-0.062,0.005,0.998
2026/05/14 10:29:27.482,-0.059,0.001,0.995
2026/05/14 10:29:27.501,-0.062,-0.002,0.997
2026/05/14 10:29:27.520,-0.063,0.005,1.002
2026/05/14 10:29:27.540,-0.059,0.004,1.002
2026/05/14 10:29:27.559,-0.061,0.003,0.996
2026/05/14 10:29:27.578,-0.059,0.0,1.0
2026/05/14 10:29:27.597,-0.06,0.002,0.997
2026/05/14 10:29:27.616,-0.064,0.005,0.993
2026/05/14 10:29:27.635,-0.061,0.002,0.996
2026/05/14 10:29:27.654,-0.062,0.001,1.001
2026/05/14 10:29:27.673,-0.064,0.002,0.99
2026/05/14 10:29:27.692,-0.059,0.002,0.992
2026/05/14 10:29:27.711,-0.062,0.002,0.999
2026/05/14 10:29:27.730,-0.062,0.001,1.0
2026/05/14 10:29:27.749,-0.064,0.003,1.0
2026/05/14 10:29:27.769,-0.061,0.006,0.984
2026/05/14 10:29:27.788,-0.061,0.0,1.002
2026/05/14 10:29:27.807,-0.063,0.0,1.001
2026/05/14 10:29:27.826,-0.061,0.0,1.006
2026/05/14 10:29:27.845,-0.06,0.004,1.013
2026/05/14 10:29:27.864,-0.061,0.002,0.994
2026/05/14 10:29:27.883,-0.06,0.003,0.995
2026/05/14 10:29:27.902,-0.061,0.003,0.997
2026/05/14 10:29:27.921,-0.06,0.005,0.995
2026/05/14 10:29:27.940,-0.06,0.003,0.991
2026/05/14 10:29:27.959,-0.062,0.005,0.996
2026/05/14 10:29:27.978,-0.06,0.002,1.004
2026/05/14 10:29:27.997,-0.061,0.005,0.997
2026/05/14 10:29:28.017,-0.058,0.004,0.997
2026/05/14 10:29:28.036,-0.06,0.001,1.0
2026/05/14 10:29:28.055,-0.058,0.002,0.998
2026/05/14 10:29:28.074,-0.063,0.007,0.995
2026/05/14 10:29:28.093,-0.059,0.002,0.984
2026/05/14 10:29:28.112,-0.065,0.007,1.005
2026/05/14 10:29:28.131,-0.06,0.001,1.006
2026/05/14 10:29:28.150,-0.062,0.001,0.993
2026/05/14 10:29:28.169,-0.063,0.005,0.998
2026/05/14 10:29:28.188,-0.062,0.0,0.999
2026/05/14 10:29:28.207,-0.056,0.001,0.982
2026/05/14 10:29:28.226,-0.062,0.0,0.991
2026/05/14 10:29:28.246,-0.064,0.0,0.992
2026/05/14 10:29:28.265,-0.06,-0.003,0.994
2026/05/14 10:29:28.284,-0.061,0.002,0.992
2026/05/14 10:29:28.303,-0.063,0.004,0.994
2026/05/14 10:29:28.322,-0.062,0.003,0.998
2026/05/14 10:29:28.341,-0.06,0.003,0.997
2026/05/14 10:29:28.360,-0.061,0.002,1.0
2026/05/14 10:29:28.379,-0.06,0.004,0.997
2026/05/14 10:29:28.398,-0.063,0.005,0.999
2026/05/14 10:29:28.417,-0.06,-0.001,0.998
2026/05/14 10:29:28.436,-0.06,0.003,0.997
2026/05/14 10:29:28.455,-0.059,0.001,0.997
2026/05/14 10:29:28.474,-0.062,0.006,0.996
2026/05/14 10:29:28.494,-0.058,0.002,1.0
2026/05/14 10:29:28.513,-0.063,0.005,0.994
2026/05/14 10:29:28.532,-0.061,0.003,1.002
2026/05/14 10:29:28.551,-0.06,0.0,0.996
2026/05/14 10:29:28.570,-0.061,0.004,1.0
2026/05/14 10:29:28.589,-0.062,0.006,0.995
2026/05/14 10:29:28.608,-0.063,0.0,0.997
2026/05/14 10:29:28.627,-0.06,0.002,1.015
2026/05/14 10:29:28.646,-0.058,0.001,0.986
2026/05/14 10:29:28.665,-0.06,0.003,0.991
2026/05/14 10:29:28.684,-0.059,0.002,0.995
2026/05/14 10:29:28.703,-0.06,0.001,0.996
2026/05/14 10:29:28.723,-0.061,0.005,0.999
2026/05/14 10:29:28.742,-0.063,0.001,0.997
2026/05/14 10:29:28.761,-0.06,0.002,0.996
2026/05/14 10:29:28.780,-0.063,0.003,0.993
2026/05/14 10:29:28.799,-0.061,0.007,1.02
2026/05/14 10:29:28.818,-0.062,0.005,0.99
2026/05/14 10:29:28.837,-0.061,0.006,1.002
2026/05/14 10:29:28.856,-0.059,0.003,1.0
2026/05/14 10:29:28.875,-0.063,0.0,1.015
2026/05/14 10:29:28.894,-0.064,0.007,1.007
2026/05/14 10:29:28.913,-0.059,0.004,0.999
2026/05/14 10:29:28.932,-0.06,0.004,1.003
2026/05/14 10:29:28.951,-0.062,0.003,0.994
2026/05/14 10:29:28.971,-0.06,-0.003,0.999
2026/05/14 10:29:28.990,-0.06,0.002,0.995
2026/05/14 10:29:29.009,-0.059,0.002,1.001
2026/05/14 10:29:29.028,-0.06,0.0,0.993
2026/05/14 10:29:29.047,-0.062,0.004,0.993
2026/05/14 10:29:29.066,-0.057,0.0,0.99
2026/05/14 10:29:29.085,-0.06,0.001,0.997
2026/05/14 10:29:29.104,-0.062,0.004,0.995
2026/05/14 10:29:29.123,-0.058,0.001,0.999
2026/05/14 10:29:29.142,-0.064,0.004,1.0
2026/05/14 10:29:29.161,-0.063,-0.001,1.0
2026/05/14 10:29:29.180,-0.06,0.001,0.997
2026/05/14 10:29:29.200,-0.062,0.003,0.995
2026/05/14 10:29:29.219,-0.062,0.001,0.994
2026/05/14 10:29:29.238,-0.06,0.0,0.997
2026/05/14 10:29:29.257,-0.062,0.001,0.996
2026/05/14 10:29:29.276,-0.061,0.004,1.0
2026/05/14 10:29:29.295,-0.062,0.001,0.995
2026/05/14 10:29:29.314,-0.06,0.0,0.999
2026/05/14 10:29:29.333,-0.063,0.003,0.994
2026/05/14 10:29:29.352,-0.058,0.002,0.994
2026/05/14 10:29:29.371,-0.063,0.003,1.022
2026/05/14 10:29:29.390,-0.063,0.002,1.007
2026/05/14 10:29:29.409,-0.06,-0.001,0.994
2026/05/14 10:29:29.428,-0.065,0.001,0.986
2026/05/14 10:29:29.448,-0.061,0.005,0.993
2026/05/14 10:29:29.467,-0.061,0.005,0.993
2026/05/14 10:29:29.486,-0.062,0.007,0.995
2026/05/14 10:29:29.505,-0.058,0.0,0.994
2026/05/14 10:29:29.524,-0.061,-0.001,1.004
2026/05/14 10:29:29.543,-0.065,0.002,0.996
2026/05/14 10:29:29.562,-0.061,0.002,1.008
2026/05/14 10:29:29.581,-0.062,0.002,1.009
2026/05/14 10:29:29.600,-0.06,-0.001,0.994
2026/05/14 10:29:29.619,-0.064,0.004,0.996
2026/05/14 10:29:29.638,-0.059,0.0,0.996
2026/05/14 10:29:29.657,-0.065,0.009,0.997
2026/05/14 10:29:29.676,-0.06,0.004,0.995
2026/05/14 10:29:29.696,-0.06,0.002,0.999
2026/05/14 10:29:29.715,-0.058,0.002,0.998
2026/05/14 10:29:29.734,-0.059,0.0,0.997
2026/05/14 10:29:29.753,-0.06,0.0,1.002
2026/05/14 10:29:29.772,-0.06,0.001,0.999
2026/05/14 10:29:29.791,-0.063,0.003,1.001
2026/05/14 10:29:29.810,-0.06,0.005,0.993
2026/05/14 10:29:29.829,-0.063,0.0,0.993
2026/05/14 10:29:29.848,-0.06,-0.002,0.998
2026/05/14 10:29:29.867,-0.063,0.001,1.0
2026/05/14 10:29:29.886,-0.055,0.002,0.999
2026/05/14 10:29:29.905,-0.058,0.001,0.998
2026/05/14 10:29:29.925,-0.061,0.002,0.996
2026/05/14 10:29:29.944,-0.062,0.003,1.003
2026/05/14 10:29:29.963,-0.062,0.0,0.992
2026/05/14 10:29:29.982,-0.06,0.005,0.99
2026/05/14 10:29:30.001,-0.062,0.001,0.997
2026/05/14 10:29:30.020,-0.063,0.004,1.007
2026/05/14 10:29:30.039,-0.062,0.001,0.991
2026/05/14 10:29:30.058,-0.059,0.001,1.006
2026/05/14 10:29:30.077,-0.059,0.005,1.004
2026/05/14 10:29:30.096,-0.063,-0.003,0.991
2026/05/14 10:29:30.115,-0.063,0.003,0.999
2026/05/14 10:29:30.134,-0.061,0.002,0.991
2026/05/14 10:29:30.153,-0.063,0.003,0.991
2026/05/14 10:29:30.173,-0.056,0.0,0.995
2026/05/14 10:29:30.192,-0.063,-0.002,0.999
2026/05/14 10:29:30.211,-0.061,0.004,1.0
2026/05/14 10:29:30.230,-0.062,0.002,0.997
2026/05/14 10:29:30.249,-0.064,0.003,0.997
2026/05/14 10:29:30.268,-0.059,0.001,0.999
2026/05/14 10:29:30.287,-0.059,0.0,1.001
2026/05/14 10:29:30.306,-0.061,0.004,1.001
2026/05/14 10:29:30.325,-0.058,0.005,0.993
2026/05/14 10:29:30.344,-0.06,0.004,0.997
2026/05/14 10:29:30.363,-0.06,0.007,0.999
2026/05/14 10:29:30.382,-0.06,0.003,0.994
2026/05/14 10:29:30.401,-0.061,0.002,1.002
2026/05/14 10:29:30.421,-0.06,0.006,0.994
2026/05/14 10:29:30.440,-0.063,0.005,0.996
2026/05/14 10:29:30.459,-0.054,0.001,0.999
2026/05/14 10:29:30.478,-0.061,0.005,0.993
2026/05/14 10:29:30.497,-0.061,0.003,0.992
2026/05/14 10:29:30.516,-0.061,0.002,0.996
2026/05/14 10:29:30.535,-0.064,-0.002,0.995
2026/05/14 10:29:30.554,-0.062,0.001,0.995
2026/05/14 10:29:30.573,-0.058,0.004,0.997
2026/05/14 10:29:30.592,-0.06,0.003,1.004
2026/05/14 10:29:30.611,-0.062,0.002,0.995
2026/05/14 10:29:30.630,-0.062,0.006,0.997
2026/05/14 10:29:30.650,-0.061,0.002,0.997
2026/05/14 10:29:30.669,-0.061,0.001,0.994
2026/05/14 10:29:30.688,-0.058,0.005,0.995
2026/05/14 10:29:30.707,-0.059,0.005,1.0
2026/05/14 10:29:30.726,-0.063,0.003,1.0
2026/05/14 10:29:30.745,-0.059,0.002,0.997
2026/05/14 10:29:30.764,-0.056,0.005,0.999
2026/05/14 10:29:30.783,-0.06,0.004,0.994
2026/05/14 10:29:30.802,-0.062,0.002,0.994
2026/05/14 10:29:30.821,-0.062,0.003,0.996
2026/05/14 10:29:30.840,-0.061,0.0,0.996
2026/05/14 10:29:30.859,-0.059,0.003,0.995
2026/05/14 10:29:30.878,-0.06,0.004,0.996
2026/05/14 10:29:30.898,-0.062,0.006,0.996
2026/05/14 10:29:30.917,-0.061,0.002,0.998
2026/05/14 10:29:30.936,-0.057,0.002,0.991
2026/05/14 10:29:30.955,-0.061,0.005,0.994
2026/05/14 10:29:30.974,-0.059,0.003,0.999
2026/05/14 10:29:30.993,-0.064,0.002,0.995
2026/05/14 10:29:31.012,-0.06,0.002,0.997
2026/05/14 10:29:31.031,-0.059,-0.001,0.994
2026/05/14 10:29:31.050,-0.061,0.0,0.995
2026/05/14 10:29:31.069,-0.061,0.004,0.995
2026/05/14 10:29:31.088,-0.059,0.006,0.996
2026/05/14 10:29:31.107,-0.059,0.002,0.996
2026/05/14 10:29:31.127,-0.059,-0.002,0.994
2026/05/14 10:29:31.146,-0.061,0.002,0.996
2026/05/14 10:29:31.165,-0.06,0.005,0.996
2026/05/14 10:29:31.184,-0.061,0.005,0.996
2026/05/14 10:29:31.203,-0.06,0.004,0.996
2026/05/14 10:29:31.222,-0.061,0.002,0.993
2026/05/14 10:29:31.241,-0.06,0.005,1.0
2026/05/14 10:29:31.260,-0.064,0.0,1.0
2026/05/14 10:29:31.279,-0.061,-0.001,0.996
2026/05/14 10:29:31.298,-0.061,0.002,0.996
2026/05/14 10:29:31.317,-0.061,-0.002,0.994
2026/05/14 10:29:31.336,-0.06,0.004,0.996
2026/05/14 10:29:31.355,-0.057,0.007,1.0
2026/05/14 10:29:31.375,-0.061,0.003,0.994
2026/05/14 10:29:31.394,-0.056,0.005,0.994
2026/05/14 10:29:31.413,-0.06,0.001,0.999
2026/05/14 10:29:31.432,-0.06,0.005,0.999
2026/05/14 10:29:31.451,-0.06,0.005,0.994
2026/05/14 10:29:31.470,-0.058,0.0,0.996
2026/05/14 10:29:31.489,-0.059,0.003,0.996
2026/05/14 10:29:31.508,-0.061,0.006,0.995
2026/05/14 10:29:31.527,-0.062,0.004,0.996
2026/05/14 10:29:31.546,-0.06,0.004,0.996
2026/05/14 10:29:31.565,-0.059,0.0,0.997
2026/05/14 10:29:31.584,-0.062,0.005,0.997
2026/05/14 10:29:31.604,-0.063,0.002,1.0
2026/05/14 10:29:31.623,-0.062,0.004,0.996
2026/05/14 10:29:31.642,-0.061,0.006,0.994
2026/05/14 10:29:31.661,-0.061,0.003,0.998
2026/05/14 10:29:31.680,-0.063,0.004,0.996
2026/05/14 10:29:31.699,-0.065,0.0,0.995
2026/05/14 10:29:31.718,-0.059,0.0,0.997
2026/05/14 10:29:31.737,-0.064,0.005,0.999
2026/05/14 10:29:31.756,-0.062,0.002,0.998
2026/05/14 10:29:31.775,-0.062,-0.001,0.995
2026/05/14 10:29:31.794,-0.065,0.004,0.999
2026/05/14 10:29:31.813,-0.059,0.003,0.994
2026/05/14 10:29:31.832,-0.061,0.003,0.995
2026/05/14 10:29:31.852,-0.059,0.003,0.998
2026/05/14 10:29:31.871,-0.06,0.001,1.002
2026/05/14 10:29:31.890,-0.061,0.005,0.994
2026/05/14 10:29:31.909,-0.061,0.003,0.999
2026/05/14 10:29:31.928,-0.062,0.001,0.994
2026/05/14 10:29:31.947,-0.06,0.002,1.0
2026/05/14 10:29:31.966,-0.062,0.005,1.0
2026/05/14 10:29:31.985,-0.061,0.001,0.999
2026/05/14 10:29:32.004,-0.061,0.002,0.995
2026/05/14 10:29:32.023,-0.059,0.003,0.994
2026/05/14 10:29:32.042,-0.061,0.004,0.996
2026/05/14 10:29:32.061,-0.062,0.001,0.994
2026/05/14 10:29:32.081,-0.059,0.006,0.997
2026/05/14 10:29:32.100,-0.061,-0.003,0.996
2026/05/14 10:29:32.119,-0.062,0.003,0.995
2026/05/14 10:29:32.138,-0.061,-0.003,0.998
2026/05/14 10:29:32.157,-0.061,0.003,0.995
2026/05/14 10:29:32.176,-0.058,0.004,0.998
2026/05/14 10:29:32.195,-0.063,0.004,0.998
2026/05/14 10:29:32.214,-0.064,0.002,0.995
2026/05/14 10:29:32.233,-0.061,0.0,0.998
2026/05/14 10:29:32.252,-0.062,-0.001,0.992
2026/05/14 10:29:32.271,-0.062,0.005,0.995
2026/05/14 10:29:32.290,-0.057,0.005,0.991
2026/05/14 10:29:32.309,-0.064,0.001,0.995
2026/05/14 10:29:32.329,-0.061,0.004,0.998
2026/05/14 10:29:32.348,-0.061,0.001,0.997
2026/05/14 10:29:32.367,-0.063,0.008,1.0
2026/05/14 10:29:32.386,-0.058,0.001,0.996
2026/05/14 10:29:32.405,-0.062,0.002,0.992
2026/05/14 10:29:32.424,-0.062,0.006,0.994
2026/05/14 10:29:32.443,-0.059,0.002,0.998
2026/05/14 10:29:32.462,-0.059,-0.006,0.994
2026/05/14 10:29:32.481,-0.057,0.0,1.003
2026/05/14 10:29:32.500,-0.058,0.003,0.997
2026/05/14 10:29:32.519,-0.063,0.0,0.996
2026/05/14 10:29:32.538,-0.059,0.001,0.99
2026/05/14 10:29:32.558,-0.065,0.003,0.998
2026/05/14 10:29:32.577,-0.058,0.007,1.001
2026/05/14 10:29:32.596,-0.06,0.0,0.995
2026/05/14 10:29:32.615,-0.061,0.004,1.003
2026/05/14 10:29:32.634,-0.061,0.001,1.001
2026/05/14 10:29:32.653,-0.061,0.003,0.997
2026/05/14 10:29:32.672,-0.061,0.002,0.997
2026/05/14 10:29:32.691,-0.064,0.0,0.995
2026/05/14 10:29:32.710,-0.063,0.001,0.998
2026/05/14 10:29:32.729,-0.06,0.003,0.997
2026/05/14 10:29:32.748,-0.059,0.002,0.996
2026/05/14 10:29:32.767,-0.058,0.003,0.999
2026/05/14 10:29:32.787,-0.059,0.001,0.998
2026/05/14 10:29:32.806,-0.059,0.003,0.993
2026/05/14 10:29:32.825,-0.059,0.005,0.994
2026/05/14 10:29:32.844,-0.058,0.001,0.996
2026/05/14 10:29:32.863,-0.062,0.0,0.997
2026/05/14 10:29:32.882,-0.061,0.004,0.997
2026/05/14 10:29:32.901,-0.059,0.003,0.998
2026/05/14 10:29:32.920,-0.059,0.002,0.997
2026/05/14 10:29:32.939,-0.06,0.003,0.996
2026/05/14 10:29:32.958,-0.058,0.004,0.992
2026/05/14 10:29:32.977,-0.06,0.004,0.998
2026/05/14 10:29:32.996,-0.059,0.002,0.994
2026/05/14 10:29:33.015,-0.062,-0.001,0.995
2026/05/14 10:29:33.035,-0.06,0.001,0.996
2026/05/14 10:29:33.054,-0.06,0.005,0.994
2026/05/14 10:29:33.073,-0.058,0.002,0.998
2026/05/14 10:29:33.092,-0.062,0.002,0.997
2026/05/14 10:29:33.111,-0.06,0.002,0.995
2026/05/14 10:29:33.130,-0.058,0.005,0.995
2026/05/14 10:29:33.149,-0.058,0.002,0.997
2026/05/14 10:29:33.168,-0.061,-0.001,0.995
2026/05/14 10:29:33.187,-0.065,0.003,0.998
2026/05/14 10:29:33.206,-0.062,0.002,0.997
2026/05/14 10:29:33.225,-0.062,0.003,0.996
2026/05/14 10:29:33.244,-0.062,0.005,0.999
2026/05/14 10:29:33.264,-0.06,0.004,0.996
2026/05/14 10:29:33.283,-0.059,0.001,0.997
2026/05/14 10:29:33.302,-0.06,0.002,1.0
2026/05/14 10:29:33.321,-0.063,0.002,0.999
2026/05/14 10:29:33.340,-0.057,0.0,0.996
2026/05/14 10:29:33.359,-0.059,0.001,1.001
2026/05/14 10:29:33.378,-0.065,0.005,1.0
2026/05/14 10:29:33.397,-0.062,0.001,1.0
2026/05/14 10:29:33.416,-0.065,0.002,0.995
2026/05/14 10:29:33.435,-0.059,0.004,1.0
2026/05/14 10:29:33.454,-0.066,0.002,0.995
2026/05/14 10:29:33.473,-0.06,0.002,0.996
2026/05/14 10:29:33.492,-0.063,0.006,0.998
2026/05/14 10:29:33.512,-0.061,0.003,0.996
2026/05/14 10:29:33.531,-0.061,0.004,0.993
2026/05/14 10:29:33.550,-0.06,-0.001,0.995
2026/05/14 10:29:33.569,-0.064,0.005,0.994
2026/05/14 10:29:33.588,-0.057,0.003,0.996
2026/05/14 10:29:33.607,-0.06,0.001,0.997
2026/05/14 10:29:33.626,-0.062,0.0,0.995
2026/05/14 10:29:33.645,-0.058,-0.001,0.999
2026/05/14 10:29:33.664,-0.063,-0.002,0.995
2026/05/14 10:29:33.683,-0.064,0.0,0.998
2026/05/14 10:29:33.702,-0.063,0.004,0.996
2026/05/14 10:29:33.721,-0.061,0.005,0.997
2026/05/14 10:29:33.741,-0.058,0.006,0.997
2026/05/14 10:29:33.760,-0.059,0.003,0.997
2026/05/14 10:29:33.779,-0.062,0.003,0.998
2026/05/14 10:29:33.798,-0.061,0.002,0.997
2026/05/14 10:29:33.817,-0.061,0.004,0.997
2026/05/14 10:29:33.836,-0.061,0.008,0.998
2026/05/14 10:29:33.855,-0.063,0.007,0.997
2026/05/14 10:29:33.874,-0.062,0.002,0.996
2026/05/14 10:29:33.893,-0.062,0.002,0.994
2026/05/14 10:29:33.912,-0.062,0.003,0.996
2026/05/14 10:29:33.931,-0.061,0.004,0.999
2026/05/14 10:29:33.950,-0.062,0.003,0.994
2026/05/14 10:29:33.969,-0.058,0.004,0.998
2026/05/14 10:29:33.989,-0.062,0.002,0.993
2026/05/14 10:29:34.008,-0.06,0.001,1.0
2026/05/14 10:29:34.027,-0.063,0.001,1.0
2026/05/14 10:29:34.046,-0.06,0.004,0.989
2026/05/14 10:29:34.065,-0.061,-0.002,0.986
2026/05/14 10:29:34.084,-0.06,0.004,0.994
2026/05/14 10:29:34.103,-0.06,0.003,0.996
2026/05/14 10:29:34.122,-0.06,0.003,0.995
2026/05/14 10:29:34.141,-0.063,0.007,0.998
2026/05/14 10:29:34.160,-0.061,0.0,0.996
2026/05/14 10:29:34.179,-0.059,0.002,0.996
2026/05/14 10:29:34.198,-0.063,0.004,0.99
2026/05/14 10:29:34.218,-0.062,0.006,0.996
2026/05/14 10:29:34.237,-0.061,0.004,0.994
2026/05/14 10:29:34.256,-0.061,0.002,0.998
2026/05/14 10:29:34.275,-0.06,0.0,0.992
2026/05/14 10:29:34.294,-0.064,0.0,0.994
2026/05/14 10:29:34.313,-0.064,0.001,0.995
2026/05/14 10:29:34.332,-0.06,0.001,0.998
2026/05/14 10:29:34.351,-0.063,0.005,0.997
2026/05/14 10:29:34.370,-0.062,0.002,0.996
2026/05/14 10:29:34.389,-0.063,0.002,0.998
2026/05/14 10:29:34.408,-0.059,0.004,0.994
2026/05/14 10:29:34.427,-0.061,0.005,0.998
2026/05/14 10:29:34.446,-0.061,0.006,0.995
2026/05/14 10:29:34.466,-0.06,0.003,0.998
2026/05/14 10:29:34.485,-0.059,0.003,0.996
2026/05/14 10:29:34.504,-0.063,0.005,0.994
2026/05/14 10:29:34.523,-0.061,0.002,1.0
2026/05/14 10:29:34.542,-0.057,0.0,0.996
2026/05/14 10:29:34.561,-0.06,0.004,0.996
2026/05/14 10:29:34.580,-0.062,0.001,0.999
2026/05/14 10:29:34.599,-0.061,0.002,0.998
2026/05/14 10:29:34.618,-0.063,0.005,0.996
2026/05/14 10:29:34.637,-0.061,0.0,0.996
2026/05/14 10:29:34.656,-0.063,0.002,0.995
2026/05/14 10:29:34.675,-0.058,0.001,0.996
2026/05/14 10:29:34.695,-0.059,0.003,0.995
2026/05/14 10:29:34.714,-0.062,0.004,0.998
2026/05/14 10:29:34.733,-0.062,0.004,0.997
2026/05/14 10:29:34.752,-0.063,0.002,0.997
2026/05/14 10:29:34.771,-0.059,0.004,0.996
2026/05/14 10:29:34.790,-0.055,0.001,0.998
2026/05/14 10:29:34.809,-0.061,0.003,1.001
2026/05/14 10:29:34.828,-0.064,-0.002,0.993
2026/05/14 10:29:34.847,-0.063,0.0,0.997
2026/05/14 10:29:34.866,-0.058,0.0,0.995
2026/05/14 10:29:34.885,-0.064,0.003,0.998
2026/05/14 10:29:34.904,-0.062,0.004,1.0
2026/05/14 10:29:34.924,-0.063,0.004,0.999
2026/05/14 10:29:34.943,-0.061,0.0,0.999
2026/05/14 10:29:34.962,-0.062,0.002,0.995
2026/05/14 10:29:34.981,-0.064,0.003,0.999
2026/05/14 10:29:35.000,-0.064,0.0,0.997
2026/05/14 10:29:35.019,-0.062,0.003,0.998
2026/05/14 10:29:35.038,-0.06,0.004,0.998
2026/05/14 10:29:35.057,-0.061,0.0,1.0
2026/05/14 10:29:35.076,-0.061,0.001,0.998
2026/05/14 10:29:35.095,-0.062,0.004,0.996
2026/05/14 10:29:35.114,-0.06,0.004,0.995
2026/05/14 10:29:35.133,-0.062,0.003,0.997
2026/05/14 10:29:35.152,-0.063,0.003,0.995
2026/05/14 10:29:35.172,-0.064,0.0,0.992
2026/05/14 10:29:35.191,-0.061,0.004,0.996
2026/05/14 10:29:35.210,-0.063,0.002,0.994
2026/05/14 10:29:35.229,-0.058,0.003,0.997
2026/05/14 10:29:35.248,-0.059,0.003,0.997
2026/05/14 10:29:35.267,-0.062,0.0,1.0
2026/05/14 10:29:35.286,-0.058,0.003,0.998
2026/05/14 10:29:35.305,-0.061,0.0,0.996
2026/05/14 10:29:35.324,-0.062,0.001,0.997
2026/05/14 10:29:35.343,-0.062,0.001,0.997
2026/05/14 10:29:35.362,-0.065,0.002,0.996
2026/05/14 10:29:35.381,-0.059,0.002,0.995
2026/05/14 10:29:35.401,-0.059,0.005,0.994
2026/05/14 10:29:35.420,-0.06,0.001,1.0
2026/05/14 10:29:35.439,-0.06,0.001,0.999
2026/05/14 10:29:35.458,-0.06,0.003,0.996
2026/05/14 10:29:35.477,-0.059,0.006,0.998
2026/05/14 10:29:35.496,-0.059,-0.001,0.993
2026/05/14 10:29:35.515,-0.061,0.004,1.001
2026/05/14 10:29:35.534,-0.063,0.002,0.993
2026/05/14 10:29:35.553,-0.066,0.006,0.996
2026/05/14 10:29:35.572,-0.061,0.003,0.995
2026/05/14 10:29:35.591,-0.061,-0.001,1.001
2026/05/14 10:29:35.610,-0.061,0.0,0.994
2026/05/14 10:29:35.629,-0.06,0.003,0.989
2026/05/14 10:29:35.649,-0.059,0.002,0.997
2026/05/14 10:29:35.668,-0.059,0.003,1.0
2026/05/14 10:29:35.687,-0.061,0.004,0.998
2026/05/14 10:29:35.706,-0.062,0.002,0.999
2026/05/14 10:29:35.725,-0.06,-0.001,0.999
2026/05/14 10:29:35.744,-0.059,0.003,0.992
2026/05/14 10:29:35.763,-0.062,0.004,0.986
2026/05/14 10:29:35.782,-0.063,0.003,0.993
2026/05/14 10:29:35.801,-0.061,0.003,0.987
2026/05/14 10:29:35.820,-0.061,0.004,1.003
2026/05/14 10:29:35.839,-0.059,0.003,0.991
2026/05/14 10:29:35.858,-0.062,0.0,0.998
2026/05/14 10:29:35.878,-0.059,0.002,0.996
2026/05/14 10:29:35.897,-0.062,0.004,0.994
2026/05/14 10:29:35.916,-0.064,0.001,0.996
2026/05/14 10:29:35.935,-0.065,0.004,0.992
2026/05/14 10:29:35.954,-0.062,0.001,0.997
2026/05/14 10:29:35.973,-0.059,0.004,0.999
2026/05/14 10:29:35.992,-0.062,0.005,0.994
2026/05/14 10:29:36.011,-0.064,0.0,0.998
2026/05/14 10:29:36.030,-0.062,0.004,0.995
2026/05/14 10:29:36.049,-0.063,0.005,0.999
2026/05/14 10:29:36.068,-0.06,0.004,0.994
2026/05/14 10:29:36.087,-0.06,0.007,0.998
2026/05/14 10:29:36.106,-0.063,0.006,0.997
2026/05/14 10:29:36.126,-0.061,0.003,0.996
2026/05/14 10:29:36.145,-0.063,0.004,0.995
2026/05/14 10:29:36.164,-0.06,0.002,0.995
2026/05/14 10:29:36.183,-0.061,0.003,0.997
2026/05/14 10:29:36.202,-0.059,0.0,0.997
2026/05/14 10:29:36.221,-0.061,0.001,0.998
2026/05/14 10:29:36.240,-0.063,0.0,0.998
2026/05/14 10:29:36.259,-0.059,0.005,0.997
2026/05/14 10:29:36.278,-0.054,0.004,0.99
2026/05/14 10:29:36.297,-0.059,0.001,0.989
2026/05/14 10:29:36.316,-0.059,0.001,0.999
2026/05/14 10:29:36.335,-0.063,0.0,1.0
2026/05/14 10:29:36.355,-0.06,0.006,0.992
2026/05/14 10:29:36.374,-0.064,0.003,0.998
2026/05/14 10:29:36.393,-0.063,0.004,0.999
2026/05/14 10:29:36.412,-0.061,0.001,0.997
2026/05/14 10:29:36.431,-0.061,0.007,0.999
2026/05/14 10:29:36.450,-0.061,0.005,0.997
2026/05/14 10:29:36.469,-0.063,0.003,0.993
2026/05/14 10:29:36.488,-0.065,0.0,0.998
2026/05/14 10:29:36.507,-0.064,0.002,0.999
2026/05/14 10:29:36.526,-0.062,-0.002,0.995
2026/05/14 10:29:36.545,-0.064,0.004,0.992
2026/05/14 10:29:36.564,-0.068,0.003,0.999
2026/05/14 10:29:36.583,-0.059,0.002,0.993
2026/05/14 10:29:36.603,-0.061,0.005,0.995
2026/05/14 10:29:36.622,-0.063,0.003,0.994
2026/05/14 10:29:36.641,-0.062,0.007,0.997
2026/05/14 10:29:36.660,-0.059,0.001,0.997
2026/05/14 10:29:36.679,-0.059,0.003,0.999
2026/05/14 10:29:36.698,-0.056,0.002,1.0
2026/05/14 10:29:36.717,-0.056,0.003,0.995
2026/05/14 10:29:36.736,-0.062,-0.001,0.997
2026/05/14 10:29:36.755,-0.065,0.002,0.996
2026/05/14 10:29:36.774,-0.063,0.009,0.998
2026/05/14 10:29:36.793,-0.063,0.002,0.993
2026/05/14 10:29:36.812,-0.059,0.001,1.01
2026/05/14 10:29:36.832,-0.062,-0.003,0.994
2026/05/14 10:29:36.851,-0.062,0.003,1.0
2026/05/14 10:29:36.870,-0.063,0.001,0.999
2026/05/14 10:29:36.889,-0.059,0.002,0.999
2026/05/14 10:29:36.908,-0.061,-0.001,0.992
2026/05/14 10:29:36.927,-0.062,0.002,0.994
2026/05/14 10:29:36.946,-0.057,0.001,0.997
2026/05/14 10:29:36.965,-0.059,0.0,0.995
2026/05/14 10:29:36.984,-0.064,0.005,1.0
2026/05/14 10:29:37.003,-0.06,0.006,1.002
2026/05/14 10:29:37.022,-0.059,0.006,0.999
2026/05/14 10:29:37.041,-0.059,0.003,1.0
2026/05/14 10:29:37.060,-0.061,0.006,0.99
2026/05/14 10:29:37.080,-0.059,0.003,0.998
2026/05/14 10:29:37.099,-0.066,0.003,0.994
2026/05/14 10:29:37.118,-0.065,-0.002,0.997
2026/05/14 10:29:37.137,-0.067,-0.002,0.998
2026/05/14 10:29:37.156,-0.065,0.001,0.994
2026/05/14 10:29:37.175,-0.065,-0.003,0.996
2026/05/14 10:29:37.194,-0.066,-0.002,0.997
2026/05/14 10:29:37.213,-0.065,0.002,0.993
2026/05/14 10:29:37.232,-0.065,0.0,1.001
2026/05/14 10:29:37.251,-0.065,0.0,0.996
2026/05/14 10:29:37.270,-0.062,0.002,0.995
2026/05/14 10:29:37.289,-0.061,0.0,0.995
2026/05/14 10:29:37.308,-0.058,0.0,0.994
2026/05/14 10:29:37.328,-0.054,0.004,0.996
2026/05/14 10:29:37.347,-0.055,0.006,0.999
2026/05/14 10:29:37.366,-0.053,0.008,0.998
2026/05/14 10:29:37.385,-0.058,0.005,0.998
2026/05/14 10:29:37.404,-0.063,0.005,0.996
2026/05/14 10:29:37.423,-0.064,0.003,0.998
2026/05/14 10:29:37.442,-0.064,0.0,1.0
2026/05/14 10:29:37.461,-0.061,0.001,0.995
2026/05/14 10:29:37.480,-0.062,0.002,0.99
2026/05/14 10:29:37.499,-0.06,0.002,0.994
2026/05/14 10:29:37.518,-0.058,0.002,0.998
2026/05/14 10:29:37.537,-0.059,0.004,0.999
2026/05/14 10:29:37.557,-0.057,0.007,0.994
2026/05/14 10:29:37.576,-0.063,0.006,0.993
2026/05/14 10:29:37.595,-0.064,0.001,0.999
2026/05/14 10:29:37.614,-0.067,0.005,0.99
2026/05/14 10:29:37.633,-0.066,0.003,0.995
2026/05/14 10:29:37.652,-0.064,-0.003,0.994
2026/05/14 10:29:37.671,-0.064,0.0,0.995
2026/05/14 10:29:37.690,-0.062,0.0,0.995
2026/05/14 10:29:37.709,-0.064,-0.003,1.001
2026/05/14 10:29:37.728,-0.058,-0.002,0.996
2026/05/14 10:29:37.747,-0.056,0.004,0.999
2026/05/14 10:29:37.766,-0.057,0.013,1.001
2026/05/14 10:29:37.785,-0.051,0.013,0.994
2026/05/14 10:29:37.805,-0.057,0.015,0.996
2026/05/14 10:29:37.824,-0.057,0.008,0.997
2026/05/14 10:29:37.843,-0.061,0.0,0.998
2026/05/14 10:29:37.862,-0.064,-0.009,1.0
2026/05/14 10:29:37.881,-0.067,-0.008,0.992
2026/05/14 10:29:37.900,-0.067,-0.001,0.999
2026/05/14 10:29:37.919,-0.065,0.005,0.998
2026/05/14 10:29:37.938,-0.06,0.009,0.997
2026/05/14 10:29:37.957,-0.057,0.014,0.997
2026/05/14 10:29:37.976,-0.054,0.006,0.995
2026/05/14 10:29:37.995,-0.05,0.004,0.997
2026/05/14 10:29:38.014,-0.047,0.005,0.995
2026/05/14 10:29:38.034,-0.049,0.006,0.997
2026/05/14 10:29:38.053,-0.057,0.009,1.0
2026/05/14 10:29:38.072,-0.065,0.005,0.99
2026/05/14 10:29:38.091,-0.076,-0.001,1.001
2026/05/14 10:29:38.110,-0.081,-0.006,0.992
2026/05/14 10:29:38.129,-0.078,-0.008,0.99
2026/05/14 10:29:38.148,-0.074,-0.01,1.004
2026/05/14 10:29:38.167,-0.064,-0.008,0.995
2026/05/14 10:29:38.186,-0.062,0.001,1.008
2026/05/14 10:29:38.205,-0.051,0.01,0.994
2026/05/14 10:29:38.224,-0.047,0.02,0.999
2026/05/14 10:29:38.243,-0.046,0.017,0.992
2026/05/14 10:29:38.262,-0.048,0.013,0.994
2026/05/14 10:29:38.282,-0.053,0.006,1.001
2026/05/14 10:29:38.301,-0.06,-0.004,1.008
2026/05/14 10:29:38.320,-0.061,-0.008,0.999
2026/05/14 10:29:38.339,-0.069,-0.004,0.995
2026/05/14 10:29:38.358,-0.07,-0.001,0.999
2026/05/14 10:29:38.377,-0.068,0.004,0.994
2026/05/14 10:29:38.396,-0.062,0.004,1.004
2026/05/14 10:29:38.415,-0.064,0.008,1.003
2026/05/14 10:29:38.434,-0.057,0.007,1.005
2026/05/14 10:29:38.453,-0.056,0.01,0.993
2026/05/14 10:29:38.472,-0.052,0.012,0.988
2026/05/14 10:29:38.491,-0.054,0.005,0.996
2026/05/14 10:29:38.511,-0.055,0.003,1.001
2026/05/14 10:29:38.530,-0.064,0.003,1.003
2026/05/14 10:29:38.549,-0.07,0.0,0.995
2026/05/14 10:29:38.568,-0.067,0.0,0.991
2026/05/14 10:29:38.587,-0.068,-0.001,1.002
2026/05/14 10:29:38.606,-0.054,-0.001,1.003
2026/05/14 10:29:38.625,-0.051,0.003,0.989
2026/05/14 10:29:38.644,-0.052,0.005,1.011
2026/05/14 10:29:38.663,-0.064,0.004,1.029
2026/05/14 10:29:38.682,-0.067,0.007,1.004
2026/05/14 10:29:38.701,-0.063,0.003,1.001
2026/05/14 10:29:38.720,-0.063,0.005,0.994
2026/05/14 10:29:38.739,-0.05,0.0,0.986
2026/05/14 10:29:38.759,-0.048,0.002,0.992
2026/05/14 10:29:38.778,-0.055,0.003,1.019
2026/05/14 10:29:38.797,-0.062,0.012,0.99
2026/05/14 10:29:38.816,-0.068,0.02,1.001
2026/05/14 10:29:38.835,-0.084,0.021,0.998
2026/05/14 10:29:38.854,-0.075,0.006,0.994
2026/05/14 10:29:38.873,-0.066,-0.004,0.986
2026/05/14 10:29:38.892,-0.053,-0.01,0.99
2026/05/14 10:29:38.911,-0.048,-0.013,0.996
2026/05/14 10:29:38.930,-0.045,-0.013,0.986
2026/05/14 10:29:38.949,-0.053,-0.004,0.993
2026/05/14 10:29:38.968,-0.065,-0.001,0.981
2026/05/14 10:29:38.988,-0.072,0.006,1.01
2026/05/14 10:29:39.007,-0.079,0.011,0.998
2026/05/14 10:29:39.026,-0.07,0.015,0.963
2026/05/14 10:29:39.045,-0.054,0.018,0.975
2026/05/14 10:29:39.064,-0.054,0.01,0.994
2026/05/14 10:29:39.083,-0.047,0.003,0.987
2026/05/14 10:29:39.102,-0.048,-0.007,0.992
2026/05/14 10:29:39.121,-0.052,-0.007,0.996
2026/05/14 10:29:39.140,-0.061,-0.006,0.989
2026/05/14 10:29:39.159,-0.066,0.003,0.995
2026/05/14 10:29:39.178,-0.073,0.009,0.997
2026/05/14 10:29:39.197,-0.071,0.007,0.996
2026/05/14 10:29:39.217,-0.074,0.004,1.0
2026/05/14 10:29:39.236,-0.066,0.0,0.973
2026/05/14 10:29:39.255,-0.06,-0.005,0.986
2026/05/14 10:29:39.274,-0.052,-0.003,0.983
2026/05/14 10:29:39.293,-0.052,0.0,0.99
2026/05/14 10:29:39.312,-0.052,0.0,0.997
2026/05/14 10:29:39.331,-0.059,0.004,0.996
2026/05/14 10:29:39.350,-0.061,0.005,0.996
2026/05/14 10:29:39.369,-0.064,0.01,0.97
2026/05/14 10:29:39.388,-0.069,0.007,1.009
2026/05/14 10:29:39.407,-0.062,0.007,0.99
2026/05/14 10:29:39.426,-0.056,0.007,0.997
2026/05/14 10:29:39.445,-0.055,0.003,1.019
2026/05/14 10:29:39.465,-0.054,-0.003,0.995
2026/05/14 10:29:39.484,-0.055,-0.004,0.996
2026/05/14 10:29:39.503,-0.063,-0.003,0.987
2026/05/14 10:29:39.522,-0.064,0.006,0.999
2026/05/14 10:29:39.541,-0.07,0.002,1.001
2026/05/14 10:29:39.560,-0.068,0.005,0.995
2026/05/14 10:29:39.579,-0.07,0.005,0.998
2026/05/14 10:29:39.598,-0.064,0.004,0.996
2026/05/14 10:29:39.617,-0.059,0.0,0.996
2026/05/14 10:29:39.636,-0.058,0.001,1.004
2026/05/14 10:29:39.655,-0.053,0.004,0.997
2026/05/14 10:29:39.674,-0.051,0.001,0.995
2026/05/14 10:29:39.694,-0.056,0.003,0.992
2026/05/14 10:29:39.713,-0.063,0.008,0.997
2026/05/14 10:29:39.732,-0.067,0.009,1.009
2026/05/14 10:29:39.751,-0.062,0.009,0.979
2026/05/14 10:29:39.770,-0.061,0.005,0.99
2026/05/14 10:29:39.789,-0.065,0.005,1.006
2026/05/14 10:29:39.808,-0.059,0.004,1.004
2026/05/14 10:29:39.827,-0.059,-0.005,1.001
2026/05/14 10:29:39.846,-0.058,-0.001,0.991
2026/05/14 10:29:39.865,-0.06,-0.006,0.995
2026/05/14 10:29:39.884,-0.065,0.001,0.998
2026/05/14 10:29:39.903,-0.066,0.008,0.995
2026/05/14 10:29:39.923,-0.069,0.006,0.999
2026/05/14 10:29:39.942,-0.062,0.007,0.998
2026/05/14 10:29:39.961,-0.061,0.002,0.998
2026/05/14 10:29:39.980,-0.059,0.004,0.995
2026/05/14 10:29:39.999,-0.056,0.0,0.994
2026/05/14 10:29:40.018,-0.055,0.002,0.994
2026/05/14 10:29:40.037,-0.058,0.001,0.995
2026/05/14 10:29:40.056,-0.058,0.007,0.993
2026/05/14 10:29:40.075,-0.062,0.0,0.995
2026/05/14 10:29:40.094,-0.064,0.008,0.999
2026/05/14 10:29:40.113,-0.062,0.004,1.0
2026/05/14 10:29:40.132,-0.063,0.002,0.995
2026/05/14 10:29:40.152,-0.061,-0.002,0.992
2026/05/14 10:29:40.171,-0.06,-0.004,0.997
2026/05/14 10:29:40.190,-0.063,0.0,0.996
2026/05/14 10:29:40.209,-0.06,0.0,0.996
2026/05/14 10:29:40.228,-0.064,0.001,0.996
2026/05/14 10:29:40.247,-0.062,0.002,1.0
2026/05/14 10:29:40.266,-0.063,0.008,1.0
2026/05/14 10:29:40.285,-0.059,0.005,0.996
2026/05/14 10:29:40.304,-0.058,0.004,0.994
2026/05/14 10:29:40.323,-0.059,0.009,0.995
2026/05/14 10:29:40.342,-0.061,0.002,1.001
2026/05/14 10:29:40.361,-0.059,0.0,0.995
2026/05/14 10:29:40.380,-0.059,0.0,0.997
2026/05/14 10:29:40.400,-0.059,0.002,1.0
2026/05/14 10:29:40.419,-0.06,0.005,0.998
2026/05/14 10:29:40.438,-0.065,0.004,0.996
2026/05/14 10:29:40.457,-0.068,-0.003,1.003
2026/05/14 10:29:40.476,-0.064,0.0,0.998
2026/05/14 10:29:40.495,-0.064,0.005,0.995
2026/05/14 10:29:40.514,-0.063,0.0,1.004
2026/05/14 10:29:40.533,-0.059,0.001,0.993
2026/05/14 10:29:40.552,-0.056,0.0,0.994
2026/05/14 10:29:40.571,-0.057,0.002,1.004
2026/05/14 10:29:40.590,-0.058,0.003,0.998
2026/05/14 10:29:40.609,-0.065,0.006,0.997
2026/05/14 10:29:40.628,-0.062,0.006,1.003
2026/05/14 10:29:40.648,-0.062,0.002,0.994
2026/05/14 10:29:40.667,-0.064,0.003,0.996
2026/05/14 10:29:40.686,-0.057,0.005,1.004
2026/05/14 10:29:40.705,-0.058,-0.001,1.005
2026/05/14 10:29:40.724,-0.06,-0.002,0.992
2026/05/14 10:29:40.743,-0.057,0.003,1.01
2026/05/14 10:29:40.762,-0.059,-0.003,0.98
2026/05/14 10:29:40.781,-0.062,0.002,0.991
2026/05/14 10:29:40.800,-0.062,0.004,0.996
2026/05/14 10:29:40.819,-0.066,0.003,0.996
2026/05/14 10:29:40.838,-0.064,0.008,1.005
2026/05/14 10:29:40.857,-0.061,0.007,1.016
2026/05/14 10:29:40.877,-0.056,0.006,1.031
2026/05/14 10:29:40.896,-0.057,0.009,1.032
2026/05/14 10:29:40.915,-0.059,0.003,0.999
2026/05/14 10:29:40.934,-0.062,0.004,0.987
2026/05/14 10:29:40.953,-0.058,0.004,1.002
2026/05/14 10:29:40.972,-0.063,-0.001,0.997
2026/05/14 10:29:40.991,-0.061,0.004,0.974
2026/05/14 10:29:41.010,-0.063,0.004,0.989
2026/05/14 10:29:41.029,-0.063,0.002,0.989
2026/05/14 10:29:41.048,-0.061,-0.004,0.997
2026/05/14 10:29:41.067,-0.061,0.004,0.999
2026/05/14 10:29:41.086,-0.061,-0.003,0.996
2026/05/14 10:29:41.105,-0.062,0.001,0.995
2026/05/14 10:29:41.125,-0.058,0.001,0.996
2026/05/14 10:29:41.144,-0.062,0.0,0.997
2026/05/14 10:29:41.163,-0.059,0.0,0.999
2026/05/14 10:29:41.182,-0.06,0.006,0.997
2026/05/14 10:29:41.201,-0.064,0.002,0.997
2026/05/14 10:29:41.220,-0.061,0.0,0.998
2026/05/14 10:29:41.239,-0.061,0.001,0.998
2026/05/14 10:29:41.258,-0.058,0.002,0.995
2026/05/14 10:29:41.277,-0.063,0.001,0.995
2026/05/14 10:29:41.296,-0.064,0.005,0.997
2026/05/14 10:29:41.315,-0.063,0.001,0.994
2026/05/14 10:29:41.334,-0.064,0.003,0.994
2026/05/14 10:29:41.354,-0.06,0.001,0.999
2026/05/14 10:29:41.373,-0.063,0.0,0.998
2026/05/14 10:29:41.392,-0.063,0.007,0.994
2026/05/14 10:29:41.411,-0.061,0.0,1.0
2026/05/14 10:29:41.430,-0.061,0.001,0.997
2026/05/14 10:29:41.449,-0.06,0.008,0.994
2026/05/14 10:29:41.468,-0.061,-0.001,0.996
2026/05/14 10:29:41.487,-0.059,0.0,0.996
2026/05/14 10:29:41.506,-0.06,0.005,0.996
2026/05/14 10:29:41.525,-0.062,0.002,1.0
2026/05/14 10:29:41.544,-0.06,0.004,0.995
2026/05/14 10:29:41.563,-0.062,0.003,0.998
2026/05/14 10:29:41.582,-0.059,0.001,0.996
2026/05/14 10:29:41.602,-0.061,0.001,0.995
2026/05/14 10:29:41.621,-0.06,0.005,1.0
2026/05/14 10:29:41.640,-0.059,0.004,0.998
2026/05/14 10:29:41.659,-0.063,-0.001,0.995
2026/05/14 10:29:41.678,-0.055,0.003,0.996
2026/05/14 10:29:41.697,-0.058,0.002,0.998
2026/05/14 10:29:41.716,-0.063,0.003,0.996
2026/05/14 10:29:41.735,-0.058,0.003,0.995
2026/05/14 10:29:41.754,-0.061,0.002,0.996
2026/05/14 10:29:41.773,-0.062,0.001,0.999
2026/05/14 10:29:41.792,-0.061,0.003,0.995
2026/05/14 10:29:41.811,-0.059,0.003,0.995
2026/05/14 10:29:41.830,-0.063,0.001,0.995
2026/05/14 10:29:41.850,-0.06,0.005,0.998
2026/05/14 10:29:41.869,-0.059,0.006,0.999
2026/05/14 10:29:41.888,-0.059,0.003,0.997
2026/05/14 10:29:41.907,-0.064,0.0,0.996
2026/05/14 10:29:41.926,-0.06,-0.001,0.994
2026/05/14 10:29:41.945,-0.061,0.002,0.997
2026/05/14 10:29:41.964,-0.064,-0.001,0.996
2026/05/14 10:29:41.983,-0.061,0.005,0.995
2026/05/14 10:29:42.002,-0.063,0.003,0.997
2026/05/14 10:29:42.021,-0.064,0.004,0.996
2026/05/14 10:29:42.040,-0.065,0.004,0.994
2026/05/14 10:29:42.059,-0.061,0.002,0.997
2026/05/14 10:29:42.079,-0.059,0.005,0.995
2026/05/14 10:29:42.098,-0.063,0.005,0.998
2026/05/14 10:29:42.117,-0.06,0.006,0.996
2026/05/14 10:29:42.136,-0.06,0.003,0.996
2026/05/14 10:29:42.155,-0.059,0.004,0.997
2026/05/14 10:29:42.174,-0.063,0.005,0.999
2026/05/14 10:29:42.193,-0.061,0.006,0.996
2026/05/14 10:29:42.212,-0.059,0.005,0.997
2026/05/14 10:29:42.231,-0.059,0.001,0.998
2026/05/14 10:29:42.250,-0.06,0.002,0.994
2026/05/14 10:29:42.269,-0.061,-0.002,0.996
2026/05/14 10:29:42.288,-0.062,0.001,0.991
2026/05/14 10:29:42.307,-0.063,0.003,0.996
2026/05/14 10:29:42.327,-0.061,0.001,0.998
2026/05/14 10:29:42.346,-0.059,0.0,1.0
2026/05/14 10:29:42.365,-0.061,0.003,0.998
2026/05/14 10:29:42.384,-0.06,0.002,0.997
2026/05/14 10:29:42.403,-0.06,0.005,0.996
2026/05/14 10:29:42.422,-0.059,0.003,0.997
2026/05/14 10:29:42.441,-0.054,0.004,0.996
2026/05/14 10:29:42.460,-0.06,0.002,0.994
2026/05/14 10:29:42.479,-0.061,0.004,0.999
2026/05/14 10:29:42.498,-0.064,0.002,0.995
2026/05/14 10:29:42.517,-0.063,0.003,1.0
2026/05/14 10:29:42.536,-0.063,0.001,0.997
2026/05/14 10:29:42.555,-0.059,0.002,0.997
2026/05/14 10:29:42.575,-0.063,-0.001,0.998
2026/05/14 10:29:42.594,-0.059,-0.001,0.996
2026/05/14 10:29:42.613,-0.06,0.007,0.995
2026/05/14 10:29:42.632,-0.061,0.003,0.997
2026/05/14 10:29:42.651,-0.063,0.002,0.994
2026/05/14 10:29:42.670,-0.06,0.002,0.998
2026/05/14 10:29:42.689,-0.06,0.002,0.996
2026/05/14 10:29:42.708,-0.063,0.0,0.996
2026/05/14 10:29:42.727,-0.061,0.006,0.996
2026/05/14 10:29:42.746,-0.063,0.002,0.998
2026/05/14 10:29:42.765,-0.062,0.003,0.994
2026/05/14 10:29:42.784,-0.063,-0.002,0.997
2026/05/14 10:29:42.804,-0.057,0.002,0.999
2026/05/14 10:29:42.823,-0.059,0.005,0.997
2026/05/14 10:29:42.842,-0.059,0.001,0.999
2026/05/14 10:29:42.861,-0.063,0.002,0.997
2026/05/14 10:29:42.880,-0.06,0.001,0.997
2026/05/14 10:29:42.899,-0.059,0.002,0.995
2026/05/14 10:29:42.918,-0.058,0.0,0.996
2026/05/14 10:29:42.937,-0.065,0.004,0.996
2026/05/14 10:29:42.956,-0.056,0.004,0.996
2026/05/14 10:29:42.975,-0.06,0.002,0.996
2026/05/14 10:29:42.994,-0.059,0.006,0.998
2026/05/14 10:29:43.013,-0.059,0.0,0.996
2026/05/14 10:29:43.032,-0.06,0.0,0.996
2026/05/14 10:29:43.052,-0.059,0.002,0.997
2026/05/14 10:29:43.071,-0.06,0.002,0.994
2026/05/14 10:29:43.090,-0.062,0.0,0.998
2026/05/14 10:29:43.109,-0.061,-0.001,0.994
2026/05/14 10:29:43.128,-0.062,0.005,0.997
2026/05/14 10:29:43.147,-0.06,0.009,1.001
2026/05/14 10:29:43.166,-0.061,0.002,0.995
2026/05/14 10:29:43.185,-0.061,0.004,0.997
2026/05/14 10:29:43.204,-0.062,0.002,0.995
2026/05/14 10:29:43.223,-0.062,0.003,0.991
2026/05/14 10:29:43.242,-0.061,0.004,0.996
2026/05/14 10:29:43.261,-0.06,0.001,0.994
2026/05/14 10:29:43.280,-0.06,0.004,0.993
2026/05/14 10:29:43.300,-0.063,-0.003,0.999
2026/05/14 10:29:43.319,-0.059,0.003,0.995
2026/05/14 10:29:43.338,-0.062,0.004,0.995
2026/05/14 10:29:43.357,-0.063,0.004,0.994
2026/05/14 10:29:43.376,-0.061,0.003,0.997
2026/05/14 10:29:43.395,-0.06,0.003,0.995
2026/05/14 10:29:43.414,-0.066,0.002,0.997
2026/05/14 10:29:43.433,-0.062,0.003,0.995
2026/05/14 10:29:43.452,-0.062,0.004,0.997
2026/05/14 10:29:43.471,-0.064,0.004,0.997
2026/05/14 10:29:43.490,-0.062,0.005,0.997
2026/05/14 10:29:43.509,-0.061,0.004,0.996
2026/05/14 10:29:43.529,-0.059,0.002,0.996
2026/05/14 10:29:43.548,-0.062,0.002,0.998
2026/05/14 10:29:43.567,-0.063,0.005,0.997
2026/05/14 10:29:43.586,-0.062,0.001,0.996
2026/05/14 10:29:43.605,-0.061,0.0,0.995
2026/05/14 10:29:43.624,-0.063,0.002,0.995
2026/05/14 10:29:43.643,-0.06,-0.003,0.999
2026/05/14 10:29:43.662,-0.061,0.003,1.0
2026/05/14 10:29:43.681,-0.066,0.004,0.998
2026/05/14 10:29:43.700,-0.061,0.001,0.997
2026/05/14 10:29:43.719,-0.062,0.002,0.996
2026/05/14 10:29:43.738,-0.058,0.002,0.991
2026/05/14 10:29:43.757,-0.058,0.001,0.999
2026/05/14 10:29:43.777,-0.059,0.001,0.995
2026/05/14 10:29:43.796,-0.061,0.001,0.997
2026/05/14 10:29:43.815,-0.063,0.008,0.997
2026/05/14 10:29:43.834,-0.063,0.005,0.997
2026/05/14 10:29:43.853,-0.06,0.001,0.998
2026/05/14 10:29:43.872,-0.062,0.003,0.998
2026/05/14 10:29:43.891,-0.064,0.0,0.998
2026/05/14 10:29:43.910,-0.06,0.004,0.993
2026/05/14 10:29:43.929,-0.065,0.0,0.995
2026/05/14 10:29:43.948,-0.063,0.004,0.998
2026/05/14 10:29:43.967,-0.059,0.004,0.997
2026/05/14 10:29:43.986,-0.062,0.0,0.995
2026/05/14 10:29:44.005,-0.06,0.003,0.995
2026/05/14 10:29:44.025,-0.062,0.003,0.995
2026/05/14 10:29:44.044,-0.061,0.003,0.998
2026/05/14 10:29:44.063,-0.059,0.001,0.997
2026/05/14 10:29:44.082,-0.059,0.003,0.995
2026/05/14 10:29:44.101,-0.061,0.002,0.998
2026/05/14 10:29:44.120,-0.058,0.002,0.997
2026/05/14 10:29:44.139,-0.06,0.002,0.997
2026/05/14 10:29:44.158,-0.062,-0.001,0.996
2026/05/14 10:29:44.177,-0.064,0.005,0.994
2026/05/14 10:29:44.196,-0.059,0.003,1.001
2026/05/14 10:29:44.215,-0.059,0.002,0.995
2026/05/14 10:29:44.234,-0.061,0.004,0.998
2026/05/14 10:29:44.254,-0.062,0.005,0.995
2026/05/14 10:29:44.273,-0.063,0.002,0.996
2026/05/14 10:29:44.292,-0.061,-0.001,0.995
2026/05/14 10:29:44.311,-0.062,0.005,0.996
2026/05/14 10:29:44.330,-0.06,0.002,0.995
2026/05/14 10:29:44.349,-0.063,0.003,0.996
2026/05/14 10:29:44.368,-0.063,0.004,0.998
2026/05/14 10:29:44.387,-0.06,0.002,0.998
2026/05/14 10:29:44.406,-0.063,0.003,0.999
2026/05/14 10:29:44.425,-0.059,0.001,0.994
2026/05/14 10:29:44.444,-0.059,0.003,0.997
2026/05/14 10:29:44.463,-0.058,0.003,0.999
2026/05/14 10:29:44.482,-0.062,0.004,0.999
2026/05/14 10:29:44.502,-0.06,0.003,0.995
2026/05/14 10:29:44.521,-0.06,0.003,0.995
2026/05/14 10:29:44.540,-0.06,0.008,0.997
2026/05/14 10:29:44.559,-0.059,0.001,0.995
2026/05/14 10:29:44.578,-0.06,0.007,0.999
2026/05/14 10:29:44.597,-0.064,0.004,0.994
2026/05/14 10:29:44.616,-0.062,0.0,0.996
2026/05/14 10:29:44.635,-0.065,0.004,0.997
2026/05/14 10:29:44.654,-0.061,0.001,0.994
2026/05/14 10:29:44.673,-0.064,0.004,0.997
2026/05/14 10:29:44.692,-0.063,0.007,0.996
2026/05/14 10:29:44.711,-0.062,0.0,0.993
2026/05/14 10:29:44.730,-0.061,0.006,0.999
2026/05/14 10:29:44.750,-0.062,0.004,0.997
2026/05/14 10:29:44.769,-0.063,0.002,0.996
2026/05/14 10:29:44.788,-0.062,0.001,1.0
2026/05/14 10:29:44.807,-0.063,0.002,0.997
2026/05/14 10:29:44.826,-0.062,0.002,0.993
2026/05/14 10:29:44.845,-0.06,0.0,0.998
2026/05/14 10:29:44.864,-0.061,0.003,0.999
2026/05/14 10:29:44.883,-0.06,0.002,0.997
2026/05/14 10:29:44.902,-0.062,0.005,0.996
2026/05/14 10:29:44.921,-0.06,-0.001,0.997
2026/05/14 10:29:44.940,-0.063,0.004,0.996
2026/05/14 10:29:44.959,-0.062,0.006,0.995
2026/05/14 10:29:44.979,-0.06,0.004,0.995
2026/05/14 10:29:44.998,-0.061,0.006,1.0
2026/05/14 10:29:45.017,-0.06,0.0,0.996
2026/05/14 10:29:45.036,-0.059,0.001,0.996
2026/05/14 10:29:45.055,-0.061,0.002,0.997
2026/05/14 10:29:45.074,-0.057,0.005,0.992
2026/05/14 10:29:45.093,-0.062,0.001,0.995
2026/05/14 10:29:45.112,-0.062,0.004,0.994
2026/05/14 10:29:45.131,-0.059,0.005,0.995
2026/05/14 10:29:45.150,-0.059,0.005,0.996
2026/05/14 10:29:45.169,-0.064,0.0,0.994
2026/05/14 10:29:45.188,-0.062,0.003,0.998
2026/05/14 10:29:45.207,-0.061,0.005,0.993
2026/05/14 10:29:45.227,-0.06,0.002,0.997
2026/05/14 10:29:45.246,-0.062,0.004,0.999
2026/05/14 10:29:45.265,-0.062,0.001,0.992
2026/05/14 10:29:45.284,-0.061,0.003,0.998
2026/05/14 10:29:45.303,-0.062,0.006,0.993
2026/05/14 10:29:45.322,-0.06,0.002,0.995
2026/05/14 10:29:45.341,-0.061,0.005,0.997
2026/05/14 10:29:45.360,-0.063,0.003,0.997
2026/05/14 10:29:45.379,-0.061,0.006,0.999
2026/05/14 10:29:45.398,-0.061,0.006,0.997
2026/05/14 10:29:45.417,-0.064,0.003,0.995
2026/05/14 10:29:45.436,-0.062,0.0,0.995
2026/05/14 10:29:45.455,-0.059,0.004,0.997
2026/05/14 10:29:45.475,-0.058,0.005,0.998
2026/05/14 10:29:45.494,-0.061,0.001,0.996
2026/05/14 10:29:45.513,-0.061,0.004,0.993
2026/05/14 10:29:45.532,-0.061,-0.002,0.998
2026/05/14 10:29:45.551,-0.058,-0.001,0.997
2026/05/14 10:29:45.570,-0.061,0.0,0.997
2026/05/14 10:29:45.589,-0.056,0.006,1.0
2026/05/14 10:29:45.608,-0.057,0.003,0.998
2026/05/14 10:29:45.627,-0.057,0.002,0.995
2026/05/14 10:29:45.646,-0.059,0.004,0.999
2026/05/14 10:29:45.665,-0.059,0.004,0.997
2026/05/14 10:29:45.684,-0.058,0.002,0.994
2026/05/14 10:29:45.704,-0.06,0.004,0.993
2026/05/14 10:29:45.723,-0.061,0.0,0.997
2026/05/14 10:29:45.742,-0.06,0.003,0.995
2026/05/14 10:29:45.761,-0.063,0.001,0.995
2026/05/14 10:29:45.780,-0.061,0.007,0.993
2026/05/14 10:29:45.799,-0.059,-0.002,0.995
2026/05/14 10:29:45.818,-0.059,0.004,0.994
2026/05/14 10:29:45.837,-0.059,0.003,0.999
2026/05/14 10:29:45.856,-0.062,0.002,0.995
2026/05/14 10:29:45.875,-0.064,0.0,0.995
2026/05/14 10:29:45.894,-0.06,0.003,0.996
2026/05/14 10:29:45.913,-0.058,0.005,0.998
2026/05/14 10:29:45.932,-0.062,0.0,0.999
2026/05/14 10:29:45.952,-0.063,-0.001,0.995
2026/05/14 10:29:45.971,-0.063,-0.001,0.992
2026/05/14 10:29:45.990,-0.063,0.001,0.999
2026/05/14 10:29:46.009,-0.062,0.004,0.996
2026/05/14 10:29:46.028,-0.058,0.005,0.998
2026/05/14 10:29:46.047,-0.065,0.001,0.998
2026/05/14 10:29:46.066,-0.062,0.002,0.995
2026/05/14 10:29:46.085,-0.063,0.004,1.0
2026/05/14 10:29:46.104,-0.062,0.003,0.996
2026/05/14 10:29:46.123,-0.061,0.004,0.999
2026/05/14 10:29:46.142,-0.058,0.004,1.001
2026/05/14 10:29:46.161,-0.059,0.002,0.996
2026/05/14 10:29:46.180,-0.059,0.001,0.994
2026/05/14 10:29:46.200,-0.059,0.009,0.998
2026/05/14 10:29:46.219,-0.065,0.001,0.996
2026/05/14 10:29:46.238,-0.06,0.005,0.995
2026/05/14 10:29:46.257,-0.061,0.003,1.0
2026/05/14 10:29:46.276,-0.062,0.004,0.999
2026/05/14 10:29:46.295,-0.061,0.005,0.997
2026/05/14 10:29:46.314,-0.06,0.0,0.998
2026/05/14 10:29:46.333,-0.061,0.002,0.994
2026/05/14 10:29:46.352,-0.058,0.002,0.999
2026/05/14 10:29:46.371,-0.06,0.002,0.995
2026/05/14 10:29:46.390,-0.063,0.003,1.0
2026/05/14 10:29:46.409,-0.06,0.005,0.998
2026/05/14 10:29:46.428,-0.062,0.001,0.994
2026/05/14 10:29:46.448,-0.062,0.002,0.998
2026/05/14 10:29:46.467,-0.059,0.0,0.995
2026/05/14 10:29:46.486,-0.06,0.002,0.997
2026/05/14 10:29:46.505,-0.062,0.002,0.995
2026/05/14 10:29:46.524,-0.063,0.003,1.0
2026/05/14 10:29:46.543,-0.061,0.001,0.995
2026/05/14 10:29:46.562,-0.059,0.002,0.994
2026/05/14 10:29:46.581,-0.06,0.004,0.998
2026/05/14 10:29:46.600,-0.057,0.001,0.998
2026/05/14 10:29:46.619,-0.063,0.003,0.998
2026/05/14 10:29:46.638,-0.062,0.003,0.998
2026/05/14 10:29:46.657,-0.062,-0.001,0.999
2026/05/14 10:29:46.677,-0.063,0.003,0.997
2026/05/14 10:29:46.696,-0.059,0.003,0.997
2026/05/14 10:29:46.715,-0.062,0.004,0.996
2026/05/14 10:29:46.734,-0.063,0.001,0.999
2026/05/14 10:29:46.753,-0.064,0.002,0.998
2026/05/14 10:29:46.772,-0.061,0.002,0.998
2026/05/14 10:29:46.791,-0.062,0.005,0.997
2026/05/14 10:29:46.810,-0.064,0.0,0.995
2026/05/14 10:29:46.829,-0.06,0.002,0.998
2026/05/14 10:29:46.848,-0.058,0.002,0.997
2026/05/14 10:29:46.867,-0.061,0.004,0.995
2026/05/14 10:29:46.886,-0.062,0.003,0.994
2026/05/14 10:29:46.905,-0.058,0.0,0.998
2026/05/14 10:29:46.925,-0.061,0.006,0.999
2026/05/14 10:29:46.944,-0.064,0.002,0.999
2026/05/14 10:29:46.963,-0.061,0.001,0.996
2026/05/14 10:29:46.982,-0.061,0.001,0.999
2026/05/14 10:29:47.001,-0.059,0.004,0.999
2026/05/14 10:29:47.020,-0.06,0.0,1.007
2026/05/14 10:29:47.039,-0.058,0.003,0.998
2026/05/14 10:29:47.058,-0.057,0.004,0.993
2026/05/14 10:29:47.077,-0.061,0.004,0.996
2026/05/14 10:29:47.096,-0.056,0.0,1.006
2026/05/14 10:29:47.115,-0.059,0.0,1.0
2026/05/14 10:29:47.134,-0.064,0.001,0.997
2026/05/14 10:29:47.153,-0.06,0.001,0.997
2026/05/14 10:29:47.173,-0.063,-0.003,0.998
2026/05/14 10:29:47.192,-0.062,0.005,0.994
2026/05/14 10:29:47.211,-0.06,0.006,0.998
2026/05/14 10:29:47.230,-0.063,0.005,0.996
2026/05/14 10:29:47.249,-0.06,0.006,0.997
2026/05/14 10:29:47.268,-0.064,0.003,0.997
2026/05/14 10:29:47.287,-0.063,0.001,0.998
2026/05/14 10:29:47.306,-0.062,0.003,0.995
2026/05/14 10:29:47.325,-0.061,0.004,0.998
2026/05/14 10:29:47.344,-0.06,-0.003,0.993
2026/05/14 10:29:47.363,-0.058,0.007,1.003
2026/05/14 10:29:47.382,-0.06,0.004,0.998
2026/05/14 10:29:47.401,-0.059,0.004,0.993
2026/05/14 10:29:47.421,-0.062,0.002,0.996
2026/05/14 10:29:47.440,-0.056,-0.001,0.987
2026/05/14 10:29:47.459,-0.066,0.003,1.012
2026/05/14 10:29:47.478,-0.064,0.004,0.994
2026/05/14 10:29:47.497,-0.061,0.005,0.999
2026/05/14 10:29:47.516,-0.059,0.003,0.999
2026/05/14 10:29:47.535,-0.061,0.004,0.996
2026/05/14 10:29:47.554,-0.063,0.003,0.999
2026/05/14 10:29:47.573,-0.061,0.0,0.997
2026/05/14 10:29:47.592,-0.061,0.004,1.0
2026/05/14 10:29:47.611,-0.06,0.004,0.997
2026/05/14 10:29:47.630,-0.062,0.002,1.004
2026/05/14 10:29:47.649,-0.062,0.003,0.994
2026/05/14 10:29:47.669,-0.062,0.0,0.998
2026/05/14 10:29:47.688,-0.062,0.003,0.995
2026/05/14 10:29:47.707,-0.062,0.0,1.0
2026/05/14 10:29:47.726,-0.061,0.004,0.993
2026/05/14 10:29:47.745,-0.061,0.004,0.993
2026/05/14 10:29:47.764,-0.059,0.002,0.994
2026/05/14 10:29:47.783,-0.062,0.004,0.994
2026/05/14 10:29:47.802,-0.061,-0.002,0.998
2026/05/14 10:29:47.821,-0.059,0.004,0.999
2026/05/14 10:29:47.840,-0.057,0.001,1.0
2026/05/14 10:29:47.859,-0.06,0.004,0.994
2026/05/14 10:29:47.878,-0.062,0.005,0.999
2026/05/14 10:29:47.898,-0.059,0.004,0.996
2026/05/14 10:29:47.917,-0.061,0.001,0.997
2026/05/14 10:29:47.936,-0.065,0.002,0.996
2026/05/14 10:29:47.955,-0.058,0.002,0.997
2026/05/14 10:29:47.974,-0.063,0.002,0.994
2026/05/14 10:29:47.993,-0.06,0.004,0.996
2026/05/14 10:29:48.012,-0.061,0.003,0.995
2026/05/14 10:29:48.031,-0.061,0.002,0.998
2026/05/14 10:29:48.050,-0.06,0.0,0.994
2026/05/14 10:29:48.069,-0.06,0.0,0.995
2026/05/14 10:29:48.088,-0.062,0.004,0.996
2026/05/14 10:29:48.107,-0.063,0.003,0.999
2026/05/14 10:29:48.126,-0.061,0.005,0.995
2026/05/14 10:29:48.146,-0.063,0.004,1.001
2026/05/14 10:29:48.165,-0.06,0.002,0.993
2026/05/14 10:29:48.184,-0.059,0.007,1.0
2026/05/14 10:29:48.203,-0.058,0.005,0.999
2026/05/14 10:29:48.222,-0.061,0.006,0.993
2026/05/14 10:29:48.241,-0.059,0.003,0.993
2026/05/14 10:29:48.260,-0.055,0.001,0.997
2026/05/14 10:29:48.279,-0.062,0.002,0.995
2026/05/14 10:29:48.298,-0.061,0.003,0.996
2026/05/14 10:29:48.317,-0.06,0.001,0.995
2026/05/14 10:29:48.336,-0.063,0.003,0.997
2026/05/14 10:29:48.355,-0.06,0.002,0.998
2026/05/14 10:29:48.374,-0.064,0.005,0.995
2026/05/14 10:29:48.394,-0.061,-0.002,0.992
2026/05/14 10:29:48.413,-0.06,-0.002,0.995
2026/05/14 10:29:48.432,-0.059,0.003,0.998
2026/05/14 10:29:48.451,-0.059,0.002,0.999
2026/05/14 10:29:48.470,-0.064,0.001,0.996
2026/05/14 10:29:48.489,-0.063,0.002,0.997
2026/05/14 10:29:48.508,-0.058,0.002,0.996
2026/05/14 10:29:48.527,-0.059,0.003,0.998
2026/05/14 10:29:48.546,-0.059,0.005,0.995
2026/05/14 10:29:48.565,-0.063,0.001,0.995
2026/05/14 10:29:48.584,-0.059,0.0,0.994
2026/05/14 10:29:48.603,-0.063,0.005,0.997
2026/05/14 10:29:48.622,-0.061,0.003,0.996
2026/05/14 10:29:48.642,-0.063,0.001,0.998
2026/05/14 10:29:48.661,-0.063,0.002,0.993
2026/05/14 10:29:48.680,-0.059,0.002,0.996
2026/05/14 10:29:48.699,-0.058,0.0,0.998
2026/05/14 10:29:48.718,-0.063,0.003,0.998
2026/05/14 10:29:48.737,-0.064,0.002,1.005
2026/05/14 10:29:48.756,-0.059,0.006,0.989
2026/05/14 10:29:48.775,-0.062,0.001,0.999
2026/05/14 10:29:48.794,-0.064,0.001,0.997
2026/05/14 10:29:48.813,-0.061,0.004,0.995
2026/05/14 10:29:48.832,-0.061,0.001,0.998
2026/05/14 10:29:48.851,-0.06,0.003,0.994
2026/05/14 10:29:48.871,-0.058,0.001,0.993
2026/05/14 10:29:48.890,-0.059,0.001,1.002
2026/05/14 10:29:48.909,-0.061,0.005,0.996
2026/05/14 10:29:48.928,-0.064,0.001,0.995
2026/05/14 10:29:48.947,-0.061,0.005,0.996
2026/05/14 10:29:48.966,-0.063,0.002,0.999
2026/05/14 10:29:48.985,-0.063,-0.001,0.991
2026/05/14 10:29:49.004,-0.063,0.001,0.999
2026/05/14 10:29:49.023,-0.063,0.003,0.995
2026/05/14 10:29:49.042,-0.062,0.006,0.996
2026/05/14 10:29:49.061,-0.061,0.0,0.995
2026/05/14 10:29:49.080,-0.062,0.005,0.994
2026/05/14 10:29:49.099,-0.064,0.004,0.995
2026/05/14 10:29:49.119,-0.064,0.0,0.994
2026/05/14 10:29:49.138,-0.061,0.005,0.998
2026/05/14 10:29:49.157,-0.064,0.0,1.0
2026/05/14 10:29:49.176,-0.064,0.004,0.997
2026/05/14 10:29:49.195,-0.059,-0.001,0.994
2026/05/14 10:29:49.214,-0.062,0.001,0.995
2026/05/14 10:29:49.233,-0.064,0.005,0.997
2026/05/14 10:29:49.252,-0.064,0.004,0.992
2026/05/14 10:29:49.271,-0.06,0.001,0.997
2026/05/14 10:29:49.290,-0.061,0.0,0.997
2026/05/14 10:29:49.309,-0.062,0.002,0.992
2026/05/14 10:29:49.328,-0.066,0.001,0.994
2026/05/14 10:29:49.347,-0.061,0.0,1.0
2026/05/14 10:29:49.367,-0.065,0.003,0.99
2026/05/14 10:29:49.386,-0.062,0.006,0.997
2026/05/14 10:29:49.405,-0.06,0.002,0.996
2026/05/14 10:29:49.424,-0.061,0.0,0.998
2026/05/14 10:29:49.443,-0.059,0.006,0.999
2026/05/14 10:29:49.462,-0.058,0.005,0.997
2026/05/14 10:29:49.481,-0.059,0.002,0.995
2026/05/14 10:29:49.500,-0.059,0.003,0.995
2026/05/14 10:29:49.519,-0.062,-0.002,0.995
2026/05/14 10:29:49.538,-0.064,0.006,0.996
2026/05/14 10:29:49.557,-0.061,-0.001,0.995
2026/05/14 10:29:49.576,-0.059,0.005,0.996
2026/05/14 10:29:49.595,-0.064,0.002,0.994
2026/05/14 10:29:49.615,-0.061,0.002,0.997
2026/05/14 10:29:49.634,-0.064,0.003,0.997
2026/05/14 10:29:49.653,-0.064,0.0,0.995
2026/05/14 10:29:49.672,-0.059,0.004,0.993
2026/05/14 10:29:49.691,-0.061,0.0,0.997
2026/05/14 10:29:49.710,-0.057,0.003,0.995
2026/05/14 10:29:49.729,-0.06,0.004,0.999
2026/05/14 10:29:49.748,-0.063,0.002,0.999
2026/05/14 10:29:49.767,-0.065,0.0,0.995
2026/05/14 10:29:49.786,-0.061,0.004,0.998
2026/05/14 10:29:49.805,-0.062,0.001,0.995
2026/05/14 10:29:49.824,-0.062,0.001,0.998
2026/05/14 10:29:49.843,-0.061,0.004,0.999
2026/05/14 10:29:49.863,-0.064,0.002,0.995
2026/05/14 10:29:49.882,-0.059,0.0,0.995
2026/05/14 10:29:49.901,-0.062,0.004,0.999
2026/05/14 10:29:49.920,-0.06,0.002,0.997
2026/05/14 10:29:49.939,-0.062,0.002,0.994
2026/05/14 10:29:49.958,-0.058,0.003,0.996
2026/05/14 10:29:49.977,-0.062,0.003,0.994
2026/05/14 10:29:49.996,-0.06,0.003,0.998
2026/05/14 10:29:50.015,-0.059,0.003,0.998
2026/05/14 10:29:50.034,-0.06,0.003,0.997
2026/05/14 10:29:50.053,-0.061,0.003,0.998
2026/05/14 10:29:50.072,-0.06,0.004,0.997
2026/05/14 10:29:50.092,-0.059,0.003,0.999
2026/05/14 10:29:50.111,-0.062,0.0,0.998
2026/05/14 10:29:50.130,-0.06,0.002,0.994
2026/05/14 10:29:50.149,-0.06,0.003,0.997
2026/05/14 10:29:50.168,-0.061,0.007,0.994
2026/05/14 10:29:50.187,-0.063,0.004,0.997
2026/05/14 10:29:50.206,-0.062,0.001,0.997
2026/05/14 10:29:50.225,-0.063,0.002,0.995
2026/05/14 10:29:50.244,-0.059,0.002,0.995
2026/05/14 10:29:50.263,-0.057,0.005,0.999
2026/05/14 10:29:50.282,-0.064,0.005,0.998
2026/05/14 10:29:50.301,-0.06,0.003,0.997
2026/05/14 10:29:50.320,-0.058,0.007,0.996
2026/05/14 10:29:50.340,-0.059,0.003,0.996
2026/05/14 10:29:50.359,-0.064,0.002,0.998
2026/05/14 10:29:50.378,-0.059,0.004,0.998
2026/05/14 10:29:50.397,-0.065,0.004,0.997
2026/05/14 10:29:50.416,-0.057,-0.001,0.996
2026/05/14 10:29:50.435,-0.063,0.007,0.997
2026/05/14 10:29:50.454,-0.06,0.0,0.994
2026/05/14 10:29:50.473,-0.065,0.006,0.997
2026/05/14 10:29:50.492,-0.061,0.002,0.995
2026/05/14 10:29:50.511,-0.062,-0.001,0.995
2026/05/14 10:29:50.530,-0.063,-0.001,0.993
2026/05/14 10:29:50.549,-0.061,0.002,0.995
2026/05/14 10:29:50.569,-0.059,0.0,0.996
2026/05/14 10:29:50.588,-0.061,0.006,0.999
2026/05/14 10:29:50.607,-0.06,0.004,1.0
2026/05/14 10:29:50.626,-0.059,0.0,0.992
2026/05/14 10:29:50.645,-0.062,0.0,0.997
2026/05/14 10:29:50.664,-0.058,0.004,0.994
2026/05/14 10:29:50.683,-0.06,0.002,0.997
2026/05/14 10:29:50.702,-0.062,0.002,0.999
2026/05/14 10:29:50.721,-0.06,0.001,0.999
2026/05/14 10:29:50.740,-0.061,0.006,0.994
2026/05/14 10:29:50.759,-0.06,0.006,0.995
2026/05/14 10:29:50.778,-0.06,0.001,0.996
2026/05/14 10:29:50.797,-0.063,0.006,0.994
2026/05/14 10:29:50.817,-0.061,0.003,0.998
2026/05/14 10:29:50.836,-0.063,0.0,0.997
2026/05/14 10:29:50.855,-0.06,-0.001,0.995
2026/05/14 10:29:50.874,-0.061,0.003,0.993
2026/05/14 10:29:50.893,-0.059,0.0,0.995
2026/05/14 10:29:50.912,-0.062,0.005,0.999
2026/05/14 10:29:50.931,-0.062,-0.001,0.997
2026/05/14 10:29:50.950,-0.062,0.008,0.995
2026/05/14 10:29:50.969,-0.064,0.003,0.997
2026/05/14 10:29:50.988,-0.06,0.001,0.994
2026/05/14 10:29:51.007,-0.064,0.002,0.995
2026/05/14 10:29:51.026,-0.061,0.002,0.997
2026/05/14 10:29:51.046,-0.058,0.001,0.997
2026/05/14 10:29:51.065,-0.061,0.006,0.996
2026/05/14 10:29:51.084,-0.057,0.001,0.996
2026/05/14 10:29:51.103,-0.062,0.001,0.996
2026/05/14 10:29:51.122,-0.064,0.006,0.996
2026/05/14 10:29:51.141,-0.061,0.0,0.994
2026/05/14 10:29:51.160,-0.058,0.003,0.998
2026/05/14 10:29:51.179,-0.062,0.003,0.998
2026/05/14 10:29:51.198,-0.059,0.003,0.996
2026/05/14 10:29:51.217,-0.059,0.003,0.999
2026/05/14 10:29:51.236,-0.058,0.005,0.996
2026/05/14 10:29:51.255,-0.064,0.003,0.997
2026/05/14 10:29:51.274,-0.063,0.004,1.0
2026/05/14 10:29:51.294,-0.059,0.005,0.993
2026/05/14 10:29:51.313,-0.062,0.0,0.997
2026/05/14 10:29:51.332,-0.06,0.004,0.996
2026/05/14 10:29:51.351,-0.063,0.002,0.997
2026/05/14 10:29:51.370,-0.062,0.0,0.997
2026/05/14 10:29:51.389,-0.058,0.002,0.996
2026/05/14 10:29:51.408,-0.057,0.0,0.996
2026/05/14 10:29:51.427,-0.06,0.006,0.993
2026/05/14 10:29:51.446,-0.059,0.003,0.996
2026/05/14 10:29:51.465,-0.06,0.002,0.996
2026/05/14 10:29:51.484,-0.061,0.006,0.997
2026/05/14 10:29:51.503,-0.06,0.003,0.997
2026/05/14 10:29:51.523,-0.057,0.004,0.997
2026/05/14 10:29:51.542,-0.063,0.003,0.995
2026/05/14 10:29:51.561,-0.059,-0.001,0.992
2026/05/14 10:29:51.580,-0.06,0.0,0.994
2026/05/14 10:29:51.599,-0.063,0.005,0.998
2026/05/14 10:29:51.618,-0.062,0.0,0.995
2026/05/14 10:29:51.637,-0.062,0.007,1.001
2026/05/14 10:29:51.656,-0.064,0.001,0.998
2026/05/14 10:29:51.675,-0.06,0.001,0.996
2026/05/14 10:29:51.694,-0.063,0.002,0.996
2026/05/14 10:29:51.713,-0.061,0.002,0.998
2026/05/14 10:29:51.732,-0.06,0.005,0.997
2026/05/14 10:29:51.751,-0.058,0.002,0.998
2026/05/14 10:29:51.771,-0.059,0.004,0.996
2026/05/14 10:29:51.790,-0.059,0.005,0.993
2026/05/14 10:29:51.809,-0.061,0.004,1.0
2026/05/14 10:29:51.828,-0.059,0.004,0.998
2026/05/14 10:29:51.847,-0.061,0.005,0.997
2026/05/14 10:29:51.866,-0.059,0.003,0.995
2026/05/14 10:29:51.885,-0.063,0.001,0.997
2026/05/14 10:29:51.904,-0.062,0.004,0.994
2026/05/14 10:29:51.923,-0.063,0.001,0.997
2026/05/14 10:29:51.942,-0.063,0.0,0.992
2026/05/14 10:29:51.961,-0.059,0.002,0.997
2026/05/14 10:29:51.980,-0.057,-0.001,0.996
2026/05/14 10:29:52.000,-0.062,0.001,0.998
2026/05/14 10:29:52.019,-0.064,0.004,0.994
2026/05/14 10:29:52.038,-0.065,0.003,0.998
2026/05/14 10:29:52.057,-0.06,0.004,0.998
2026/05/14 10:29:52.076,-0.062,0.001,0.996
2026/05/14 10:29:52.095,-0.062,0.005,0.995
2026/05/14 10:29:52.114,-0.058,0.002,0.993
2026/05/14 10:29:52.133,-0.06,0.002,0.998
2026/05/14 10:29:52.152,-0.059,0.003,0.998
2026/05/14 10:29:52.171,-0.06,0.002,1.0
2026/05/14 10:29:52.190,-0.061,0.002,1.0
2026/05/14 10:29:52.209,-0.061,0.002,0.995
2026/05/14 10:29:52.228,-0.059,0.005,0.994
2026/05/14 10:29:52.248,-0.061,0.002,0.996
2026/05/14 10:29:52.267,-0.06,-0.002,0.997
2026/05/14 10:29:52.286,-0.064,0.001,0.996
2026/05/14 10:29:52.305,-0.06,0.0,0.997
2026/05/14 10:29:52.324,-0.058,-0.004,0.996
2026/05/14 10:29:52.343,-0.065,0.001,0.998
2026/05/14 10:29:52.362,-0.061,0.003,0.997
2026/05/14 10:29:52.381,-0.058,0.006,0.999
2026/05/14 10:29:52.400,-0.061,0.002,0.997
2026/05/14 10:29:52.419,-0.06,0.0,0.994
2026/05/14 10:29:52.438,-0.059,0.005,0.995
2026/05/14 10:29:52.457,-0.061,0.004,0.996
2026/05/14 10:29:52.477,-0.06,0.004,0.995
2026/05/14 10:29:52.496,-0.059,0.003,0.995
2026/05/14 10:29:52.515,-0.063,0.001,0.995
2026/05/14 10:29:52.534,-0.06,-0.001,0.998
2026/05/14 10:29:52.553,-0.064,-0.001,0.996
2026/05/14 10:29:52.572,-0.061,0.001,0.994
2026/05/14 10:29:52.591,-0.064,0.003,0.999
2026/05/14 10:29:52.610,-0.062,0.0,1.0
2026/05/14 10:29:52.629,-0.061,0.002,0.995
2026/05/14 10:29:52.648,-0.06,0.0,0.997
2026/05/14 10:29:52.667,-0.063,0.008,1.005
2026/05/14 10:29:52.686,-0.061,0.0,0.987
2026/05/14 10:29:52.706,-0.058,0.0,0.982
2026/05/14 10:29:52.725,-0.065,0.004,1.005
2026/05/14 10:29:52.744,-0.06,0.003,0.991
2026/05/14 10:29:52.763,-0.064,0.003,0.995
2026/05/14 10:29:52.782,-0.06,0.005,0.993
2026/05/14 10:29:52.801,-0.062,0.001,0.995
2026/05/14 10:29:52.820,-0.063,-0.001,0.997
2026/05/14 10:29:52.839,-0.061,0.0,0.995
2026/05/14 10:29:52.858,-0.057,0.004,0.996
2026/05/14 10:29:52.877,-0.06,0.003,0.995
2026/05/14 10:29:52.896,-0.058,0.0,0.994
2026/05/14 10:29:52.915,-0.059,0.003,0.996
2026/05/14 10:29:52.934,-0.058,0.003,0.997
2026/05/14 10:29:52.954,-0.063,0.003,0.996
2026/05/14 10:29:52.973,-0.06,0.005,0.994
2026/05/14 10:29:52.992,-0.059,0.004,0.995
2026/05/14 10:29:53.011,-0.057,0.001,0.996
2026/05/14 10:29:53.030,-0.06,0.002,0.997
2026/05/14 10:29:53.049,-0.061,0.002,0.998
2026/05/14 10:29:53.068,-0.061,0.003,0.998
2026/05/14 10:29:53.087,-0.059,0.004,0.995
2026/05/14 10:29:53.106,-0.06,0.002,0.997
2026/05/14 10:29:53.125,-0.06,0.002,0.998
2026/05/14 10:29:53.144,-0.06,0.0,1.0
2026/05/14 10:29:53.163,-0.059,0.001,0.998
2026/05/14 10:29:53.183,-0.063,0.001,0.996
2026/05/14 10:29:53.202,-0.061,0.002,0.998
2026/05/14 10:29:53.221,-0.062,0.003,0.999
2026/05/14 10:29:53.240,-0.062,0.004,1.002
2026/05/14 10:29:53.259,-0.06,0.002,0.997
2026/05/14 10:29:53.278,-0.063,0.001,0.994
2026/05/14 10:29:53.297,-0.061,0.004,1.003
2026/05/14 10:29:53.316,-0.06,0.003,0.995
2026/05/14 10:29:53.335,-0.062,0.006,0.997
2026/05/14 10:29:53.354,-0.06,0.003,0.995
2026/05/14 10:29:53.373,-0.061,0.002,0.992
2026/05/14 10:29:53.392,-0.061,0.004,0.994
2026/05/14 10:29:53.411,-0.065,0.0,0.998
2026/05/14 10:29:53.431,-0.059,0.005,0.995
2026/05/14 10:29:53.450,-0.063,0.0,0.997
2026/05/14 10:29:53.469,-0.059,0.004,0.992
2026/05/14 10:29:53.488,-0.064,0.002,0.996
2026/05/14 10:29:53.507,-0.062,0.002,0.999
2026/05/14 10:29:53.526,-0.062,-0.004,0.995
2026/05/14 10:29:53.545,-0.058,0.001,0.997
2026/05/14 10:29:53.564,-0.062,0.006,0.994
2026/05/14 10:29:53.583,-0.065,0.002,0.999
2026/05/14 10:29:53.602,-0.059,0.002,0.998
2026/05/14 10:29:53.621,-0.058,0.002,0.996
2026/05/14 10:29:53.640,-0.059,0.003,0.997
2026/05/14 10:29:53.660,-0.06,0.001,0.995
2026/05/14 10:29:53.679,-0.059,0.003,0.997
2026/05/14 10:29:53.698,-0.06,0.004,0.997
2026/05/14 10:29:53.717,-0.064,0.005,0.995
2026/05/14 10:29:53.736,-0.061,0.003,0.998
2026/05/14 10:29:53.755,-0.063,0.001,0.995
2026/05/14 10:29:53.774,-0.059,0.005,0.998
2026/05/14 10:29:53.793,-0.063,0.004,0.997
2026/05/14 10:29:53.812,-0.061,0.003,0.995
2026/05/14 10:29:53.831,-0.062,0.004,0.997
2026/05/14 10:29:53.850,-0.063,-0.001,0.999
2026/05/14 10:29:53.869,-0.06,0.001,0.994
2026/05/14 10:29:53.889,-0.061,0.0,0.996
2026/05/14 10:29:53.908,-0.063,0.004,0.997
2026/05/14 10:29:53.927,-0.06,0.003,0.997
2026/05/14 10:29:53.946,-0.063,0.002,0.996
2026/05/14 10:29:53.965,-0.064,0.006,0.998
2026/05/14 10:29:53.984,-0.058,0.002,0.993
2026/05/14 10:29:54.003,-0.058,0.002,0.995
2026/05/14 10:29:54.022,-0.062,0.003,0.994
2026/05/14 10:29:54.041,-0.059,-0.001,0.997
2026/05/14 10:29:54.060,-0.06,0.001,0.997
2026/05/14 10:29:54.079,-0.063,0.006,0.997
2026/05/14 10:29:54.098,-0.062,0.004,0.994
2026/05/14 10:29:54.117,-0.059,0.0,0.995
2026/05/14 10:29:54.137,-0.062,0.002,1.003
2026/05/14 10:29:54.156,-0.057,0.004,0.996
2026/05/14 10:29:54.175,-0.062,0.001,0.997
2026/05/14 10:29:54.194,-0.061,0.002,0.991
2026/05/14 10:29:54.213,-0.101,-0.016,0.878
2026/05/14 10:29:54.232,-0.036,-0.04,1.047
2026/05/14 10:29:54.251,-0.106,-0.029,0.938
2026/05/14 10:29:54.270,0.059,0.007,0.882
2026/05/14 10:29:54.289,-0.084,-0.026,0.865
2026/05/14 10:29:54.308,-0.088,0.003,1.008
2026/05/14 10:29:54.327,-0.098,-0.01,0.983
2026/05/14 10:29:54.346,-0.095,-0.012,1.05
2026/05/14 10:29:54.366,-0.101,-0.006,1.011
2026/05/14 10:29:54.385,-0.037,0.031,0.976
2026/05/14 10:29:54.404,-0.069,0.012,0.992
2026/05/14 10:29:54.423,-0.068,0.006,1.017
2026/05/14 10:29:54.442,-0.079,-0.014,0.993
2026/05/14 10:29:54.461,-0.072,-0.026,0.977
2026/05/14 10:29:54.480,-0.071,-0.023,1.0
2026/05/14 10:29:54.499,-0.064,-0.015,1.004
2026/05/14 10:29:54.518,-0.053,-0.001,0.987
2026/05/14 10:29:54.537,-0.058,0.005,0.996
2026/05/14 10:29:54.556,-0.064,0.012,0.996
2026/05/14 10:29:54.575,-0.069,0.004,0.999
2026/05/14 10:29:54.595,-0.066,0.01,1.002
2026/05/14 10:29:54.614,-0.055,0.015,0.993
2026/05/14 10:29:54.633,-0.048,0.018,0.996
2026/05/14 10:29:54.652,-0.042,0.015,0.995
2026/05/14 10:29:54.671,-0.043,0.01,1.007
2026/05/14 10:29:54.690,-0.054,0.004,0.989
2026/05/14 10:29:54.709,-0.064,-0.005,0.995
2026/05/14 10:29:54.728,-0.075,-0.003,0.998
2026/05/14 10:29:54.747,-0.076,-0.003,0.996
2026/05/14 10:29:54.766,-0.072,0.003,0.996
2026/05/14 10:29:54.785,-0.071,0.0,0.998
2026/05/14 10:29:54.804,-0.067,-0.007,0.999
2026/05/14 10:29:54.823,-0.064,-0.011,0.995
2026/05/14 10:29:54.843,-0.062,-0.009,0.999
2026/05/14 10:29:54.862,-0.058,-0.001,0.994
2026/05/14 10:29:54.881,-0.056,0.004,0.99
2026/05/14 10:29:54.900,-0.056,0.012,0.999
2026/05/14 10:29:54.919,-0.056,0.014,1.0
2026/05/14 10:29:54.938,-0.057,0.016,1.001
2026/05/14 10:29:54.957,-0.064,0.017,0.999
2026/05/14 10:29:54.976,-0.057,0.006,0.997
2026/05/14 10:29:54.995,-0.056,0.008,1.0
2026/05/14 10:29:55.014,-0.054,0.005,0.998
2026/05/14 10:29:55.033,-0.058,0.001,0.993
2026/05/14 10:29:55.052,-0.063,-0.001,0.997
2026/05/14 10:29:55.072,-0.064,-0.008,0.99
2026/05/14 10:29:55.091,-0.074,-0.005,0.991
2026/05/14 10:29:55.110,-0.074,-0.006,0.99
2026/05/14 10:29:55.129,-0.067,0.002,0.995
2026/05/14 10:29:55.148,-0.067,0.001,0.996
2026/05/14 10:29:55.167,-0.063,0.0,0.995
2026/05/14 10:29:55.186,-0.058,0.0,0.998
2026/05/14 10:29:55.205,-0.057,0.002,0.999
2026/05/14 10:29:55.224,-0.055,0.001,0.994
2026/05/14 10:29:55.243,-0.055,0.005,0.999
2026/05/14 10:29:55.262,-0.058,0.013,0.996
2026/05/14 10:29:55.281,-0.056,0.009,0.999
2026/05/14 10:29:55.301,-0.06,0.014,0.998
2026/05/14 10:29:55.320,-0.059,0.008,0.995
2026/05/14 10:29:55.339,-0.06,-0.004,0.997
2026/05/14 10:29:55.358,-0.061,-0.003,0.992
2026/05/14 10:29:55.377,-0.063,-0.004,0.998
2026/05/14 10:29:55.396,-0.063,-0.004,0.993
2026/05/14 10:29:55.415,-0.063,0.001,0.999
2026/05/14 10:29:55.434,-0.068,-0.004,0.997
2026/05/14 10:29:55.453,-0.065,-0.002,0.995
2026/05/14 10:29:55.472,-0.067,0.0,0.996
2026/05/14 10:29:55.491,-0.062,0.0,0.994
2026/05/14 10:29:55.510,-0.058,0.004,1.0
2026/05/14 10:29:55.529,-0.057,0.008,1.0
2026/05/14 10:29:55.549,-0.054,0.006,0.994
2026/05/14 10:29:55.568,-0.051,0.006,0.998
2026/05/14 10:29:55.587,-0.051,0.006,0.998
2026/05/14 10:29:55.606,-0.059,0.007,1.0
2026/05/14 10:29:55.625,-0.058,0.006,1.0
2026/05/14 10:29:55.644,-0.064,0.009,1.0
2026/05/14 10:29:55.663,-0.064,0.002,1.0
2026/05/14 10:29:55.682,-0.064,0.0,0.994
2026/05/14 10:29:55.701,-0.064,0.0,0.997
2026/05/14 10:29:55.720,-0.064,-0.001,0.992
2026/05/14 10:29:55.739,-0.066,-0.002,0.999
2026/05/14 10:29:55.758,-0.063,-0.003,0.997
2026/05/14 10:29:55.778,-0.061,-0.006,0.995
2026/05/14 10:29:55.797,-0.062,0.004,0.995
2026/05/14 10:29:55.816,-0.063,0.005,0.999
2026/05/14 10:29:55.835,-0.061,0.004,0.995
2026/05/14 10:29:55.854,-0.064,0.006,0.993
2026/05/14 10:29:55.873,-0.058,0.006,0.996
2026/05/14 10:29:55.892,-0.054,0.007,0.999
2026/05/14 10:29:55.911,-0.058,0.003,0.997
2026/05/14 10:29:55.930,-0.057,0.006,0.997
2026/05/14 10:29:55.949,-0.06,0.004,0.991
2026/05/14 10:29:55.968,-0.061,0.002,0.996
2026/05/14 10:29:55.987,-0.065,0.003,0.993
2026/05/14 10:29:56.006,-0.066,0.0,1.001
2026/05/14 10:29:56.026,-0.066,-0.002,0.996
2026/05/14 10:29:56.045,-0.066,-0.002,0.996
2026/05/14 10:29:56.064,-0.066,-0.005,0.997
2026/05/14 10:29:56.083,-0.065,0.001,0.992
2026/05/14 10:29:56.102,-0.064,0.003,0.995
2026/05/14 10:29:56.121,-0.06,0.003,0.996
2026/05/14 10:29:56.140,-0.059,0.006,0.997
2026/05/14 10:29:56.159,-0.06,0.006,0.996
2026/05/14 10:29:56.178,-0.056,0.008,1.001
2026/05/14 10:29:56.197,-0.057,0.008,0.997
2026/05/14 10:29:56.216,-0.061,0.009,0.998
2026/05/14 10:29:56.235,-0.057,0.003,0.998
2026/05/14 10:29:56.255,-0.054,0.004,0.999
2026/05/14 10:29:56.274,-0.059,0.004,1.001
2026/05/14 10:29:56.293,-0.064,0.002,0.994
2026/05/14 10:29:56.312,-0.067,0.001,0.994
2026/05/14 10:29:56.331,-0.061,-0.005,0.997
2026/05/14 10:29:56.350,-0.063,-0.001,0.997
2026/05/14 10:29:56.369,-0.066,0.0,0.995
2026/05/14 10:29:56.388,-0.066,-0.003,0.998
2026/05/14 10:29:56.407,-0.063,0.0,0.992
2026/05/14 10:29:56.426,-0.061,0.002,0.997
2026/05/14 10:29:56.445,-0.059,0.002,0.999
2026/05/14 10:29:56.464,-0.057,0.0,0.998
2026/05/14 10:29:56.483,-0.06,0.004,0.996
2026/05/14 10:29:56.503,-0.059,0.007,0.999
2026/05/14 10:29:56.522,-0.06,0.003,0.997
2026/05/14 10:29:56.541,-0.06,0.005,0.995
2026/05/14 10:29:56.560,-0.061,0.003,0.995
2026/05/14 10:29:56.579,-0.057,0.003,0.992
2026/05/14 10:29:56.598,-0.059,0.002,1.015
2026/05/14 10:29:56.617,-0.061,-0.002,0.97
2026/05/14 10:29:56.636,-0.054,-0.02,1.005
2026/05/14 10:29:56.655,-0.068,-0.006,0.993
2026/05/14 10:29:56.674,-0.069,0.004,0.976
2026/05/14 10:29:56.693,-0.075,0.012,1.028
2026/05/14 10:29:56.712,-0.073,0.02,0.996
2026/05/14 10:29:56.732,-0.066,0.011,1.008
2026/05/14 10:29:56.751,-0.06,0.009,1.008
2026/05/14 10:29:56.770,-0.053,0.002,0.975
2026/05/14 10:29:56.789,-0.044,-0.007,0.981
2026/05/14 10:29:56.808,-0.046,-0.01,1.004
2026/05/14 10:29:56.827,-0.054,-0.004,0.997
2026/05/14 10:29:56.846,-0.055,0.004,0.999
2026/05/14 10:29:56.865,-0.059,0.013,0.998
2026/05/14 10:29:56.884,-0.073,0.02,0.997
2026/05/14 10:29:56.903,-0.079,0.013,1.005
2026/05/14 10:29:56.922,-0.079,0.005,1.009
2026/05/14 10:29:56.941,-0.07,-0.001,1.012
2026/05/14 10:29:56.961,-0.058,-0.005,0.982
2026/05/14 10:29:56.980,-0.047,-0.014,1.0
2026/05/14 10:29:56.999,-0.043,-0.018,0.999
2026/05/14 10:29:57.018,-0.049,-0.015,0.988
2026/05/14 10:29:57.037,-0.068,0.004,0.991
2026/05/14 10:29:57.056,-0.073,0.012,1.003
2026/05/14 10:29:57.075,-0.077,0.024,1.005
2026/05/14 10:29:57.094,-0.064,0.016,0.988
2026/05/14 10:29:57.113,-0.058,0.011,1.009
2026/05/14 10:29:57.132,-0.054,0.0,0.999
2026/05/14 10:29:57.151,-0.049,-0.003,0.994
2026/05/14 10:29:57.170,-0.045,-0.002,0.997
2026/05/14 10:29:57.189,-0.055,-0.005,0.941
2026/05/14 10:29:57.209,-0.061,0.008,0.979
2026/05/14 10:29:57.228,-0.068,0.003,1.023
2026/05/14 10:29:57.247,-0.074,0.008,0.984
2026/05/14 10:29:57.266,-0.075,0.002,0.989
2026/05/14 10:29:57.285,-0.07,-0.006,0.991
2026/05/14 10:29:57.304,-0.071,-0.007,0.998
2026/05/14 10:29:57.323,-0.061,-0.008,0.989
2026/05/14 10:29:57.342,-0.057,-0.007,0.987
2026/05/14 10:29:57.361,-0.053,-0.007,0.994
2026/05/14 10:29:57.380,-0.054,0.002,0.988
2026/05/14 10:29:57.399,-0.061,0.007,1.0
2026/05/14 10:29:57.418,-0.062,0.013,0.998
2026/05/14 10:29:57.438,-0.068,0.015,1.0
2026/05/14 10:29:57.457,-0.064,0.011,0.994
2026/05/14 10:29:57.476,-0.054,0.006,1.002
2026/05/14 10:29:57.495,-0.051,0.008,1.005
2026/05/14 10:29:57.514,-0.05,0.005,0.994
2026/05/14 10:29:57.533,-0.059,-0.002,0.996
2026/05/14 10:29:57.552,-0.054,-0.003,0.998
2026/05/14 10:29:57.571,-0.066,-0.001,0.994
2026/05/14 10:29:57.590,-0.07,0.002,1.004
2026/05/14 10:29:57.609,-0.071,0.005,0.996
2026/05/14 10:29:57.628,-0.064,-0.002,1.053
2026/05/14 10:29:57.647,-0.064,0.0,0.997
2026/05/14 10:29:57.666,-0.064,-0.001,0.986
2026/05/14 10:29:57.686,-0.056,-0.003,1.014
2026/05/14 10:29:57.705,-0.057,0.001,0.99
2026/05/14 10:29:57.724,-0.072,0.047,0.987
2026/05/14 10:29:57.743,-0.058,0.0,1.003
2026/05/14 10:29:57.762,-0.067,0.006,1.001
2026/05/14 10:29:57.781,-0.055,0.019,0.991
2026/05/14 10:29:57.800,-0.059,0.018,1.006
2026/05/14 10:29:57.819,-0.064,0.01,1.013
2026/05/14 10:29:57.838,-0.055,-0.001,1.001
2026/05/14 10:29:57.857,-0.055,-0.001,0.988
2026/05/14 10:29:57.876,-0.058,0.0,1.011
2026/05/14 10:29:57.895,-0.058,-0.003,0.984
2026/05/14 10:29:57.914,-0.064,-0.004,0.994
2026/05/14 10:29:57.934,-0.073,-0.004,0.99
2026/05/14 10:29:57.953,-0.068,0.0,0.999
2026/05/14 10:29:57.972,-0.069,0.001,0.999
2026/05/14 10:29:57.991,-0.066,0.004,0.995
2026/05/14 10:29:58.010,-0.06,-0.001,0.994
2026/05/14 10:29:58.029,-0.059,0.0,0.997
2026/05/14 10:29:58.048,-0.05,0.0,0.998
2026/05/14 10:29:58.067,-0.05,0.003,0.998
2026/05/14 10:29:58.086,-0.053,0.008,0.996
2026/05/14 10:29:58.105,-0.056,0.01,1.0
2026/05/14 10:29:58.124,-0.06,0.011,1.001
2026/05/14 10:29:58.143,-0.06,0.005,0.999
2026/05/14 10:29:58.163,-0.066,0.003,0.998
2026/05/14 10:29:58.182,-0.062,0.0,0.999
2026/05/14 10:29:58.201,-0.064,0.002,0.996
2026/05/14 10:29:58.220,-0.065,-0.001,0.992
2026/05/14 10:29:58.239,-0.063,-0.007,0.994
2026/05/14 10:29:58.258,-0.06,-0.002,0.997
2026/05/14 10:29:58.277,-0.065,-0.001,0.994
2026/05/14 10:29:58.296,-0.063,-0.002,0.996
2026/05/14 10:29:58.315,-0.068,0.005,0.997
2026/05/14 10:29:58.334,-0.062,0.004,0.998
2026/05/14 10:29:58.353,-0.058,0.008,0.998
2026/05/14 10:29:58.372,-0.056,0.005,0.999
2026/05/14 10:29:58.391,-0.056,0.004,0.996
