Timestamp,ACC X,ACC Y,ACC Z
2026/05/14 10:32:17.363,0.025,0.021,1.018
2026/05/14 10:32:17.382,0.023,0.027,1.023
2026/05/14 10:32:17.401,0.025,0.028,1.022
2026/05/14 10:32:17.421,0.024,0.029,1.018
2026/05/14 10:32:17.440,0.026,0.027,1.022
2026/05/14 10:32:17.459,0.023,0.029,1.018
2026/05/14 10:32:17.478,0.023,0.026,1.022
2026/05/14 10:32:17.497,0.026,0.029,1.025
2026/05/14 10:32:17.517,0.026,0.025,1.019
2026/05/14 10:32:17.536,0.023,0.027,1.021
2026/05/14 10:32:17.555,0.025,0.027,1.022
2026/05/14 10:32:17.574,0.023,0.026,1.02
2026/05/14 10:32:17.594,0.025,0.026,1.022
2026/05/14 10:32:17.613,0.023,0.021,1.019
2026/05/14 10:32:17.632,0.026,0.025,1.021
2026/05/14 10:32:17.651,0.022,0.027,1.018
2026/05/14 10:32:17.671,0.026,0.03,1.02
2026/05/14 10:32:17.690,0.025,0.03,1.023
2026/05/14 10:32:17.709,0.026,0.024,1.024
2026/05/14 10:32:17.728,0.021,0.025,1.024
2026/05/14 10:32:17.747,0.025,0.028,1.022
2026/05/14 10:32:17.767,0.021,0.023,1.022
2026/05/14 10:32:17.786,0.026,0.021,1.023
2026/05/14 10:32:17.805,0.023,0.027,1.026
2026/05/14 10:32:17.824,0.02,0.025,1.025
2026/05/14 10:32:17.844,0.027,0.024,1.022
2026/05/14 10:32:17.863,0.025,0.026,1.022
2026/05/14 10:32:17.882,0.021,0.025,1.026
2026/05/14 10:32:17.901,0.024,0.025,1.022
2026/05/14 10:32:17.921,0.026,0.025,1.023
2026/05/14 10:32:17.940,0.026,0.027,1.02
2026/05/14 10:32:17.959,0.021,0.03,1.017
2026/05/14 10:32:17.978,0.023,0.027,1.024
2026/05/14 10:32:17.997,0.02,0.029,1.018
2026/05/14 10:32:18.017,0.025,0.025,1.025
2026/05/14 10:32:18.036,0.019,0.029,1.021
2026/05/14 10:32:18.055,0.024,0.027,1.023
2026/05/14 10:32:18.074,0.026,0.022,1.021
2026/05/14 10:32:18.094,0.02,0.029,1.023
2026/05/14 10:32:18.113,0.025,0.026,1.024
2026/05/14 10:32:18.132,0.024,0.026,1.021
2026/05/14 10:32:18.151,0.025,0.026,1.018
2026/05/14 10:32:18.171,0.024,0.025,1.027
2026/05/14 10:32:18.190,0.027,0.023,1.022
2026/05/14 10:32:18.209,0.021,0.028,1.024
2026/05/14 10:32:18.228,0.024,0.025,1.019
2026/05/14 10:32:18.247,0.024,0.027,1.022
2026/05/14 10:32:18.267,0.026,0.025,1.021
2026/05/14 10:32:18.286,0.023,0.025,1.023
2026/05/14 10:32:18.305,0.025,0.028,1.023
2026/05/14 10:32:18.324,0.026,0.024,1.018
2026/05/14 10:32:18.344,0.022,0.029,1.022
2026/05/14 10:32:18.363,0.024,0.025,1.02
2026/05/14 10:32:18.382,0.02,0.027,1.021
2026/05/14 10:32:18.401,0.023,0.023,1.022
2026/05/14 10:32:18.421,0.023,0.026,1.023
2026/05/14 10:32:18.440,0.024,0.025,1.022
2026/05/14 10:32:18.459,0.022,0.026,1.022
2026/05/14 10:32:18.478,0.024,0.024,1.022
2026/05/14 10:32:18.497,0.027,0.029,1.019
2026/05/14 10:32:18.517,0.026,0.025,1.023
2026/05/14 10:32:18.536,0.024,0.025,1.023
2026/05/14 10:32:18.555,0.025,0.027,1.022
2026/05/14 10:32:18.574,0.023,0.023,1.023
2026/05/14 10:32:18.594,0.027,0.021,1.022
2026/05/14 10:32:18.613,0.024,0.028,1.024
2026/05/14 10:32:18.632,0.026,0.027,1.023
2026/05/14 10:32:18.651,0.026,0.023,1.024
2026/05/14 10:32:18.671,0.022,0.03,1.019
2026/05/14 10:32:18.690,0.026,0.024,1.017
2026/05/14 10:32:18.709,0.022,0.025,1.025
2026/05/14 10:32:18.728,0.025,0.027,1.021
2026/05/14 10:32:18.747,0.02,0.025,1.019
2026/05/14 10:32:18.767,0.028,0.025,1.018
2026/05/14 10:32:18.786,0.024,0.025,1.02
2026/05/14 10:32:18.805,0.022,0.023,1.022
2026/05/14 10:32:18.824,0.023,0.025,1.026
2026/05/14 10:32:18.844,0.025,0.029,1.025
2026/05/14 10:32:18.863,0.023,0.026,1.021
2026/05/14 10:32:18.882,0.025,0.026,1.022
2026/05/14 10:32:18.901,0.024,0.026,1.024
2026/05/14 10:32:18.921,0.024,0.024,1.02
2026/05/14 10:32:18.940,0.024,0.025,1.024
2026/05/14 10:32:18.959,0.022,0.023,1.021
2026/05/14 10:32:18.978,0.026,0.023,1.023
2026/05/14 10:32:18.997,0.024,0.026,1.024
2026/05/14 10:32:19.017,0.025,0.026,1.023
2026/05/14 10:32:19.036,0.019,0.021,1.019
2026/05/14 10:32:19.055,0.023,0.025,1.022
2026/05/14 10:32:19.074,0.023,0.023,1.026
2026/05/14 10:32:19.094,0.023,0.025,1.027
2026/05/14 10:32:19.113,0.027,0.03,1.021
2026/05/14 10:32:19.132,0.024,0.027,1.018
2026/05/14 10:32:19.151,0.022,0.019,1.025
2026/05/14 10:32:19.171,0.023,0.025,1.022
2026/05/14 10:32:19.190,0.024,0.026,1.023
2026/05/14 10:32:19.209,0.024,0.025,1.021
2026/05/14 10:32:19.228,0.024,0.026,1.021
2026/05/14 10:32:19.247,0.02,0.026,1.02
2026/05/14 10:32:19.267,0.026,0.023,1.026
2026/05/14 10:32:19.286,0.022,0.025,1.023
2026/05/14 10:32:19.305,0.025,0.024,1.024
2026/05/14 10:32:19.324,0.025,0.025,1.022
2026/05/14 10:32:19.344,0.026,0.024,1.024
2026/05/14 10:32:19.363,0.026,0.024,1.023
2026/05/14 10:32:19.382,0.024,0.025,1.023
2026/05/14 10:32:19.401,0.026,0.026,1.022
2026/05/14 10:32:19.421,0.022,0.024,1.023
2026/05/14 10:32:19.440,0.025,0.03,1.023
2026/05/14 10:32:19.459,0.023,0.023,1.024
2026/05/14 10:32:19.478,0.024,0.026,1.025
2026/05/14 10:32:19.497,0.024,0.023,1.023
2026/05/14 10:32:19.517,0.025,0.026,1.02
2026/05/14 10:32:19.536,0.022,0.028,1.026
2026/05/14 10:32:19.555,0.022,0.028,1.021
2026/05/14 10:32:19.574,0.027,0.025,1.022
2026/05/14 10:32:19.594,0.019,0.027,1.024
2026/05/14 10:32:19.613,0.02,0.024,1.022
2026/05/14 10:32:19.632,0.025,0.027,1.021
2026/05/14 10:32:19.651,0.024,0.03,1.022
2026/05/14 10:32:19.671,0.025,0.027,1.022
2026/05/14 10:32:19.690,0.026,0.023,1.024
2026/05/14 10:32:19.709,0.024,0.023,1.022
2026/05/14 10:32:19.728,0.024,0.026,1.021
2026/05/14 10:32:19.747,0.025,0.026,1.022
2026/05/14 10:32:19.767,0.022,0.027,1.022
2026/05/14 10:32:19.786,0.023,0.027,1.019
2026/05/14 10:32:19.805,0.025,0.027,1.02
2026/05/14 10:32:19.824,0.024,0.027,1.022
2026/05/14 10:32:19.844,0.023,0.025,1.021
2026/05/14 10:32:19.863,0.027,0.025,1.021
2026/05/14 10:32:19.882,0.024,0.026,1.023
2026/05/14 10:32:19.901,0.025,0.025,1.021
2026/05/14 10:32:19.921,0.025,0.027,1.018
2026/05/14 10:32:19.941,0.027,0.024,1.024
2026/05/14 10:32:19.962,0.021,0.028,1.026
2026/05/14 10:32:19.982,0.029,0.026,1.021
2026/05/14 10:32:20.002,0.028,0.024,1.025
2026/05/14 10:32:20.023,0.024,0.026,1.026
2026/05/14 10:32:20.043,0.023,0.021,1.026
2026/05/14 10:32:20.064,0.023,0.024,1.021
2026/05/14 10:32:20.084,0.024,0.029,1.017
2026/05/14 10:32:20.105,0.027,0.024,1.024
2026/05/14 10:32:20.125,0.022,0.024,1.023
2026/05/14 10:32:20.146,0.025,0.025,1.02
2026/05/14 10:32:20.166,0.024,0.027,1.025
2026/05/14 10:32:20.187,0.028,0.027,1.023
2026/05/14 10:32:20.207,0.022,0.025,1.022
2026/05/14 10:32:20.228,0.026,0.024,1.024
2026/05/14 10:32:20.248,0.02,0.028,1.023
2026/05/14 10:32:20.269,0.024,0.024,1.021
2026/05/14 10:32:20.289,0.025,0.025,1.026
2026/05/14 10:32:20.310,0.026,0.026,1.016
2026/05/14 10:32:20.330,0.026,0.022,1.019
2026/05/14 10:32:20.350,0.025,0.025,1.022
2026/05/14 10:32:20.371,0.022,0.029,1.021
2026/05/14 10:32:20.391,0.024,0.025,1.023
2026/05/14 10:32:20.412,0.025,0.023,1.025
2026/05/14 10:32:20.432,0.024,0.026,1.02
2026/05/14 10:32:20.453,0.023,0.024,1.024
2026/05/14 10:32:20.473,0.026,0.024,1.021
2026/05/14 10:32:20.494,0.021,0.027,1.023
2026/05/14 10:32:20.514,0.026,0.026,1.021
2026/05/14 10:32:20.535,0.023,0.025,1.021
2026/05/14 10:32:20.555,0.02,0.027,1.021
2026/05/14 10:32:20.576,0.026,0.026,1.026
2026/05/14 10:32:20.596,0.023,0.023,1.025
2026/05/14 10:32:20.617,0.023,0.026,1.023
2026/05/14 10:32:20.637,0.024,0.024,1.025
2026/05/14 10:32:20.658,0.021,0.023,1.026
2026/05/14 10:32:20.678,0.024,0.027,1.024
2026/05/14 10:32:20.699,0.026,0.026,1.024
2026/05/14 10:32:20.719,0.023,0.026,1.02
2026/05/14 10:32:20.739,0.023,0.025,1.022
2026/05/14 10:32:20.760,0.023,0.026,1.022
2026/05/14 10:32:20.780,0.024,0.026,1.023
2026/05/14 10:32:20.801,0.023,0.025,1.022
2026/05/14 10:32:20.821,0.024,0.025,1.022
2026/05/14 10:32:20.842,0.023,0.023,1.021
2026/05/14 10:32:20.862,0.025,0.028,1.02
2026/05/14 10:32:20.883,0.022,0.024,1.022
2026/05/14 10:32:20.903,0.024,0.025,1.025
2026/05/14 10:32:20.924,0.023,0.025,1.024
2026/05/14 10:32:20.944,0.024,0.025,1.019
2026/05/14 10:32:20.965,0.023,0.029,1.019
2026/05/14 10:32:20.985,0.022,0.028,1.027
2026/05/14 10:32:21.006,0.025,0.024,1.021
2026/05/14 10:32:21.026,0.024,0.025,1.023
2026/05/14 10:32:21.047,0.025,0.023,1.021
2026/05/14 10:32:21.067,0.023,0.025,1.025
2026/05/14 10:32:21.087,0.025,0.023,1.025
2026/05/14 10:32:21.108,0.024,0.025,1.023
2026/05/14 10:32:21.128,0.025,0.027,1.021
2026/05/14 10:32:21.149,0.025,0.025,1.023
2026/05/14 10:32:21.169,0.018,0.025,1.019
2026/05/14 10:32:21.190,0.025,0.026,1.023
2026/05/14 10:32:21.210,0.023,0.024,1.024
2026/05/14 10:32:21.231,0.022,0.028,1.021
2026/05/14 10:32:21.251,0.025,0.025,1.023
2026/05/14 10:32:21.272,0.022,0.022,1.02
2026/05/14 10:32:21.292,0.023,0.024,1.026
2026/05/14 10:32:21.313,0.024,0.028,1.022
2026/05/14 10:32:21.333,0.021,0.023,1.02
2026/05/14 10:32:21.354,0.023,0.024,1.019
2026/05/14 10:32:21.374,0.024,0.024,1.02
2026/05/14 10:32:21.395,0.022,0.026,1.023
2026/05/14 10:32:21.415,0.026,0.025,1.021
2026/05/14 10:32:21.436,0.026,0.026,1.019
2026/05/14 10:32:21.456,0.025,0.025,1.021
2026/05/14 10:32:21.476,0.028,0.026,1.025
2026/05/14 10:32:21.497,0.023,0.023,1.025
2026/05/14 10:32:21.517,0.02,0.024,1.023
2026/05/14 10:32:21.538,0.022,0.024,1.021
2026/05/14 10:32:21.558,0.027,0.025,1.024
2026/05/14 10:32:21.579,0.027,0.026,1.027
2026/05/14 10:32:21.599,0.023,0.026,1.017
2026/05/14 10:32:21.620,0.024,0.021,1.024
2026/05/14 10:32:21.640,0.024,0.025,1.02
2026/05/14 10:32:21.661,0.027,0.026,1.021
2026/05/14 10:32:21.681,0.025,0.025,1.021
2026/05/14 10:32:21.702,0.022,0.028,1.021
2026/05/14 10:32:21.722,0.024,0.024,1.025
2026/05/14 10:32:21.743,0.024,0.024,1.022
2026/05/14 10:32:21.763,0.019,0.023,1.022
2026/05/14 10:32:21.784,0.025,0.025,1.021
2026/05/14 10:32:21.804,0.018,0.027,1.023
2026/05/14 10:32:21.824,0.023,0.027,1.023
2026/05/14 10:32:21.845,0.026,0.027,1.026
2026/05/14 10:32:21.865,0.024,0.024,1.021
2026/05/14 10:32:21.886,0.022,0.025,1.026
2026/05/14 10:32:21.906,0.027,0.026,1.022
2026/05/14 10:32:21.927,0.026,0.028,1.025
2026/05/14 10:32:21.947,0.025,0.027,1.021
2026/05/14 10:32:21.968,0.026,0.025,1.025
2026/05/14 10:32:21.988,0.027,0.027,1.023
2026/05/14 10:32:22.009,0.02,0.026,1.021
2026/05/14 10:32:22.029,0.02,0.02,1.019
2026/05/14 10:32:22.050,0.023,0.022,1.023
2026/05/14 10:32:22.070,0.025,0.027,1.024
2026/05/14 10:32:22.091,0.023,0.026,1.026
2026/05/14 10:32:22.111,0.023,0.027,1.021
2026/05/14 10:32:22.132,0.022,0.022,1.023
2026/05/14 10:32:22.152,0.023,0.024,1.022
2026/05/14 10:32:22.172,0.027,0.025,1.025
2026/05/14 10:32:22.193,0.027,0.022,1.023
2026/05/14 10:32:22.213,0.023,0.026,1.017
2026/05/14 10:32:22.234,0.025,0.022,1.022
2026/05/14 10:32:22.254,0.024,0.029,1.022
2026/05/14 10:32:22.275,0.026,0.026,1.026
2026/05/14 10:32:22.295,0.027,0.025,1.024
2026/05/14 10:32:22.316,0.024,0.024,1.026
2026/05/14 10:32:22.336,0.021,0.028,1.021
2026/05/14 10:32:22.357,0.024,0.026,1.022
2026/05/14 10:32:22.377,0.027,0.027,1.023
2026/05/14 10:32:22.398,0.024,0.022,1.026
2026/05/14 10:32:22.418,0.024,0.025,1.024
2026/05/14 10:32:22.439,0.023,0.028,1.018
2026/05/14 10:32:22.459,0.026,0.03,1.023
2026/05/14 10:32:22.480,0.021,0.025,1.023
2026/05/14 10:32:22.500,0.024,0.027,1.025
2026/05/14 10:32:22.521,0.02,0.024,1.022
2026/05/14 10:32:22.541,0.02,0.023,1.021
2026/05/14 10:32:22.561,0.025,0.023,1.022
2026/05/14 10:32:22.582,0.02,0.023,1.019
2026/05/14 10:32:22.602,0.024,0.026,1.018
2026/05/14 10:32:22.623,0.019,0.026,1.021
2026/05/14 10:32:22.643,0.024,0.025,1.021
2026/05/14 10:32:22.664,0.022,0.027,1.021
2026/05/14 10:32:22.684,0.025,0.027,1.021
2026/05/14 10:32:22.705,0.026,0.025,1.023
2026/05/14 10:32:22.725,0.023,0.022,1.026
2026/05/14 10:32:22.746,0.025,0.025,1.026
2026/05/14 10:32:22.766,0.023,0.023,1.02
2026/05/14 10:32:22.787,0.025,0.027,1.023
2026/05/14 10:32:22.807,0.024,0.025,1.024
2026/05/14 10:32:22.828,0.021,0.027,1.021
2026/05/14 10:32:22.848,0.026,0.026,1.022
2026/05/14 10:32:22.869,0.023,0.024,1.022
2026/05/14 10:32:22.889,0.024,0.029,1.024
2026/05/14 10:32:22.909,0.023,0.027,1.024
2026/05/14 10:32:22.930,0.023,0.025,1.024
2026/05/14 10:32:22.950,0.024,0.03,1.02
2026/05/14 10:32:22.971,0.024,0.025,1.021
2026/05/14 10:32:22.991,0.027,0.024,1.019
2026/05/14 10:32:23.012,0.027,0.023,1.018
2026/05/14 10:32:23.032,0.028,0.024,1.022
2026/05/14 10:32:23.053,0.024,0.027,1.019
2026/05/14 10:32:23.073,0.026,0.024,1.022
2026/05/14 10:32:23.094,0.026,0.022,1.026
2026/05/14 10:32:23.114,0.024,0.024,1.019
2026/05/14 10:32:23.135,0.024,0.025,1.026
2026/05/14 10:32:23.155,0.023,0.027,1.023
2026/05/14 10:32:23.176,0.021,0.024,1.022
2026/05/14 10:32:23.196,0.027,0.027,1.021
2026/05/14 10:32:23.217,0.024,0.028,1.018
2026/05/14 10:32:23.237,0.019,0.03,1.025
2026/05/14 10:32:23.258,0.026,0.025,1.021
2026/05/14 10:32:23.278,0.024,0.024,1.024
2026/05/14 10:32:23.298,0.025,0.021,1.021
2026/05/14 10:32:23.319,0.022,0.023,1.022
2026/05/14 10:32:23.339,0.025,0.026,1.024
2026/05/14 10:32:23.360,0.023,0.026,1.023
2026/05/14 10:32:23.380,0.024,0.026,1.021
2026/05/14 10:32:23.401,0.023,0.024,1.021
2026/05/14 10:32:23.421,0.023,0.024,1.023
2026/05/14 10:32:23.442,0.025,0.027,1.021
2026/05/14 10:32:23.462,0.023,0.026,1.02
2026/05/14 10:32:23.483,0.026,0.028,1.021
2026/05/14 10:32:23.503,0.027,0.026,1.025
2026/05/14 10:32:23.524,0.02,0.025,1.024
2026/05/14 10:32:23.544,0.019,0.024,1.021
2026/05/14 10:32:23.565,0.025,0.026,1.023
2026/05/14 10:32:23.585,0.022,0.026,1.022
2026/05/14 10:32:23.606,0.022,0.022,1.023
2026/05/14 10:32:23.626,0.024,0.022,1.019
2026/05/14 10:32:23.646,0.026,0.026,1.024
2026/05/14 10:32:23.667,0.026,0.025,1.022
2026/05/14 10:32:23.687,0.02,0.023,1.025
2026/05/14 10:32:23.708,0.025,0.028,1.023
2026/05/14 10:32:23.728,0.026,0.027,1.023
2026/05/14 10:32:23.749,0.024,0.027,1.023
2026/05/14 10:32:23.769,0.024,0.025,1.021
2026/05/14 10:32:23.790,0.022,0.027,1.025
2026/05/14 10:32:23.810,0.023,0.026,1.023
2026/05/14 10:32:23.831,0.023,0.021,1.021
2026/05/14 10:32:23.851,0.024,0.027,1.019
2026/05/14 10:32:23.872,0.021,0.026,1.024
2026/05/14 10:32:23.892,0.023,0.024,1.023
2026/05/14 10:32:23.913,0.025,0.027,1.024
2026/05/14 10:32:23.933,0.023,0.025,1.021
2026/05/14 10:32:23.954,0.024,0.025,1.024
2026/05/14 10:32:23.974,0.021,0.025,1.024
2026/05/14 10:32:23.994,0.022,0.026,1.022
2026/05/14 10:32:24.015,0.022,0.022,1.02
2026/05/14 10:32:24.035,0.026,0.023,1.024
2026/05/14 10:32:24.056,0.024,0.026,1.021
2026/05/14 10:32:24.076,0.026,0.026,1.024
2026/05/14 10:32:24.097,0.025,0.022,1.022
2026/05/14 10:32:24.117,0.025,0.025,1.024
2026/05/14 10:32:24.138,0.024,0.024,1.024
2026/05/14 10:32:24.158,0.024,0.021,1.022
2026/05/14 10:32:24.179,0.024,0.025,1.023
2026/05/14 10:32:24.199,0.027,0.026,1.023
2026/05/14 10:32:24.220,0.024,0.025,1.02
2026/05/14 10:32:24.240,0.027,0.022,1.023
2026/05/14 10:32:24.261,0.026,0.026,1.021
2026/05/14 10:32:24.281,0.024,0.028,1.021
2026/05/14 10:32:24.302,0.025,0.02,1.024
2026/05/14 10:32:24.322,0.02,0.025,1.019
2026/05/14 10:32:24.343,0.027,0.024,1.022
2026/05/14 10:32:24.363,0.024,0.023,1.018
2026/05/14 10:32:24.383,0.026,0.026,1.021
2026/05/14 10:32:24.404,0.022,0.024,1.022
2026/05/14 10:32:24.424,0.024,0.025,1.02
2026/05/14 10:32:24.445,0.024,0.027,1.021
2026/05/14 10:32:24.465,0.023,0.024,1.023
2026/05/14 10:32:24.486,0.022,0.025,1.018
2026/05/14 10:32:24.506,0.022,0.029,1.022
2026/05/14 10:32:24.527,0.022,0.024,1.019
2026/05/14 10:32:24.547,0.022,0.026,1.022
2026/05/14 10:32:24.568,0.022,0.027,1.023
2026/05/14 10:32:24.588,0.026,0.025,1.022
2026/05/14 10:32:24.609,0.025,0.025,1.02
2026/05/14 10:32:24.629,0.025,0.021,1.022
2026/05/14 10:32:24.650,0.022,0.027,1.019
2026/05/14 10:32:24.670,0.024,0.026,1.027
2026/05/14 10:32:24.691,0.025,0.023,1.02
2026/05/14 10:32:24.711,0.027,0.025,1.02
2026/05/14 10:32:24.731,0.023,0.023,1.022
2026/05/14 10:32:24.752,0.023,0.025,1.023
2026/05/14 10:32:24.772,0.022,0.027,1.021
2026/05/14 10:32:24.793,0.025,0.026,1.02
2026/05/14 10:32:24.813,0.023,0.028,1.02
2026/05/14 10:32:24.834,0.023,0.025,1.021
2026/05/14 10:32:24.854,0.024,0.026,1.024
2026/05/14 10:32:24.875,0.022,0.026,1.027
2026/05/14 10:32:24.895,0.024,0.023,1.023
2026/05/14 10:32:24.916,0.021,0.027,1.024
2026/05/14 10:32:24.936,0.025,0.024,1.021
2026/05/14 10:32:24.957,0.019,0.026,1.021
2026/05/14 10:32:24.977,0.025,0.028,1.025
2026/05/14 10:32:24.998,0.022,0.026,1.024
2026/05/14 10:32:25.018,0.024,0.025,1.022
2026/05/14 10:32:25.039,0.024,0.025,1.021
2026/05/14 10:32:25.059,0.024,0.026,1.026
2026/05/14 10:32:25.079,0.022,0.025,1.022
2026/05/14 10:32:25.100,0.022,0.025,1.02
2026/05/14 10:32:25.120,0.022,0.025,1.022
2026/05/14 10:32:25.141,0.024,0.027,1.024
2026/05/14 10:32:25.161,0.023,0.026,1.02
2026/05/14 10:32:25.182,0.023,0.025,1.024
2026/05/14 10:32:25.202,0.027,0.027,1.022
2026/05/14 10:32:25.223,0.024,0.027,1.021
2026/05/14 10:32:25.243,0.024,0.026,1.024
2026/05/14 10:32:25.264,0.022,0.022,1.02
2026/05/14 10:32:25.284,0.026,0.025,1.022
2026/05/14 10:32:25.305,0.023,0.024,1.025
2026/05/14 10:32:25.325,0.028,0.025,1.022
2026/05/14 10:32:25.346,0.025,0.023,1.024
2026/05/14 10:32:25.366,0.025,0.026,1.022
2026/05/14 10:32:25.387,0.022,0.023,1.021
2026/05/14 10:32:25.407,0.024,0.025,1.023
2026/05/14 10:32:25.427,0.026,0.023,1.022
2026/05/14 10:32:25.448,0.023,0.024,1.025
2026/05/14 10:32:25.468,0.02,0.025,1.024
2026/05/14 10:32:25.489,0.026,0.024,1.022
2026/05/14 10:32:25.509,0.025,0.024,1.02
2026/05/14 10:32:25.530,0.027,0.024,1.023
2026/05/14 10:32:25.550,0.022,0.025,1.021
2026/05/14 10:32:25.571,0.023,0.027,1.021
2026/05/14 10:32:25.591,0.023,0.026,1.024
2026/05/14 10:32:25.612,0.024,0.025,1.026
2026/05/14 10:32:25.632,0.028,0.026,1.021
2026/05/14 10:32:25.653,0.018,0.021,1.023
2026/05/14 10:32:25.673,0.022,0.021,1.023
2026/05/14 10:32:25.694,0.024,0.027,1.026
2026/05/14 10:32:25.714,0.026,0.023,1.023
2026/05/14 10:32:25.735,0.025,0.025,1.021
2026/05/14 10:32:25.755,0.024,0.029,1.022
2026/05/14 10:32:25.776,0.023,0.028,1.022
2026/05/14 10:32:25.796,0.027,0.023,1.021
2026/05/14 10:32:25.816,0.028,0.024,1.024
2026/05/14 10:32:25.837,0.023,0.024,1.023
2026/05/14 10:32:25.857,0.025,0.026,1.024
2026/05/14 10:32:25.878,0.023,0.026,1.021
2026/05/14 10:32:25.898,0.024,0.024,1.018
2026/05/14 10:32:25.919,0.023,0.026,1.023
2026/05/14 10:32:25.939,0.023,0.026,1.02
2026/05/14 10:32:25.960,0.022,0.029,1.023
2026/05/14 10:32:25.980,0.024,0.025,1.023
2026/05/14 10:32:26.001,0.024,0.024,1.024
2026/05/14 10:32:26.021,0.028,0.029,1.02
2026/05/14 10:32:26.042,0.025,0.026,1.021
2026/05/14 10:32:26.062,0.02,0.025,1.021
2026/05/14 10:32:26.083,0.021,0.028,1.024
2026/05/14 10:32:26.103,0.023,0.026,1.019
2026/05/14 10:32:26.124,0.022,0.023,1.026
2026/05/14 10:32:26.144,0.026,0.024,1.024
2026/05/14 10:32:26.164,0.024,0.024,1.023
2026/05/14 10:32:26.185,0.025,0.024,1.024
2026/05/14 10:32:26.205,0.026,0.027,1.02
2026/05/14 10:32:26.226,0.024,0.023,1.021
2026/05/14 10:32:26.246,0.023,0.023,1.021
2026/05/14 10:32:26.267,0.026,0.022,1.021
2026/05/14 10:32:26.287,0.024,0.026,1.022
2026/05/14 10:32:26.308,0.026,0.027,1.019
2026/05/14 10:32:26.328,0.021,0.024,1.025
2026/05/14 10:32:26.349,0.023,0.025,1.019
2026/05/14 10:32:26.369,0.024,0.026,1.022
2026/05/14 10:32:26.390,0.024,0.025,1.02
2026/05/14 10:32:26.410,0.023,0.022,1.022
2026/05/14 10:32:26.431,0.023,0.024,1.02
2026/05/14 10:32:26.451,0.022,0.026,1.021
2026/05/14 10:32:26.472,0.026,0.026,1.023
2026/05/14 10:32:26.492,0.022,0.024,1.018
2026/05/14 10:32:26.512,0.024,0.023,1.024
2026/05/14 10:32:26.533,0.027,0.025,1.025
2026/05/14 10:32:26.553,0.025,0.025,1.021
2026/05/14 10:32:26.574,0.027,0.024,1.024
2026/05/14 10:32:26.594,0.02,0.028,1.019
2026/05/14 10:32:26.615,0.024,0.024,1.023
2026/05/14 10:32:26.635,0.024,0.026,1.023
2026/05/14 10:32:26.656,0.025,0.025,1.021
2026/05/14 10:32:26.676,0.019,0.024,1.019
2026/05/14 10:32:26.697,0.022,0.024,1.022
2026/05/14 10:32:26.717,0.022,0.024,1.024
2026/05/14 10:32:26.738,0.024,0.026,1.022
2026/05/14 10:32:26.758,0.025,0.025,1.023
2026/05/14 10:32:26.779,0.021,0.027,1.024
2026/05/14 10:32:26.799,0.024,0.021,1.023
2026/05/14 10:32:26.820,0.024,0.024,1.021
2026/05/14 10:32:26.840,0.023,0.024,1.021
2026/05/14 10:32:26.861,0.024,0.024,1.026
2026/05/14 10:32:26.881,0.025,0.023,1.023
2026/05/14 10:32:26.901,0.026,0.023,1.022
2026/05/14 10:32:26.922,0.023,0.027,1.019
2026/05/14 10:32:26.942,0.025,0.024,1.021
2026/05/14 10:32:26.963,0.023,0.024,1.021
2026/05/14 10:32:26.983,0.029,0.027,1.018
2026/05/14 10:32:27.004,0.024,0.029,1.022
2026/05/14 10:32:27.024,0.024,0.024,1.022
2026/05/14 10:32:27.045,0.022,0.026,1.02
2026/05/14 10:32:27.065,0.024,0.024,1.023
2026/05/14 10:32:27.086,0.023,0.025,1.021
2026/05/14 10:32:27.106,0.02,0.023,1.024
2026/05/14 10:32:27.127,0.023,0.025,1.018
2026/05/14 10:32:27.147,0.023,0.024,1.022
2026/05/14 10:32:27.168,0.023,0.024,1.02
2026/05/14 10:32:27.188,0.024,0.024,1.022
2026/05/14 10:32:27.209,0.025,0.024,1.018
2026/05/14 10:32:27.229,0.024,0.027,1.023
2026/05/14 10:32:27.249,0.026,0.026,1.02
2026/05/14 10:32:27.270,0.026,0.025,1.02
2026/05/14 10:32:27.290,0.024,0.024,1.021
2026/05/14 10:32:27.311,0.024,0.024,1.024
2026/05/14 10:32:27.331,0.022,0.026,1.021
2026/05/14 10:32:27.352,0.02,0.028,1.022
2026/05/14 10:32:27.372,0.024,0.027,1.021
2026/05/14 10:32:27.393,0.024,0.027,1.02
2026/05/14 10:32:27.413,0.023,0.025,1.02
2026/05/14 10:32:27.434,0.02,0.027,1.028
2026/05/14 10:32:27.454,0.024,0.026,1.022
2026/05/14 10:32:27.475,0.025,0.02,1.024
2026/05/14 10:32:27.495,0.025,0.028,1.021
2026/05/14 10:32:27.516,0.022,0.027,1.02
2026/05/14 10:32:27.536,0.024,0.023,1.022
2026/05/14 10:32:27.557,0.026,0.027,1.023
2026/05/14 10:32:27.577,0.022,0.026,1.023
2026/05/14 10:32:27.597,0.023,0.027,1.02
2026/05/14 10:32:27.618,0.026,0.028,1.021
2026/05/14 10:32:27.638,0.026,0.027,1.021
2026/05/14 10:32:27.659,0.021,0.027,1.024
2026/05/14 10:32:27.679,0.024,0.03,1.025
2026/05/14 10:32:27.700,0.023,0.021,1.024
2026/05/14 10:32:27.720,0.026,0.025,1.022
2026/05/14 10:32:27.741,0.022,0.028,1.024
2026/05/14 10:32:27.761,0.023,0.021,1.018
2026/05/14 10:32:27.782,0.025,0.026,1.026
2026/05/14 10:32:27.802,0.021,0.027,1.02
2026/05/14 10:32:27.823,0.023,0.028,1.021
2026/05/14 10:32:27.843,0.023,0.026,1.021
2026/05/14 10:32:27.864,0.022,0.022,1.025
2026/05/14 10:32:27.884,0.024,0.026,1.023
2026/05/14 10:32:27.905,0.021,0.023,1.021
2026/05/14 10:32:27.925,0.025,0.027,1.019
2026/05/14 10:32:27.946,0.025,0.024,1.023
2026/05/14 10:32:27.966,0.025,0.026,1.023
2026/05/14 10:32:27.986,0.021,0.021,1.023
2026/05/14 10:32:28.007,0.025,0.023,1.022
2026/05/14 10:32:28.027,0.023,0.027,1.02
2026/05/14 10:32:28.048,0.024,0.027,1.019
2026/05/14 10:32:28.068,0.027,0.022,1.023
2026/05/14 10:32:28.089,0.022,0.024,1.025
2026/05/14 10:32:28.109,0.026,0.025,1.021
2026/05/14 10:32:28.130,0.023,0.026,1.021
2026/05/14 10:32:28.150,0.021,0.026,1.021
2026/05/14 10:32:28.171,0.022,0.024,1.021
2026/05/14 10:32:28.191,0.026,0.027,1.02
2026/05/14 10:32:28.212,0.023,0.022,1.02
2026/05/14 10:32:28.232,0.023,0.024,1.023
2026/05/14 10:32:28.253,0.023,0.026,1.026
2026/05/14 10:32:28.273,0.021,0.025,1.021
2026/05/14 10:32:28.294,0.028,0.027,1.018
2026/05/14 10:32:28.314,0.023,0.027,1.025
2026/05/14 10:32:28.334,0.021,0.025,1.023
2026/05/14 10:32:28.355,0.024,0.025,1.018
2026/05/14 10:32:28.375,0.022,0.025,1.025
2026/05/14 10:32:28.396,0.025,0.022,1.021
2026/05/14 10:32:28.416,0.02,0.028,1.02
2026/05/14 10:32:28.437,0.022,0.022,1.02
2026/05/14 10:32:28.457,0.023,0.025,1.022
2026/05/14 10:32:28.478,0.027,0.027,1.022
2026/05/14 10:32:28.498,0.026,0.024,1.021
2026/05/14 10:32:28.519,0.02,0.029,1.022
2026/05/14 10:32:28.539,0.022,0.021,1.022
2026/05/14 10:32:28.560,0.024,0.027,1.023
2026/05/14 10:32:28.580,0.021,0.025,1.022
2026/05/14 10:32:28.601,0.023,0.028,1.022
2026/05/14 10:32:28.621,0.022,0.022,1.024
2026/05/14 10:32:28.642,0.022,0.025,1.025
2026/05/14 10:32:28.662,0.025,0.022,1.02
2026/05/14 10:32:28.682,0.023,0.025,1.022
2026/05/14 10:32:28.703,0.024,0.026,1.023
2026/05/14 10:32:28.723,0.024,0.024,1.022
2026/05/14 10:32:28.744,0.022,0.025,1.023
2026/05/14 10:32:28.764,0.024,0.028,1.025
2026/05/14 10:32:28.785,0.023,0.023,1.022
2026/05/14 10:32:28.805,0.021,0.025,1.025
2026/05/14 10:32:28.826,0.026,0.025,1.02
2026/05/14 10:32:28.846,0.027,0.026,1.022
2026/05/14 10:32:28.867,0.024,0.027,1.021
2026/05/14 10:32:28.887,0.024,0.027,1.024
2026/05/14 10:32:28.908,0.022,0.027,1.025
2026/05/14 10:32:28.928,0.023,0.026,1.023
2026/05/14 10:32:28.949,0.023,0.023,1.022
2026/05/14 10:32:28.969,0.02,0.022,1.023
2026/05/14 10:32:28.990,0.021,0.023,1.021
2026/05/14 10:32:29.010,0.025,0.022,1.02
2026/05/14 10:32:29.031,0.024,0.023,1.026
2026/05/14 10:32:29.051,0.023,0.026,1.024
2026/05/14 10:32:29.071,0.023,0.025,1.022
2026/05/14 10:32:29.092,0.02,0.025,1.023
2026/05/14 10:32:29.112,0.024,0.024,1.02
2026/05/14 10:32:29.133,0.022,0.022,1.02
2026/05/14 10:32:29.153,0.028,0.026,1.02
2026/05/14 10:32:29.174,0.026,0.026,1.021
2026/05/14 10:32:29.194,0.025,0.024,1.02
2026/05/14 10:32:29.215,0.021,0.025,1.023
2026/05/14 10:32:29.235,0.026,0.025,1.018
2026/05/14 10:32:29.256,0.021,0.024,1.022
2026/05/14 10:32:29.276,0.02,0.023,1.021
2026/05/14 10:32:29.297,0.024,0.024,1.023
2026/05/14 10:32:29.317,0.022,0.024,1.024
2026/05/14 10:32:29.338,0.023,0.027,1.027
2026/05/14 10:32:29.358,0.023,0.028,1.02
2026/05/14 10:32:29.379,0.026,0.026,1.023
2026/05/14 10:32:29.399,0.023,0.021,1.023
2026/05/14 10:32:29.419,0.023,0.027,1.018
2026/05/14 10:32:29.440,0.02,0.026,1.021
2026/05/14 10:32:29.460,0.026,0.024,1.023
2026/05/14 10:32:29.481,0.022,0.02,1.021
2026/05/14 10:32:29.501,0.026,0.025,1.025
2026/05/14 10:32:29.522,0.022,0.027,1.021
2026/05/14 10:32:29.542,0.019,0.021,1.02
2026/05/14 10:32:29.563,0.021,0.025,1.025
2026/05/14 10:32:29.583,0.025,0.022,1.021
2026/05/14 10:32:29.604,0.024,0.031,1.022
2026/05/14 10:32:29.624,0.024,0.025,1.022
2026/05/14 10:32:29.645,0.023,0.021,1.018
2026/05/14 10:32:29.665,0.023,0.021,1.023
2026/05/14 10:32:29.686,0.025,0.022,1.023
2026/05/14 10:32:29.706,0.027,0.025,1.022
2026/05/14 10:32:29.727,0.024,0.025,1.021
2026/05/14 10:32:29.747,0.023,0.026,1.022
2026/05/14 10:32:29.768,0.027,0.025,1.021
2026/05/14 10:32:29.788,0.026,0.027,1.023
2026/05/14 10:32:29.808,0.022,0.025,1.02
2026/05/14 10:32:29.829,0.02,0.027,1.021
2026/05/14 10:32:29.849,0.025,0.023,1.02
2026/05/14 10:32:29.870,0.023,0.03,1.021
2026/05/14 10:32:29.890,0.028,0.024,1.023
2026/05/14 10:32:29.911,0.024,0.025,1.024
2026/05/14 10:32:29.931,0.026,0.023,1.024
2026/05/14 10:32:29.952,0.023,0.022,1.02
2026/05/14 10:32:29.972,0.024,0.027,1.018
2026/05/14 10:32:29.993,0.025,0.024,1.021
2026/05/14 10:32:30.013,0.023,0.026,1.025
2026/05/14 10:32:30.034,0.024,0.029,1.02
2026/05/14 10:32:30.054,0.025,0.025,1.022
2026/05/14 10:32:30.075,0.022,0.027,1.02
2026/05/14 10:32:30.095,0.025,0.025,1.02
2026/05/14 10:32:30.116,0.022,0.024,1.026
2026/05/14 10:32:30.136,0.027,0.026,1.025
2026/05/14 10:32:30.156,0.023,0.024,1.022
2026/05/14 10:32:30.177,0.022,0.028,1.021
2026/05/14 10:32:30.197,0.025,0.022,1.02
2026/05/14 10:32:30.218,0.025,0.025,1.022
2026/05/14 10:32:30.238,0.02,0.023,1.021
2026/05/14 10:32:30.259,0.023,0.024,1.023
2026/05/14 10:32:30.279,0.025,0.024,1.024
2026/05/14 10:32:30.300,0.027,0.027,1.022
2026/05/14 10:32:30.320,0.021,0.025,1.021
2026/05/14 10:32:30.341,0.02,0.027,1.025
2026/05/14 10:32:30.361,0.022,0.022,1.02
2026/05/14 10:32:30.382,0.025,0.023,1.022
2026/05/14 10:32:30.402,0.024,0.024,1.021
2026/05/14 10:32:30.423,0.023,0.025,1.023
2026/05/14 10:32:30.443,0.022,0.027,1.023
2026/05/14 10:32:30.464,0.024,0.024,1.021
2026/05/14 10:32:30.484,0.022,0.022,1.022
2026/05/14 10:32:30.505,0.024,0.025,1.02
2026/05/14 10:32:30.525,0.024,0.026,1.022
2026/05/14 10:32:30.545,0.021,0.023,1.025
2026/05/14 10:32:30.566,0.024,0.03,1.022
2026/05/14 10:32:30.586,0.022,0.024,1.023
2026/05/14 10:32:30.607,0.025,0.027,1.023
2026/05/14 10:32:30.627,0.019,0.021,1.021
2026/05/14 10:32:30.648,0.02,0.026,1.023
2026/05/14 10:32:30.668,0.026,0.026,1.023
2026/05/14 10:32:30.689,0.023,0.023,1.023
2026/05/14 10:32:30.709,0.025,0.027,1.024
2026/05/14 10:32:30.730,0.021,0.025,1.02
2026/05/14 10:32:30.750,0.027,0.025,1.026
2026/05/14 10:32:30.771,0.023,0.024,1.017
2026/05/14 10:32:30.791,0.023,0.026,1.021
2026/05/14 10:32:30.812,0.025,0.026,1.021
2026/05/14 10:32:30.832,0.022,0.025,1.02
2026/05/14 10:32:30.853,0.022,0.025,1.02
2026/05/14 10:32:30.873,0.022,0.025,1.022
2026/05/14 10:32:30.894,0.023,0.023,1.021
2026/05/14 10:32:30.914,0.024,0.024,1.022
2026/05/14 10:32:30.934,0.025,0.022,1.021
2026/05/14 10:32:30.955,0.026,0.022,1.021
2026/05/14 10:32:30.975,0.029,0.026,1.023
2026/05/14 10:32:30.996,0.021,0.025,1.023
2026/05/14 10:32:31.016,0.023,0.027,1.019
2026/05/14 10:32:31.037,0.023,0.022,1.026
2026/05/14 10:32:31.057,0.022,0.022,1.021
2026/05/14 10:32:31.078,0.025,0.022,1.023
2026/05/14 10:32:31.098,0.028,0.024,1.025
2026/05/14 10:32:31.119,0.024,0.025,1.021
2026/05/14 10:32:31.139,0.027,0.027,1.024
2026/05/14 10:32:31.160,0.025,0.024,1.02
2026/05/14 10:32:31.180,0.023,0.022,1.02
2026/05/14 10:32:31.201,0.022,0.026,1.022
2026/05/14 10:32:31.221,0.024,0.027,1.024
2026/05/14 10:32:31.242,0.024,0.025,1.024
2026/05/14 10:32:31.262,0.021,0.022,1.021
2026/05/14 10:32:31.282,0.024,0.024,1.021
2026/05/14 10:32:31.303,0.021,0.025,1.023
2026/05/14 10:32:31.323,0.025,0.025,1.019
2026/05/14 10:32:31.344,0.026,0.025,1.021
2026/05/14 10:32:31.364,0.021,0.026,1.021
2026/05/14 10:32:31.385,0.023,0.021,1.025
2026/05/14 10:32:31.405,0.025,0.028,1.023
2026/05/14 10:32:31.426,0.021,0.02,1.025
2026/05/14 10:32:31.446,0.024,0.026,1.021
2026/05/14 10:32:31.467,0.024,0.026,1.022
2026/05/14 10:32:31.487,0.024,0.024,1.02
2026/05/14 10:32:31.508,0.024,0.026,1.02
2026/05/14 10:32:31.528,0.024,0.026,1.02
2026/05/14 10:32:31.549,0.025,0.025,1.023
2026/05/14 10:32:31.569,0.024,0.025,1.023
2026/05/14 10:32:31.590,0.023,0.025,1.023
2026/05/14 10:32:31.610,0.025,0.024,1.022
2026/05/14 10:32:31.631,0.022,0.027,1.019
2026/05/14 10:32:31.651,0.022,0.027,1.022
2026/05/14 10:32:31.671,0.025,0.023,1.018
2026/05/14 10:32:31.692,0.025,0.029,1.023
2026/05/14 10:32:31.712,0.023,0.027,1.022
2026/05/14 10:32:31.733,0.026,0.026,1.02
2026/05/14 10:32:31.753,0.022,0.025,1.023
2026/05/14 10:32:31.774,0.024,0.028,1.021
2026/05/14 10:32:31.794,0.021,0.024,1.021
2026/05/14 10:32:31.815,0.023,0.024,1.021
2026/05/14 10:32:31.835,0.02,0.026,1.02
2026/05/14 10:32:31.856,0.026,0.025,1.019
2026/05/14 10:32:31.876,0.022,0.023,1.022
2026/05/14 10:32:31.897,0.02,0.026,1.022
2026/05/14 10:32:31.917,0.022,0.022,1.022
2026/05/14 10:32:31.938,0.021,0.024,1.021
2026/05/14 10:32:31.958,0.027,0.025,1.028
2026/05/14 10:32:31.979,0.023,0.027,1.021
2026/05/14 10:32:31.999,0.025,0.028,1.026
2026/05/14 10:32:32.019,0.022,0.027,1.019
2026/05/14 10:32:32.040,0.025,0.024,1.017
2026/05/14 10:32:32.060,0.025,0.027,1.02
2026/05/14 10:32:32.081,0.023,0.027,1.021
2026/05/14 10:32:32.101,0.026,0.023,1.024
2026/05/14 10:32:32.122,0.02,0.022,1.021
2026/05/14 10:32:32.142,0.023,0.027,1.022
2026/05/14 10:32:32.163,0.023,0.023,1.024
2026/05/14 10:32:32.183,0.026,0.028,1.024
2026/05/14 10:32:32.204,0.023,0.023,1.018
2026/05/14 10:32:32.224,0.026,0.023,1.022
2026/05/14 10:32:32.245,0.022,0.026,1.021
2026/05/14 10:32:32.265,0.021,0.025,1.022
2026/05/14 10:32:32.286,0.02,0.022,1.015
2026/05/14 10:32:32.306,0.024,0.023,1.021
2026/05/14 10:32:32.327,0.026,0.024,1.022
2026/05/14 10:32:32.347,0.024,0.025,1.022
2026/05/14 10:32:32.368,0.027,0.027,1.021
2026/05/14 10:32:32.388,0.023,0.025,1.019
2026/05/14 10:32:32.408,0.024,0.026,1.019
2026/05/14 10:32:32.429,0.025,0.028,1.021
2026/05/14 10:32:32.449,0.029,0.024,1.023
2026/05/14 10:32:32.470,0.024,0.023,1.021
2026/05/14 10:32:32.490,0.023,0.026,1.027
2026/05/14 10:32:32.511,0.024,0.024,1.021
2026/05/14 10:32:32.531,0.021,0.024,1.021
2026/05/14 10:32:32.552,0.027,0.027,1.024
2026/05/14 10:32:32.572,0.023,0.025,1.018
2026/05/14 10:32:32.593,0.024,0.026,1.021
2026/05/14 10:32:32.613,0.024,0.024,1.026
2026/05/14 10:32:32.634,0.025,0.022,1.021
2026/05/14 10:32:32.654,0.024,0.023,1.024
2026/05/14 10:32:32.675,0.022,0.026,1.02
2026/05/14 10:32:32.695,0.022,0.023,1.022
2026/05/14 10:32:32.716,0.022,0.026,1.018
2026/05/14 10:32:32.736,0.02,0.023,1.024
2026/05/14 10:32:32.756,0.027,0.027,1.02
2026/05/14 10:32:32.777,0.022,0.026,1.023
2026/05/14 10:32:32.797,0.024,0.026,1.021
2026/05/14 10:32:32.818,0.02,0.024,1.02
2026/05/14 10:32:32.838,0.024,0.022,1.021
2026/05/14 10:32:32.859,0.018,0.019,1.021
2026/05/14 10:32:32.879,0.026,0.027,1.019
2026/05/14 10:32:32.900,0.025,0.021,1.024
2026/05/14 10:32:32.920,0.025,0.026,1.022
2026/05/14 10:32:32.941,0.021,0.027,1.022
2026/05/14 10:32:32.961,0.022,0.025,1.024
2026/05/14 10:32:32.982,0.025,0.024,1.022
2026/05/14 10:32:33.002,0.026,0.025,1.02
2026/05/14 10:32:33.023,0.024,0.025,1.024
2026/05/14 10:32:33.043,0.026,0.025,1.023
2026/05/14 10:32:33.064,0.025,0.023,1.02
2026/05/14 10:32:33.084,0.024,0.024,1.019
2026/05/14 10:32:33.104,0.023,0.027,1.021
2026/05/14 10:32:33.125,0.023,0.024,1.021
2026/05/14 10:32:33.145,0.025,0.027,1.02
2026/05/14 10:32:33.166,0.023,0.025,1.021
2026/05/14 10:32:33.186,0.025,0.022,1.021
2026/05/14 10:32:33.207,0.023,0.025,1.017
2026/05/14 10:32:33.227,0.025,0.026,1.022
2026/05/14 10:32:33.248,0.025,0.028,1.019
2026/05/14 10:32:33.268,0.021,0.025,1.02
2026/05/14 10:32:33.289,0.025,0.023,1.022
2026/05/14 10:32:33.309,0.024,0.023,1.021
2026/05/14 10:32:33.330,0.024,0.026,1.026
2026/05/14 10:32:33.350,0.022,0.024,1.019
2026/05/14 10:32:33.371,0.022,0.026,1.019
2026/05/14 10:32:33.391,0.022,0.025,1.023
2026/05/14 10:32:33.412,0.025,0.026,1.022
2026/05/14 10:32:33.432,0.025,0.028,1.021
2026/05/14 10:32:33.452,0.021,0.026,1.02
2026/05/14 10:32:33.473,0.024,0.03,1.021
2026/05/14 10:32:33.493,0.022,0.025,1.023
2026/05/14 10:32:33.514,0.024,0.025,1.022
2026/05/14 10:32:33.534,0.022,0.024,1.023
2026/05/14 10:32:33.555,0.024,0.027,1.019
2026/05/14 10:32:33.575,0.026,0.024,1.022
2026/05/14 10:32:33.596,0.022,0.026,1.02
2026/05/14 10:32:33.616,0.023,0.024,1.02
2026/05/14 10:32:33.637,0.024,0.024,1.023
2026/05/14 10:32:33.657,0.025,0.023,1.022
2026/05/14 10:32:33.678,0.026,0.025,1.025
2026/05/14 10:32:33.698,0.024,0.024,1.019
2026/05/14 10:32:33.719,0.026,0.027,1.021
2026/05/14 10:32:33.739,0.026,0.027,1.022
2026/05/14 10:32:33.760,0.023,0.029,1.024
2026/05/14 10:32:33.780,0.025,0.024,1.022
2026/05/14 10:32:33.801,0.026,0.025,1.021
2026/05/14 10:32:33.821,0.025,0.027,1.021
2026/05/14 10:32:33.841,0.025,0.024,1.022
2026/05/14 10:32:33.862,0.022,0.024,1.023
2026/05/14 10:32:33.882,0.021,0.023,1.023
2026/05/14 10:32:33.903,0.024,0.025,1.02
2026/05/14 10:32:33.923,0.026,0.027,1.024
2026/05/14 10:32:33.944,0.023,0.026,1.022
2026/05/14 10:32:33.964,0.021,0.021,1.021
2026/05/14 10:32:33.985,0.023,0.025,1.027
2026/05/14 10:32:34.005,0.025,0.028,1.02
2026/05/14 10:32:34.026,0.026,0.024,1.022
2026/05/14 10:32:34.046,0.027,0.026,1.023
2026/05/14 10:32:34.067,0.021,0.024,1.018
2026/05/14 10:32:34.087,0.023,0.027,1.023
2026/05/14 10:32:34.108,0.02,0.025,1.024
2026/05/14 10:32:34.128,0.024,0.02,1.021
2026/05/14 10:32:34.149,0.021,0.023,1.021
2026/05/14 10:32:34.169,0.022,0.027,1.025
2026/05/14 10:32:34.189,0.023,0.024,1.019
2026/05/14 10:32:34.210,0.022,0.024,1.024
2026/05/14 10:32:34.230,0.021,0.028,1.021
2026/05/14 10:32:34.251,0.022,0.024,1.024
2026/05/14 10:32:34.271,0.023,0.021,1.024
2026/05/14 10:32:34.292,0.023,0.025,1.024
2026/05/14 10:32:34.312,0.022,0.024,1.026
2026/05/14 10:32:34.333,0.023,0.029,1.026
2026/05/14 10:32:34.353,0.023,0.026,1.021
2026/05/14 10:32:34.374,0.023,0.027,1.021
2026/05/14 10:32:34.394,0.026,0.029,1.022
2026/05/14 10:32:34.415,0.017,0.024,1.022
2026/05/14 10:32:34.435,0.025,0.029,1.023
2026/05/14 10:32:34.456,0.022,0.026,1.022
2026/05/14 10:32:34.476,0.025,0.026,1.022
2026/05/14 10:32:34.497,0.023,0.024,1.018
2026/05/14 10:32:34.517,0.027,0.026,1.018
2026/05/14 10:32:34.537,0.024,0.027,1.024
2026/05/14 10:32:34.558,0.026,0.025,1.018
2026/05/14 10:32:34.578,0.021,0.023,1.02
2026/05/14 10:32:34.599,0.021,0.026,1.022
2026/05/14 10:32:34.619,0.026,0.021,1.022
2026/05/14 10:32:34.640,0.024,0.025,1.021
2026/05/14 10:32:34.660,0.02,0.027,1.021
2026/05/14 10:32:34.681,0.024,0.025,1.023
2026/05/14 10:32:34.701,0.023,0.027,1.022
2026/05/14 10:32:34.722,0.024,0.026,1.019
2026/05/14 10:32:34.742,0.021,0.024,1.02
2026/05/14 10:32:34.763,0.023,0.025,1.024
2026/05/14 10:32:34.783,0.026,0.027,1.022
2026/05/14 10:32:34.804,0.026,0.027,1.019
2026/05/14 10:32:34.824,0.025,0.027,1.024
2026/05/14 10:32:34.845,0.023,0.025,1.024
2026/05/14 10:32:34.865,0.023,0.027,1.018
2026/05/14 10:32:34.886,0.027,0.023,1.022
2026/05/14 10:32:34.906,0.021,0.024,1.02
2026/05/14 10:32:34.926,0.027,0.023,1.022
2026/05/14 10:32:34.947,0.022,0.025,1.027
2026/05/14 10:32:34.967,0.023,0.027,1.022
2026/05/14 10:32:34.988,0.022,0.024,1.021
2026/05/14 10:32:35.008,0.021,0.025,1.024
2026/05/14 10:32:35.029,0.027,0.024,1.022
2026/05/14 10:32:35.049,0.025,0.028,1.02
2026/05/14 10:32:35.070,0.025,0.024,1.024
2026/05/14 10:32:35.090,0.021,0.026,1.027
2026/05/14 10:32:35.111,0.022,0.023,1.021
2026/05/14 10:32:35.131,0.024,0.03,1.023
2026/05/14 10:32:35.152,0.018,0.023,1.023
2026/05/14 10:32:35.172,0.022,0.025,1.023
2026/05/14 10:32:35.193,0.022,0.022,1.022
2026/05/14 10:32:35.213,0.025,0.026,1.022
2026/05/14 10:32:35.234,0.026,0.025,1.024
2026/05/14 10:32:35.254,0.022,0.024,1.024
2026/05/14 10:32:35.274,0.024,0.024,1.022
2026/05/14 10:32:35.295,0.024,0.026,1.016
2026/05/14 10:32:35.315,0.027,0.028,1.022
2026/05/14 10:32:35.336,0.025,0.023,1.023
2026/05/14 10:32:35.356,0.023,0.022,1.024
2026/05/14 10:32:35.377,0.023,0.023,1.023
2026/05/14 10:32:35.397,0.026,0.025,1.022
2026/05/14 10:32:35.418,0.025,0.022,1.023
2026/05/14 10:32:35.438,0.023,0.026,1.023
2026/05/14 10:32:35.459,0.022,0.027,1.02
2026/05/14 10:32:35.479,0.024,0.025,1.025
2026/05/14 10:32:35.500,0.022,0.024,1.021
2026/05/14 10:32:35.520,0.027,0.024,1.02
2026/05/14 10:32:35.541,0.02,0.024,1.019
2026/05/14 10:32:35.561,0.023,0.025,1.019
2026/05/14 10:32:35.582,0.026,0.025,1.022
2026/05/14 10:32:35.602,0.026,0.026,1.022
2026/05/14 10:32:35.623,0.024,0.028,1.026
2026/05/14 10:32:35.643,0.023,0.025,1.023
2026/05/14 10:32:35.663,0.027,0.023,1.02
2026/05/14 10:32:35.684,0.027,0.023,1.018
2026/05/14 10:32:35.704,0.022,0.022,1.024
2026/05/14 10:32:35.725,0.024,0.027,1.024
2026/05/14 10:32:35.745,0.022,0.026,1.023
2026/05/14 10:32:35.766,0.024,0.022,1.02
2026/05/14 10:32:35.786,0.023,0.027,1.019
2026/05/14 10:32:35.807,0.024,0.028,1.021
2026/05/14 10:32:35.827,0.023,0.026,1.018
2026/05/14 10:32:35.848,0.026,0.023,1.02
2026/05/14 10:32:35.868,0.026,0.022,1.021
2026/05/14 10:32:35.889,0.023,0.026,1.02
2026/05/14 10:32:35.909,0.026,0.029,1.023
2026/05/14 10:32:35.930,0.026,0.027,1.021
2026/05/14 10:32:35.950,0.025,0.025,1.019
2026/05/14 10:32:35.971,0.025,0.025,1.022
2026/05/14 10:32:35.991,0.026,0.024,1.019
2026/05/14 10:32:36.011,0.025,0.023,1.022
2026/05/14 10:32:36.032,0.024,0.024,1.021
2026/05/14 10:32:36.052,0.024,0.024,1.021
2026/05/14 10:32:36.073,0.024,0.026,1.019
2026/05/14 10:32:36.093,0.022,0.024,1.023
2026/05/14 10:32:36.114,0.024,0.025,1.026
2026/05/14 10:32:36.134,0.028,0.025,1.022
2026/05/14 10:32:36.155,0.021,0.022,1.025
2026/05/14 10:32:36.175,0.025,0.024,1.021
2026/05/14 10:32:36.196,0.024,0.027,1.023
2026/05/14 10:32:36.216,0.021,0.026,1.022
2026/05/14 10:32:36.237,0.025,0.025,1.021
2026/05/14 10:32:36.257,0.023,0.027,1.024
2026/05/14 10:32:36.278,0.021,0.023,1.025
2026/05/14 10:32:36.298,0.025,0.023,1.023
2026/05/14 10:32:36.319,0.027,0.025,1.022
2026/05/14 10:32:36.339,0.023,0.023,1.024
2026/05/14 10:32:36.359,0.023,0.024,1.022
2026/05/14 10:32:36.380,0.022,0.026,1.025
2026/05/14 10:32:36.400,0.026,0.025,1.022
2026/05/14 10:32:36.421,0.027,0.024,1.022
2026/05/14 10:32:36.441,0.02,0.025,1.019
2026/05/14 10:32:36.462,0.024,0.022,1.02
2026/05/14 10:32:36.482,0.022,0.021,1.025
2026/05/14 10:32:36.503,0.022,0.026,1.024
2026/05/14 10:32:36.523,0.028,0.023,1.024
2026/05/14 10:32:36.544,0.021,0.027,1.02
2026/05/14 10:32:36.564,0.027,0.026,1.021
2026/05/14 10:32:36.585,0.024,0.023,1.024
2026/05/14 10:32:36.605,0.027,0.023,1.021
2026/05/14 10:32:36.626,0.023,0.027,1.022
2026/05/14 10:32:36.646,0.025,0.025,1.021
2026/05/14 10:32:36.667,0.023,0.024,1.024
2026/05/14 10:32:36.687,0.027,0.024,1.022
2026/05/14 10:32:36.708,0.021,0.023,1.022
2026/05/14 10:32:36.728,0.022,0.023,1.02
2026/05/14 10:32:36.748,0.024,0.025,1.022
2026/05/14 10:32:36.769,0.024,0.022,1.021
2026/05/14 10:32:36.789,0.026,0.025,1.021
2026/05/14 10:32:36.810,0.022,0.024,1.023
2026/05/14 10:32:36.830,0.025,0.019,1.02
2026/05/14 10:32:36.851,0.025,0.022,1.02
2026/05/14 10:32:36.871,0.022,0.023,1.025
2026/05/14 10:32:36.892,0.023,0.027,1.024
2026/05/14 10:32:36.912,0.028,0.024,1.023
2026/05/14 10:32:36.933,0.027,0.023,1.02
2026/05/14 10:32:36.953,0.031,0.026,1.025
2026/05/14 10:32:36.974,0.027,0.025,1.023
2026/05/14 10:32:36.994,0.024,0.02,1.019
2026/05/14 10:32:37.015,0.02,0.022,1.019
2026/05/14 10:32:37.035,0.018,0.022,1.017
2026/05/14 10:32:37.056,0.016,0.026,1.02
2026/05/14 10:32:37.076,0.017,0.027,1.019
2026/05/14 10:32:37.096,0.023,0.032,1.019
2026/05/14 10:32:37.117,0.026,0.033,1.019
2026/05/14 10:32:37.137,0.022,0.031,1.022
2026/05/14 10:32:37.158,0.019,0.026,1.022
2026/05/14 10:32:37.178,0.021,0.021,1.022
2026/05/14 10:32:37.199,0.024,0.021,1.022
2026/05/14 10:32:37.219,0.025,0.026,1.021
2026/05/14 10:32:37.240,0.028,0.025,1.021
2026/05/14 10:32:37.260,0.027,0.026,1.027
2026/05/14 10:32:37.281,0.028,0.028,1.023
2026/05/14 10:32:37.301,0.024,0.027,1.021
2026/05/14 10:32:37.322,0.027,0.018,1.051
2026/05/14 10:32:37.342,0.23,-0.107,0.872
2026/05/14 10:32:37.363,-0.313,-0.035,1.085
2026/05/14 10:32:37.383,0.164,0.054,0.91
2026/05/14 10:32:37.404,0.022,0.082,1.015
2026/05/14 10:32:37.424,0.027,0.005,1.093
2026/05/14 10:32:37.444,0.037,0.026,1.018
2026/05/14 10:32:37.465,0.011,0.025,1.041
2026/05/14 10:32:37.485,0.005,0.017,1.018
2026/05/14 10:32:37.506,0.03,0.013,1.01
2026/05/14 10:32:37.526,0.027,0.016,1.007
2026/05/14 10:32:37.547,0.032,0.012,1.011
2026/05/14 10:32:37.567,0.036,0.017,1.006
2026/05/14 10:32:37.588,0.039,0.026,1.021
2026/05/14 10:32:37.608,0.038,0.027,1.011
2026/05/14 10:32:37.629,0.019,0.037,1.025
2026/05/14 10:32:37.649,0.021,0.03,1.015
2026/05/14 10:32:37.670,0.01,0.032,1.021
2026/05/14 10:32:37.690,0.009,0.03,1.025
2026/05/14 10:32:37.711,0.014,0.03,1.03
2026/05/14 10:32:37.731,0.015,0.029,1.014
2026/05/14 10:32:37.752,0.019,0.031,1.021
2026/05/14 10:32:37.772,0.027,0.024,1.01
2026/05/14 10:32:37.793,0.039,0.024,1.026
2026/05/14 10:32:37.813,0.031,0.016,1.029
2026/05/14 10:32:37.833,0.027,0.012,1.022
2026/05/14 10:32:37.854,0.027,0.011,1.021
2026/05/14 10:32:37.874,0.024,0.018,1.016
2026/05/14 10:32:37.895,0.029,0.024,1.024
2026/05/14 10:32:37.915,0.026,0.03,1.021
2026/05/14 10:32:37.936,0.022,0.035,1.02
2026/05/14 10:32:37.956,0.015,0.03,1.022
2026/05/14 10:32:37.977,0.013,0.032,1.023
2026/05/14 10:32:37.997,0.013,0.032,1.022
2026/05/14 10:32:38.018,0.022,0.028,1.019
2026/05/14 10:32:38.038,0.03,0.026,1.025
2026/05/14 10:32:38.059,0.03,0.025,1.021
2026/05/14 10:32:38.079,0.026,0.021,1.02
2026/05/14 10:32:38.100,0.028,0.017,1.024
2026/05/14 10:32:38.120,0.029,0.017,1.02
2026/05/14 10:32:38.141,0.033,0.019,1.018
2026/05/14 10:32:38.161,0.033,0.022,1.024
2026/05/14 10:32:38.182,0.028,0.027,1.024
2026/05/14 10:32:38.202,0.02,0.027,1.015
2026/05/14 10:32:38.222,0.013,0.034,1.019
2026/05/14 10:32:38.243,0.014,0.032,1.024
2026/05/14 10:32:38.263,0.014,0.031,1.019
2026/05/14 10:32:38.284,0.019,0.037,1.023
2026/05/14 10:32:38.304,0.02,0.03,1.021
2026/05/14 10:32:38.325,0.027,0.028,1.025
2026/05/14 10:32:38.345,0.026,0.02,1.021
2026/05/14 10:32:38.366,0.027,0.021,1.023
2026/05/14 10:32:38.386,0.03,0.018,1.023
2026/05/14 10:32:38.407,0.029,0.021,1.022
2026/05/14 10:32:38.427,0.033,0.021,1.017
2026/05/14 10:32:38.448,0.032,0.025,1.022
2026/05/14 10:32:38.468,0.026,0.027,1.02
2026/05/14 10:32:38.489,0.019,0.024,1.024
2026/05/14 10:32:38.509,0.016,0.026,1.017
2026/05/14 10:32:38.530,0.014,0.026,1.023
2026/05/14 10:32:38.550,0.019,0.029,1.018
2026/05/14 10:32:38.570,0.019,0.034,1.018
2026/05/14 10:32:38.591,0.026,0.028,1.027
2026/05/14 10:32:38.611,0.025,0.028,1.021
2026/05/14 10:32:38.632,0.027,0.022,1.023
2026/05/14 10:32:38.652,0.027,0.02,1.021
2026/05/14 10:32:38.673,0.025,0.019,1.021
2026/05/14 10:32:38.693,0.022,0.019,1.022
2026/05/14 10:32:38.714,0.018,0.025,1.023
2026/05/14 10:32:38.734,0.023,0.025,1.02
2026/05/14 10:32:38.755,0.022,0.028,1.019
2026/05/14 10:32:38.775,0.027,0.03,1.021
2026/05/14 10:32:38.796,0.021,0.029,1.019
2026/05/14 10:32:38.816,0.02,0.029,1.02
2026/05/14 10:32:38.837,0.016,0.02,1.018
2026/05/14 10:32:38.857,0.023,0.023,1.021
2026/05/14 10:32:38.878,0.024,0.022,1.022
2026/05/14 10:32:38.898,0.033,0.024,1.022
2026/05/14 10:32:38.919,0.028,0.022,1.022
2026/05/14 10:32:38.939,0.027,0.021,1.025
2026/05/14 10:32:38.959,0.025,0.027,1.024
2026/05/14 10:32:38.980,0.018,0.024,1.017
2026/05/14 10:32:39.000,0.021,0.025,1.022
2026/05/14 10:32:39.021,0.024,0.029,1.024
2026/05/14 10:32:39.041,0.023,0.027,1.022
2026/05/14 10:32:39.062,0.019,0.028,1.025
2026/05/14 10:32:39.082,0.021,0.027,1.024
2026/05/14 10:32:39.103,0.021,0.026,1.017
2026/05/14 10:32:39.123,0.022,0.026,1.024
2026/05/14 10:32:39.144,0.024,0.025,1.021
2026/05/14 10:32:39.164,0.024,0.024,1.02
2026/05/14 10:32:39.185,0.023,0.022,1.021
2026/05/14 10:32:39.205,0.023,0.024,1.019
2026/05/14 10:32:39.226,0.025,0.018,1.021
2026/05/14 10:32:39.246,0.028,0.018,1.023
2026/05/14 10:32:39.267,0.022,0.017,1.023
2026/05/14 10:32:39.287,0.026,0.021,1.02
2026/05/14 10:32:39.307,0.024,0.021,1.02
2026/05/14 10:32:39.328,0.025,0.025,1.021
2026/05/14 10:32:39.348,0.027,0.03,1.028
2026/05/14 10:32:39.369,0.024,0.032,1.02
2026/05/14 10:32:39.389,0.014,0.03,1.019
2026/05/14 10:32:39.410,0.015,0.036,1.022
2026/05/14 10:32:39.430,0.012,0.028,1.025
2026/05/14 10:32:39.451,0.02,0.024,1.017
2026/05/14 10:32:39.471,0.028,0.024,1.023
2026/05/14 10:32:39.492,0.032,0.024,1.024
2026/05/14 10:32:39.512,0.03,0.019,1.024
2026/05/14 10:32:39.533,0.028,0.018,1.022
2026/05/14 10:32:39.553,0.025,0.02,1.022
2026/05/14 10:32:39.574,0.028,0.022,1.022
2026/05/14 10:32:39.594,0.034,0.024,1.023
2026/05/14 10:32:39.615,0.032,0.027,1.023
2026/05/14 10:32:39.635,0.021,0.03,1.022
2026/05/14 10:32:39.656,0.013,0.026,1.025
2026/05/14 10:32:39.676,0.011,0.029,1.02
2026/05/14 10:32:39.696,0.017,0.031,1.021
2026/05/14 10:32:39.717,0.022,0.031,1.021
2026/05/14 10:32:39.737,0.029,0.026,1.022
2026/05/14 10:32:39.758,0.025,0.026,1.02
2026/05/14 10:32:39.778,0.023,0.02,1.025
2026/05/14 10:32:39.799,0.028,0.018,1.022
2026/05/14 10:32:39.819,0.023,0.015,1.022
2026/05/14 10:32:39.840,0.026,0.019,1.024
2026/05/14 10:32:39.860,0.025,0.019,1.023
2026/05/14 10:32:39.881,0.022,0.022,1.023
2026/05/14 10:32:39.901,0.017,0.03,1.023
2026/05/14 10:32:39.922,0.02,0.034,1.021
2026/05/14 10:32:39.942,0.017,0.031,1.019
2026/05/14 10:32:39.963,0.022,0.029,1.018
2026/05/14 10:32:39.983,0.02,0.029,1.022
2026/05/14 10:32:40.004,0.025,0.022,1.019
2026/05/14 10:32:40.024,0.022,0.022,1.022
2026/05/14 10:32:40.045,0.027,0.021,1.021
2026/05/14 10:32:40.065,0.032,0.027,1.023
2026/05/14 10:32:40.085,0.031,0.021,1.023
2026/05/14 10:32:40.106,0.025,0.022,1.021
2026/05/14 10:32:40.126,0.025,0.024,1.02
2026/05/14 10:32:40.147,0.021,0.026,1.022
2026/05/14 10:32:40.167,0.02,0.024,1.026
2026/05/14 10:32:40.188,0.017,0.033,1.018
2026/05/14 10:32:40.208,0.019,0.03,1.019
2026/05/14 10:32:40.229,0.021,0.03,1.025
2026/05/14 10:32:40.249,0.025,0.025,1.023
2026/05/14 10:32:40.270,0.024,0.023,1.019
2026/05/14 10:32:40.290,0.024,0.025,1.024
2026/05/14 10:32:40.311,0.026,0.017,1.018
2026/05/14 10:32:40.331,0.027,0.019,1.027
2026/05/14 10:32:40.352,0.025,0.018,1.02
2026/05/14 10:32:40.372,0.027,0.025,1.02
2026/05/14 10:32:40.393,0.026,0.027,1.02
2026/05/14 10:32:40.413,0.024,0.027,1.023
2026/05/14 10:32:40.433,0.018,0.029,1.02
2026/05/14 10:32:40.454,0.021,0.029,1.02
2026/05/14 10:32:40.474,0.019,0.023,1.022
2026/05/14 10:32:40.495,0.021,0.026,1.023
2026/05/14 10:32:40.515,0.024,0.023,1.024
2026/05/14 10:32:40.536,0.025,0.021,1.022
2026/05/14 10:32:40.556,0.029,0.021,1.022
2026/05/14 10:32:40.577,0.025,0.022,1.021
2026/05/14 10:32:40.597,0.028,0.023,1.021
2026/05/14 10:32:40.618,0.023,0.025,1.023
2026/05/14 10:32:40.638,0.021,0.027,1.024
2026/05/14 10:32:40.659,0.02,0.028,1.023
2026/05/14 10:32:40.679,0.021,0.028,1.019
2026/05/14 10:32:40.700,0.021,0.028,1.022
2026/05/14 10:32:40.720,0.023,0.029,1.021
2026/05/14 10:32:40.741,0.025,0.029,1.02
2026/05/14 10:32:40.761,0.024,0.021,1.02
2026/05/14 10:32:40.781,0.027,0.022,1.023
2026/05/14 10:32:40.802,0.025,0.019,1.023
2026/05/14 10:32:40.822,0.026,0.025,1.025
2026/05/14 10:32:40.843,0.027,0.025,1.023
2026/05/14 10:32:40.863,0.027,0.022,1.022
2026/05/14 10:32:40.884,0.023,0.026,1.021
2026/05/14 10:32:40.904,0.023,0.026,1.019
2026/05/14 10:32:40.925,0.02,0.027,1.021
2026/05/14 10:32:40.945,0.02,0.03,1.02
2026/05/14 10:32:40.966,0.021,0.029,1.022
2026/05/14 10:32:40.986,0.02,0.03,1.019
2026/05/14 10:32:41.007,0.022,0.025,1.019
2026/05/14 10:32:41.027,0.028,0.024,1.023
2026/05/14 10:32:41.048,0.022,0.025,1.02
2026/05/14 10:32:41.068,0.026,0.026,1.024
2026/05/14 10:32:41.089,0.024,0.02,1.022
2026/05/14 10:32:41.109,0.028,0.02,1.02
2026/05/14 10:32:41.129,0.027,0.02,1.023
2026/05/14 10:32:41.150,0.026,0.023,1.022
2026/05/14 10:32:41.170,0.026,0.024,1.02
2026/05/14 10:32:41.191,0.023,0.022,1.024
2026/05/14 10:32:41.211,0.022,0.028,1.022
2026/05/14 10:32:41.232,0.022,0.026,1.024
2026/05/14 10:32:41.252,0.022,0.027,1.02
2026/05/14 10:32:41.273,0.025,0.027,1.017
2026/05/14 10:32:41.293,0.023,0.029,1.019
2026/05/14 10:32:41.314,0.025,0.029,1.023
2026/05/14 10:32:41.334,0.024,0.027,1.021
2026/05/14 10:32:41.355,0.024,0.024,1.023
2026/05/14 10:32:41.375,0.022,0.024,1.02
2026/05/14 10:32:41.396,0.023,0.024,1.018
2026/05/14 10:32:41.416,0.026,0.025,1.019
2026/05/14 10:32:41.437,0.026,0.02,1.024
2026/05/14 10:32:41.457,0.024,0.027,1.024
2026/05/14 10:32:41.478,0.027,0.022,1.017
2026/05/14 10:32:41.498,0.027,0.028,1.021
2026/05/14 10:32:41.518,0.024,0.029,1.024
2026/05/14 10:32:41.539,0.019,0.027,1.02
2026/05/14 10:32:41.559,0.024,0.028,1.019
2026/05/14 10:32:41.580,0.024,0.023,1.02
2026/05/14 10:32:41.600,0.027,0.028,1.026
2026/05/14 10:32:41.621,0.021,0.024,1.022
2026/05/14 10:32:41.641,0.025,0.023,1.022
2026/05/14 10:32:41.662,0.025,0.022,1.021
2026/05/14 10:32:41.682,0.027,0.019,1.021
2026/05/14 10:32:41.703,0.026,0.023,1.022
2026/05/14 10:32:41.723,0.025,0.026,1.021
2026/05/14 10:32:41.744,0.025,0.027,1.018
2026/05/14 10:32:41.764,0.022,0.027,1.022
2026/05/14 10:32:41.785,0.021,0.025,1.025
2026/05/14 10:32:41.805,0.02,0.025,1.023
2026/05/14 10:32:41.826,0.022,0.022,1.023
2026/05/14 10:32:41.846,0.025,0.022,1.024
2026/05/14 10:32:41.866,0.025,0.024,1.018
2026/05/14 10:32:41.887,0.024,0.026,1.022
2026/05/14 10:32:41.907,0.024,0.026,1.022
2026/05/14 10:32:41.928,0.023,0.023,1.025
2026/05/14 10:32:41.948,0.018,0.021,1.023
2026/05/14 10:32:41.969,0.023,0.025,1.023
2026/05/14 10:32:41.989,0.025,0.024,1.025
2026/05/14 10:32:42.010,0.022,0.027,1.024
2026/05/14 10:32:42.030,0.025,0.023,1.023
2026/05/14 10:32:42.051,0.023,0.023,1.022
2026/05/14 10:32:42.071,0.027,0.024,1.018
2026/05/14 10:32:42.092,0.023,0.025,1.022
2026/05/14 10:32:42.112,0.027,0.023,1.023
2026/05/14 10:32:42.133,0.026,0.024,1.024
2026/05/14 10:32:42.153,0.025,0.025,1.022
2026/05/14 10:32:42.174,0.022,0.024,1.026
2026/05/14 10:32:42.194,0.022,0.026,1.022
2026/05/14 10:32:42.214,0.021,0.027,1.021
2026/05/14 10:32:42.235,0.025,0.029,1.023
2026/05/14 10:32:42.255,0.021,0.026,1.021
2026/05/14 10:32:42.276,0.025,0.023,1.023
2026/05/14 10:32:42.296,0.024,0.025,1.026
2026/05/14 10:32:42.317,0.022,0.026,1.018
2026/05/14 10:32:42.337,0.023,0.029,1.02
2026/05/14 10:32:42.358,0.023,0.024,1.02
2026/05/14 10:32:42.378,0.024,0.025,1.021
2026/05/14 10:32:42.399,0.021,0.026,1.027
2026/05/14 10:32:42.419,0.025,0.029,1.021
2026/05/14 10:32:42.440,0.024,0.025,1.021
2026/05/14 10:32:42.460,0.023,0.029,1.023
2026/05/14 10:32:42.481,0.023,0.025,1.02
2026/05/14 10:32:42.501,0.023,0.026,1.022
2026/05/14 10:32:42.522,0.023,0.025,1.021
2026/05/14 10:32:42.542,0.023,0.025,1.023
2026/05/14 10:32:42.562,0.025,0.023,1.024
2026/05/14 10:32:42.583,0.023,0.026,1.021
2026/05/14 10:32:42.603,0.027,0.027,1.021
2026/05/14 10:32:42.624,0.024,0.025,1.024
2026/05/14 10:32:42.644,0.025,0.026,1.022
2026/05/14 10:32:42.665,0.019,0.033,1.02
2026/05/14 10:32:42.685,0.018,0.026,1.023
2026/05/14 10:32:42.706,0.021,0.024,1.023
2026/05/14 10:32:42.726,0.025,0.028,1.02
2026/05/14 10:32:42.747,0.026,0.023,1.021
2026/05/14 10:32:42.767,0.023,0.023,1.021
2026/05/14 10:32:42.788,0.025,0.023,1.021
2026/05/14 10:32:42.808,0.025,0.022,1.021
2026/05/14 10:32:42.829,0.022,0.021,1.022
2026/05/14 10:32:42.849,0.022,0.024,1.019
2026/05/14 10:32:42.870,0.024,0.021,1.024
2026/05/14 10:32:42.890,0.021,0.024,1.021
2026/05/14 10:32:42.911,0.022,0.029,1.021
2026/05/14 10:32:42.931,0.022,0.027,1.022
2026/05/14 10:32:42.951,0.025,0.027,1.024
2026/05/14 10:32:42.972,0.021,0.021,1.021
2026/05/14 10:32:42.992,0.033,0.024,1.019
2026/05/14 10:32:43.013,0.029,0.027,1.019
2026/05/14 10:32:43.033,0.019,0.019,1.022
2026/05/14 10:32:43.054,0.019,0.022,1.025
2026/05/14 10:32:43.074,0.017,0.021,1.022
2026/05/14 10:32:43.095,0.022,0.023,1.025
2026/05/14 10:32:43.115,0.03,0.03,1.021
2026/05/14 10:32:43.136,0.031,0.03,1.019
2026/05/14 10:32:43.156,0.03,0.031,1.021
2026/05/14 10:32:43.177,0.02,0.027,1.027
2026/05/14 10:32:43.197,0.02,0.024,1.017
2026/05/14 10:32:43.218,0.02,0.022,1.024
2026/05/14 10:32:43.238,0.025,0.023,1.026
2026/05/14 10:32:43.259,0.023,0.024,1.018
2026/05/14 10:32:43.279,0.022,0.03,1.024
2026/05/14 10:32:43.299,0.027,0.026,1.02
2026/05/14 10:32:43.320,0.022,0.018,1.019
2026/05/14 10:32:43.340,0.027,0.02,1.03
2026/05/14 10:32:43.361,0.033,0.022,1.016
2026/05/14 10:32:43.381,0.029,0.027,1.017
2026/05/14 10:32:43.402,0.022,0.029,1.017
2026/05/14 10:32:43.422,0.021,0.027,1.016
2026/05/14 10:32:43.443,0.023,0.024,1.015
2026/05/14 10:32:43.463,0.03,0.033,1.042
2026/05/14 10:32:43.484,0.029,0.018,1.031
2026/05/14 10:32:43.504,0.021,0.02,1.035
2026/05/14 10:32:43.525,0.023,0.024,1.026
2026/05/14 10:32:43.545,0.028,0.025,1.023
2026/05/14 10:32:43.566,0.038,0.024,1.021
2026/05/14 10:32:43.586,0.045,0.026,1.019
2026/05/14 10:32:43.607,0.046,0.022,1.019
2026/05/14 10:32:43.627,0.091,-0.031,1.081
2026/05/14 10:32:43.648,0.067,-0.011,1.048
2026/05/14 10:32:43.668,0.03,0.007,1.058
2026/05/14 10:32:43.688,0.008,0.019,1.019
2026/05/14 10:32:43.709,0.002,0.041,1.006
2026/05/14 10:32:43.729,0.011,0.043,1.038
2026/05/14 10:32:43.750,0.014,0.044,1.035
2026/05/14 10:32:43.770,0.015,0.043,1.022
2026/05/14 10:32:43.791,0.019,0.027,1.019
2026/05/14 10:32:43.811,0.02,0.02,1.022
2026/05/14 10:32:43.832,0.024,0.013,1.025
2026/05/14 10:32:43.852,0.028,0.012,1.018
2026/05/14 10:32:43.873,0.03,0.015,1.019
2026/05/14 10:32:43.893,0.04,0.025,1.009
2026/05/14 10:32:43.914,0.047,0.031,1.021
2026/05/14 10:32:43.934,0.045,0.027,1.021
2026/05/14 10:32:43.955,0.029,0.02,1.019
2026/05/14 10:32:43.975,0.021,0.015,1.028
2026/05/14 10:32:43.996,0.014,0.02,1.014
2026/05/14 10:32:44.016,0.007,0.023,1.02
2026/05/14 10:32:44.036,0.013,0.031,1.026
2026/05/14 10:32:44.057,0.017,0.041,1.021
2026/05/14 10:32:44.077,0.02,0.044,1.021
2026/05/14 10:32:44.098,0.027,0.036,1.016
2026/05/14 10:32:44.118,0.023,0.028,1.025
2026/05/14 10:32:44.139,0.023,0.018,1.022
2026/05/14 10:32:44.159,0.019,0.014,1.047
2026/05/14 10:32:44.180,0.034,0.012,1.03
2026/05/14 10:32:44.200,0.027,0.019,1.02
2026/05/14 10:32:44.221,0.028,0.011,0.983
2026/05/14 10:32:44.241,0.03,0.02,1.095
2026/05/14 10:32:44.262,0.034,0.021,1.028
2026/05/14 10:32:44.282,0.041,0.028,1.017
2026/05/14 10:32:44.303,0.033,0.032,1.003
2026/05/14 10:32:44.323,0.022,0.023,1.032
2026/05/14 10:32:44.344,0.008,0.021,1.033
2026/05/14 10:32:44.364,0.011,0.016,1.033
2026/05/14 10:32:44.385,0.018,0.025,1.017
2026/05/14 10:32:44.405,0.031,0.033,1.022
2026/05/14 10:32:44.425,0.032,0.038,1.026
2026/05/14 10:32:44.446,0.025,0.026,1.018
2026/05/14 10:32:44.466,0.028,0.021,1.016
2026/05/14 10:32:44.487,0.024,0.018,1.017
2026/05/14 10:32:44.507,0.027,0.016,1.021
2026/05/14 10:32:44.528,0.029,0.017,1.023
2026/05/14 10:32:44.548,0.03,0.019,1.02
2026/05/14 10:32:44.569,0.027,0.022,1.023
2026/05/14 10:32:44.589,0.021,0.028,1.026
2026/05/14 10:32:44.610,0.023,0.034,1.019
2026/05/14 10:32:44.630,0.018,0.028,1.02
2026/05/14 10:32:44.651,0.017,0.034,1.018
2026/05/14 10:32:44.671,0.018,0.026,1.023
2026/05/14 10:32:44.692,0.019,0.023,1.023
2026/05/14 10:32:44.712,0.022,0.024,1.027
2026/05/14 10:32:44.733,0.024,0.024,1.019
2026/05/14 10:32:44.753,0.031,0.022,1.025
2026/05/14 10:32:44.773,0.028,0.023,1.022
2026/05/14 10:32:44.794,0.031,0.022,1.014
2026/05/14 10:32:44.814,0.033,0.023,1.004
2026/05/14 10:32:44.835,0.022,0.021,1.039
2026/05/14 10:32:44.855,0.025,0.02,1.025
2026/05/14 10:32:44.876,0.022,0.022,1.021
2026/05/14 10:32:44.896,0.02,0.029,1.022
2026/05/14 10:32:44.917,0.02,0.03,1.021
2026/05/14 10:32:44.937,0.022,0.033,1.017
2026/05/14 10:32:44.958,0.022,0.034,1.016
2026/05/14 10:32:44.978,0.021,0.024,1.017
2026/05/14 10:32:44.999,0.024,0.023,1.029
2026/05/14 10:32:45.019,0.025,0.021,1.024
2026/05/14 10:32:45.040,0.027,0.015,1.016
2026/05/14 10:32:45.060,0.029,0.02,1.024
2026/05/14 10:32:45.081,0.027,0.027,1.024
2026/05/14 10:32:45.101,0.028,0.025,1.021
2026/05/14 10:32:45.121,0.024,0.03,1.021
2026/05/14 10:32:45.142,0.024,0.031,1.023
2026/05/14 10:32:45.162,0.018,0.034,1.028
2026/05/14 10:32:45.183,0.016,0.029,1.025
2026/05/14 10:32:45.203,0.019,0.027,1.019
2026/05/14 10:32:45.224,0.025,0.023,1.022
2026/05/14 10:32:45.244,0.032,0.026,1.024
2026/05/14 10:32:45.265,0.027,0.022,1.02
2026/05/14 10:32:45.285,0.026,0.023,1.018
2026/05/14 10:32:45.306,0.028,0.021,1.021
2026/05/14 10:32:45.326,0.022,0.022,1.025
2026/05/14 10:32:45.347,0.022,0.024,1.018
2026/05/14 10:32:45.367,0.021,0.024,1.02
2026/05/14 10:32:45.388,0.024,0.029,1.024
2026/05/14 10:32:45.408,0.024,0.029,1.022
2026/05/14 10:32:45.429,0.022,0.028,1.021
2026/05/14 10:32:45.449,0.022,0.028,1.017
2026/05/14 10:32:45.470,0.021,0.024,1.02
2026/05/14 10:32:45.490,0.027,0.022,1.024
2026/05/14 10:32:45.510,0.027,0.023,1.024
2026/05/14 10:32:45.531,0.025,0.021,1.017
2026/05/14 10:32:45.551,0.024,0.026,1.021
2026/05/14 10:32:45.572,0.026,0.026,1.023
2026/05/14 10:32:45.592,0.022,0.021,1.021
2026/05/14 10:32:45.613,0.024,0.024,1.025
2026/05/14 10:32:45.633,0.025,0.022,1.022
2026/05/14 10:32:45.654,0.025,0.028,1.024
2026/05/14 10:32:45.674,0.024,0.022,1.023
2026/05/14 10:32:45.695,0.024,0.026,1.019
2026/05/14 10:32:45.715,0.023,0.028,1.021
2026/05/14 10:32:45.736,0.022,0.024,1.022
2026/05/14 10:32:45.756,0.027,0.026,1.022
2026/05/14 10:32:45.777,0.022,0.03,1.021
2026/05/14 10:32:45.797,0.023,0.025,1.027
2026/05/14 10:32:45.818,0.024,0.024,1.023
2026/05/14 10:32:45.838,0.024,0.027,1.023
2026/05/14 10:32:45.858,0.025,0.026,1.024
2026/05/14 10:32:45.879,0.025,0.023,1.023
2026/05/14 10:32:45.899,0.025,0.021,1.021
2026/05/14 10:32:45.920,0.025,0.022,1.022
2026/05/14 10:32:45.940,0.025,0.022,1.02
2026/05/14 10:32:45.961,0.024,0.027,1.021
2026/05/14 10:32:45.981,0.028,0.027,1.017
2026/05/14 10:32:46.002,0.022,0.027,1.025
2026/05/14 10:32:46.022,0.021,0.028,1.023
2026/05/14 10:32:46.043,0.027,0.027,1.022
2026/05/14 10:32:46.063,0.024,0.025,1.024
2026/05/14 10:32:46.084,0.025,0.026,1.021
2026/05/14 10:32:46.104,0.028,0.024,1.022
2026/05/14 10:32:46.125,0.026,0.027,1.022
2026/05/14 10:32:46.145,0.024,0.026,1.018
2026/05/14 10:32:46.166,0.026,0.027,1.025
2026/05/14 10:32:46.186,0.028,0.024,1.018
2026/05/14 10:32:46.207,0.026,0.025,1.023
2026/05/14 10:32:46.227,0.021,0.026,1.023
2026/05/14 10:32:46.247,0.022,0.028,1.021
2026/05/14 10:32:46.268,0.021,0.031,1.027
2026/05/14 10:32:46.288,0.025,0.026,1.025
2026/05/14 10:32:46.309,0.023,0.028,1.022
2026/05/14 10:32:46.329,0.025,0.028,1.024
2026/05/14 10:32:46.350,0.023,0.022,1.022
2026/05/14 10:32:46.370,0.031,0.017,1.021
2026/05/14 10:32:46.391,0.027,0.023,1.022
2026/05/14 10:32:46.411,0.029,0.023,1.02
2026/05/14 10:32:46.432,0.026,0.024,1.024
2026/05/14 10:32:46.452,0.024,0.021,1.023
2026/05/14 10:32:46.473,0.024,0.029,1.024
2026/05/14 10:32:46.493,0.023,0.027,1.023
2026/05/14 10:32:46.514,0.026,0.03,1.022
2026/05/14 10:32:46.534,0.021,0.021,1.026
2026/05/14 10:32:46.555,0.021,0.026,1.023
2026/05/14 10:32:46.575,0.024,0.028,1.024
2026/05/14 10:32:46.595,0.025,0.026,1.023
2026/05/14 10:32:46.616,0.028,0.028,1.019
2026/05/14 10:32:46.636,0.027,0.02,1.02
2026/05/14 10:32:46.657,0.027,0.022,1.021
2026/05/14 10:32:46.677,0.029,0.023,1.022
2026/05/14 10:32:46.698,0.024,0.022,1.023
2026/05/14 10:32:46.718,0.024,0.028,1.021
2026/05/14 10:32:46.739,0.022,0.025,1.024
2026/05/14 10:32:46.759,0.024,0.026,1.021
2026/05/14 10:32:46.780,0.026,0.026,1.023
2026/05/14 10:32:46.800,0.021,0.03,1.019
2026/05/14 10:32:46.821,0.02,0.026,1.023
2026/05/14 10:32:46.841,0.024,0.027,1.021
2026/05/14 10:32:46.862,0.025,0.022,1.021
2026/05/14 10:32:46.882,0.024,0.023,1.022
2026/05/14 10:32:46.903,0.024,0.027,1.023
2026/05/14 10:32:46.923,0.027,0.027,1.018
2026/05/14 10:32:46.944,0.024,0.021,1.023
2026/05/14 10:32:46.964,0.022,0.027,1.024
2026/05/14 10:32:46.984,0.023,0.028,1.025
2026/05/14 10:32:47.005,0.023,0.024,1.021
2026/05/14 10:32:47.025,0.025,0.025,1.025
2026/05/14 10:32:47.046,0.025,0.025,1.021
2026/05/14 10:32:47.066,0.024,0.025,1.026
2026/05/14 10:32:47.087,0.026,0.027,1.02
2026/05/14 10:32:47.107,0.027,0.027,1.025
2026/05/14 10:32:47.128,0.025,0.028,1.022
2026/05/14 10:32:47.148,0.027,0.022,1.025
2026/05/14 10:32:47.169,0.022,0.025,1.021
2026/05/14 10:32:47.189,0.021,0.022,1.022
2026/05/14 10:32:47.210,0.023,0.025,1.023
2026/05/14 10:32:47.230,0.022,0.023,1.023
2026/05/14 10:32:47.251,0.024,0.022,1.023
2026/05/14 10:32:47.271,0.027,0.022,1.02
2026/05/14 10:32:47.292,0.023,0.026,1.02
2026/05/14 10:32:47.312,0.022,0.03,1.02
2026/05/14 10:32:47.332,0.019,0.034,1.02
2026/05/14 10:32:47.353,0.016,0.03,1.02
2026/05/14 10:32:47.373,0.022,0.025,1.024
2026/05/14 10:32:47.394,0.024,0.026,1.026
2026/05/14 10:32:47.414,0.03,0.024,1.03
2026/05/14 10:32:47.435,0.029,0.023,1.027
2026/05/14 10:32:47.455,0.024,0.024,1.029
2026/05/14 10:32:47.476,0.023,0.021,1.02
2026/05/14 10:32:47.496,0.028,0.021,1.021
2026/05/14 10:32:47.517,0.03,0.021,1.029
2026/05/14 10:32:47.537,0.029,0.021,1.024
2026/05/14 10:32:47.558,0.027,0.025,1.027
2026/05/14 10:32:47.578,0.027,0.024,1.02
2026/05/14 10:32:47.599,0.028,0.029,1.011
2026/05/14 10:32:47.619,0.023,0.036,1.032
2026/05/14 10:32:47.640,0.025,0.028,1.003
2026/05/14 10:32:47.660,0.02,0.031,1.012
2026/05/14 10:32:47.681,0.02,0.029,1.022
2026/05/14 10:32:47.701,0.017,0.027,1.02
2026/05/14 10:32:47.721,0.03,0.023,1.024
2026/05/14 10:32:47.742,0.027,0.025,1.021
2026/05/14 10:32:47.762,0.025,0.028,1.018
2026/05/14 10:32:47.783,0.029,0.024,1.02
2026/05/14 10:32:47.803,0.022,0.023,1.011
2026/05/14 10:32:47.824,0.025,0.02,1.021
2026/05/14 10:32:47.844,0.03,0.021,1.023
2026/05/14 10:32:47.865,0.057,0.043,1.004
2026/05/14 10:32:47.885,0.028,0.017,1.051
2026/05/14 10:32:47.906,0.012,0.012,0.99
2026/05/14 10:32:47.926,0.001,-0.004,1.033
2026/05/14 10:32:47.947,0.021,0.019,0.996
2026/05/14 10:32:47.967,0.029,0.027,1.034
2026/05/14 10:32:47.988,0.037,0.039,1.041
2026/05/14 10:32:48.008,0.023,0.042,0.996
2026/05/14 10:32:48.029,0.017,0.045,1.026
2026/05/14 10:32:48.049,0.014,0.035,1.028
2026/05/14 10:32:48.069,0.017,0.014,1.025
2026/05/14 10:32:48.090,0.026,0.005,1.009
2026/05/14 10:32:48.110,0.034,0.006,1.015
2026/05/14 10:32:48.131,0.031,0.014,1.029
2026/05/14 10:32:48.151,0.021,0.019,1.01
2026/05/14 10:32:48.172,0.014,0.03,1.001
2026/05/14 10:32:48.192,0.019,0.045,0.994
2026/05/14 10:32:48.213,0.029,0.032,1.02
2026/05/14 10:32:48.233,0.019,0.021,1.021
2026/05/14 10:32:48.254,0.02,0.014,1.011
2026/05/14 10:32:48.274,0.02,0.016,1.029
2026/05/14 10:32:48.295,0.02,0.015,1.022
2026/05/14 10:32:48.315,0.039,0.03,1.02
2026/05/14 10:32:48.336,0.034,0.027,1.036
2026/05/14 10:32:48.356,0.035,0.032,1.009
2026/05/14 10:32:48.377,0.019,0.024,1.016
2026/05/14 10:32:48.397,0.02,0.023,1.012
2026/05/14 10:32:48.417,0.005,0.018,1.023
2026/05/14 10:32:48.438,0.014,0.021,1.024
2026/05/14 10:32:48.458,0.025,0.023,1.017
2026/05/14 10:32:48.479,0.031,0.031,1.011
2026/05/14 10:32:48.499,0.03,0.035,1.016
2026/05/14 10:32:48.520,0.032,0.036,1.025
2026/05/14 10:32:48.540,0.028,0.023,1.019
2026/05/14 10:32:48.561,0.027,0.008,1.029
2026/05/14 10:32:48.581,0.022,0.005,1.023
2026/05/14 10:32:48.602,0.026,0.009,1.016
2026/05/14 10:32:48.622,0.016,0.011,1.029
2026/05/14 10:32:48.643,0.011,0.036,1.021
2026/05/14 10:32:48.663,0.012,0.036,1.022
2026/05/14 10:32:48.684,0.027,0.04,1.011
2026/05/14 10:32:48.704,0.041,0.043,1.02
2026/05/14 10:32:48.725,0.035,0.044,1.027
2026/05/14 10:32:48.745,0.018,0.022,1.023
2026/05/14 10:32:48.765,0.023,-0.001,1.02
2026/05/14 10:32:48.786,0.038,-0.007,1.022
2026/05/14 10:32:48.806,0.045,-0.002,1.029
2026/05/14 10:32:48.827,0.032,0.008,1.016
2026/05/14 10:32:48.847,0.034,0.016,1.021
2026/05/14 10:32:48.868,0.044,0.036,1.031
2026/05/14 10:32:48.888,0.007,0.031,1.036
2026/05/14 10:32:48.909,0.024,0.032,1.102
2026/05/14 10:32:48.929,-0.011,0.02,1.041
2026/05/14 10:32:48.950,0.007,0.047,0.998
2026/05/14 10:32:48.970,0.024,0.042,1.022
2026/05/14 10:32:48.991,0.024,0.054,1.029
2026/05/14 10:32:49.011,-0.004,0.041,1.017
2026/05/14 10:32:49.032,0.026,-0.035,1.248
2026/05/14 10:32:49.052,0.019,-0.006,1.179
2026/05/14 10:32:49.073,0.056,-0.039,1.008
2026/05/14 10:32:49.093,0.101,-0.024,1.031
2026/05/14 10:32:49.114,0.089,-0.002,1.033
2026/05/14 10:32:49.134,0.054,0.026,1.034
2026/05/14 10:32:49.154,0.02,0.052,1.024
2026/05/14 10:32:49.175,0.025,0.061,1.004
2026/05/14 10:32:49.195,0.003,0.042,1.056
2026/05/14 10:32:49.216,-0.014,0.03,1.016
2026/05/14 10:32:49.236,-0.059,0.075,1.022
2026/05/14 10:32:49.257,-0.015,0.038,1.038
2026/05/14 10:32:49.277,0.035,0.043,1.059
2026/05/14 10:32:49.298,-0.001,0.016,0.988
2026/05/14 10:32:49.318,0.028,-0.005,1.033
2026/05/14 10:32:49.339,0.076,-0.017,1.069
2026/05/14 10:32:49.359,0.079,-0.023,0.995
2026/05/14 10:32:49.380,0.065,-0.025,1.007
2026/05/14 10:32:49.400,0.041,0.006,0.999
2026/05/14 10:32:49.421,0.028,0.025,1.031
2026/05/14 10:32:49.441,0.026,0.049,1.006
2026/05/14 10:32:49.462,0.037,0.038,1.009
2026/05/14 10:32:49.482,0.018,0.042,1.004
2026/05/14 10:32:49.502,-0.005,0.029,1.025
2026/05/14 10:32:49.523,-0.031,0.03,1.052
2026/05/14 10:32:49.543,-0.039,0.029,0.989
2026/05/14 10:32:49.564,-0.003,0.046,1.019
2026/05/14 10:32:49.584,0.041,0.042,1.043
2026/05/14 10:32:49.605,0.056,0.032,1.019
2026/05/14 10:32:49.625,0.068,0.014,1.021
2026/05/14 10:32:49.646,0.04,0.01,0.998
2026/05/14 10:32:49.666,0.022,0.003,1.031
2026/05/14 10:32:49.687,0.027,-0.002,1.038
2026/05/14 10:32:49.707,0.035,0.001,0.997
2026/05/14 10:32:49.728,0.046,0.019,1.016
2026/05/14 10:32:49.748,0.04,0.022,1.02
2026/05/14 10:32:49.769,0.017,0.032,1.032
2026/05/14 10:32:49.789,0.01,0.038,1.017
2026/05/14 10:32:49.810,0.002,0.049,1.057
2026/05/14 10:32:49.830,-0.001,0.058,0.947
2026/05/14 10:32:49.850,0.017,0.053,1.001
2026/05/14 10:32:49.871,0.036,0.019,1.016
2026/05/14 10:32:49.891,0.029,0.004,1.066
2026/05/14 10:32:49.912,0.025,0.002,1.019
2026/05/14 10:32:49.932,0.028,0.004,1.01
2026/05/14 10:32:49.953,0.035,0.019,1.009
2026/05/14 10:32:49.973,0.04,0.029,1.031
2026/05/14 10:32:49.994,0.034,0.04,1.023
2026/05/14 10:32:50.014,0.013,0.04,1.027
2026/05/14 10:32:50.035,0.011,0.032,1.027
2026/05/14 10:32:50.055,0.006,0.028,1.021
2026/05/14 10:32:50.076,-0.009,0.02,1.021
2026/05/14 10:32:50.096,0.031,0.001,1.07
2026/05/14 10:32:50.117,0.026,0.017,1.034
2026/05/14 10:32:50.137,0.041,0.022,1.031
2026/05/14 10:32:50.158,0.046,0.029,1.025
2026/05/14 10:32:50.178,0.04,0.032,1.036
2026/05/14 10:32:50.199,0.024,0.023,1.033
2026/05/14 10:32:50.219,0.026,0.016,1.011
2026/05/14 10:32:50.239,0.024,0.011,1.02
2026/05/14 10:32:50.260,0.02,0.011,1.027
2026/05/14 10:32:50.280,0.026,0.014,1.033
2026/05/14 10:32:50.301,0.025,0.022,1.012
2026/05/14 10:32:50.321,0.021,0.036,1.015
2026/05/14 10:32:50.342,0.023,0.045,1.026
2026/05/14 10:32:50.362,0.017,0.042,1.023
2026/05/14 10:32:50.383,0.014,0.04,1.014
2026/05/14 10:32:50.403,0.014,0.027,1.015
2026/05/14 10:32:50.424,0.013,0.019,1.026
2026/05/14 10:32:50.444,0.02,0.009,1.022
2026/05/14 10:32:50.465,0.026,0.011,1.022
2026/05/14 10:32:50.485,0.037,0.015,1.025
2026/05/14 10:32:50.506,0.043,0.024,1.031
2026/05/14 10:32:50.526,0.044,0.028,1.017
2026/05/14 10:32:50.547,0.038,0.029,1.012
2026/05/14 10:32:50.567,0.033,0.026,1.024
2026/05/14 10:32:50.587,0.016,0.023,1.029
2026/05/14 10:32:50.608,0.007,0.02,1.021
2026/05/14 10:32:50.628,0.006,0.021,1.012
2026/05/14 10:32:50.649,0.011,0.024,1.021
2026/05/14 10:32:50.669,0.014,0.033,1.027
2026/05/14 10:32:50.690,0.029,0.034,1.029
2026/05/14 10:32:50.710,0.034,0.028,1.02
2026/05/14 10:32:50.731,0.033,0.017,1.025
2026/05/14 10:32:50.751,0.032,0.006,1.012
2026/05/14 10:32:50.772,0.071,0.005,1.045
2026/05/14 10:32:50.792,0.051,-0.004,1.065
2026/05/14 10:32:50.813,0.032,0.0,1.053
2026/05/14 10:32:50.833,-0.01,0.01,1.03
2026/05/14 10:32:50.854,0.0,0.025,1.006
2026/05/14 10:32:50.874,-0.013,0.047,1.036
2026/05/14 10:32:50.895,-0.02,0.055,1.021
2026/05/14 10:32:50.915,0.005,0.055,1.043
2026/05/14 10:32:50.935,0.024,0.055,0.976
2026/05/14 10:32:50.956,0.074,0.053,1.04
2026/05/14 10:32:50.976,0.058,0.041,1.041
2026/05/14 10:32:50.997,0.021,0.01,1.02
2026/05/14 10:32:51.017,0.029,-0.001,0.979
2026/05/14 10:32:51.038,0.034,-0.012,1.03
2026/05/14 10:32:51.058,0.042,-0.013,1.056
2026/05/14 10:32:51.079,0.039,-0.017,1.051
2026/05/14 10:32:51.099,0.104,-0.031,0.687
2026/05/14 10:32:51.120,0.049,-0.014,0.951
2026/05/14 10:32:51.140,0.013,0.046,0.95
2026/05/14 10:32:51.161,0.013,0.077,0.976
2026/05/14 10:32:51.181,0.024,0.111,1.102
2026/05/14 10:32:51.202,0.013,0.049,1.053
2026/05/14 10:32:51.222,-0.013,0.034,1.017
2026/05/14 10:32:51.243,-0.009,0.016,1.024
2026/05/14 10:32:51.263,-0.007,-0.002,1.07
2026/05/14 10:32:51.283,0.031,-0.014,1.05
2026/05/14 10:32:51.304,0.033,-0.012,0.999
2026/05/14 10:32:51.324,0.056,0.002,0.982
2026/05/14 10:32:51.345,0.058,0.018,1.017
2026/05/14 10:32:51.365,0.047,0.026,1.014
2026/05/14 10:32:51.386,0.043,0.03,0.994
2026/05/14 10:32:51.406,0.032,0.037,1.001
2026/05/14 10:32:51.427,0.051,0.027,0.991
2026/05/14 10:32:51.447,0.024,0.01,1.03
2026/05/14 10:32:51.468,-0.005,0.003,1.008
2026/05/14 10:32:51.488,-0.012,0.0,1.017
2026/05/14 10:32:51.509,0.019,0.03,1.015
2026/05/14 10:32:51.529,0.027,0.029,1.125
2026/05/14 10:32:51.550,0.018,0.067,0.983
2026/05/14 10:32:51.570,0.034,0.045,1.027
2026/05/14 10:32:51.591,0.026,0.048,1.186
2026/05/14 10:32:51.611,0.01,0.048,1.081
2026/05/14 10:32:51.632,0.001,0.013,1.004
2026/05/14 10:32:51.652,0.002,-0.004,1.018
2026/05/14 10:32:51.672,0.004,-0.016,0.954
2026/05/14 10:32:51.693,-0.007,0.008,0.951
2026/05/14 10:32:51.713,0.038,0.028,1.024
2026/05/14 10:32:51.734,0.084,0.034,0.97
2026/05/14 10:32:51.754,0.017,0.038,1.104
2026/05/14 10:32:51.775,0.023,0.055,0.982
2026/05/14 10:32:51.795,0.03,0.035,1.05
2026/05/14 10:32:51.816,0.009,0.016,1.047
2026/05/14 10:32:51.836,0.011,0.007,1.048
2026/05/14 10:32:51.857,0.025,-0.001,1.02
2026/05/14 10:32:51.877,0.044,0.003,1.023
2026/05/14 10:32:51.898,0.043,0.008,1.014
2026/05/14 10:32:51.918,0.072,0.008,1.04
2026/05/14 10:32:51.939,0.064,0.002,1.183
2026/05/14 10:32:51.959,0.01,0.016,1.014
2026/05/14 10:32:51.980,0.007,0.025,1.034
2026/05/14 10:32:52.000,0.021,0.025,1.018
2026/05/14 10:32:52.020,0.011,0.017,1.073
2026/05/14 10:32:52.041,-0.008,0.016,1.033
2026/05/14 10:32:52.061,0.006,0.027,1.009
2026/05/14 10:32:52.082,0.031,0.049,1.012
2026/05/14 10:32:52.102,0.042,0.046,1.035
2026/05/14 10:32:52.123,0.031,0.028,1.025
2026/05/14 10:32:52.143,0.018,0.024,1.012
2026/05/14 10:32:52.164,0.013,0.011,1.037
2026/05/14 10:32:52.184,0.023,0.003,1.034
2026/05/14 10:32:52.205,0.034,0.004,1.016
2026/05/14 10:32:52.225,0.05,0.022,1.021
2026/05/14 10:32:52.246,0.038,0.041,1.037
2026/05/14 10:32:52.266,0.011,0.036,1.035
2026/05/14 10:32:52.287,0.029,0.043,0.997
2026/05/14 10:32:52.307,0.037,-0.034,1.083
2026/05/14 10:32:52.328,0.141,-0.118,1.397
2026/05/14 10:32:52.348,0.006,-0.118,1.297
2026/05/14 10:32:52.369,-0.014,-0.078,1.211
2026/05/14 10:32:52.389,0.01,-0.016,1.186
2026/05/14 10:32:52.409,0.031,0.054,1.052
2026/05/14 10:32:52.430,-0.033,0.099,1.0
2026/05/14 10:32:52.450,0.025,0.03,0.973
2026/05/14 10:32:52.471,0.053,0.032,1.032
2026/05/14 10:32:52.491,0.026,0.006,1.037
2026/05/14 10:32:52.512,0.007,-0.003,1.032
2026/05/14 10:32:52.532,-0.013,0.018,1.044
2026/05/14 10:32:52.553,-0.002,0.013,1.068
2026/05/14 10:32:52.573,0.017,0.024,0.986
2026/05/14 10:32:52.594,0.041,0.018,1.02
2026/05/14 10:32:52.614,0.035,0.024,1.02
2026/05/14 10:32:52.635,0.032,0.036,1.009
2026/05/14 10:32:52.655,0.028,0.031,1.007
2026/05/14 10:32:52.676,0.037,0.032,0.994
2026/05/14 10:32:52.696,0.038,0.023,1.025
2026/05/14 10:32:52.717,0.035,0.019,1.032
2026/05/14 10:32:52.737,0.026,0.007,1.021
2026/05/14 10:32:52.757,0.063,-0.013,1.178
2026/05/14 10:32:52.778,0.002,0.015,1.121
2026/05/14 10:32:52.798,0.009,0.017,0.976
2026/05/14 10:32:52.819,0.02,0.031,0.981
2026/05/14 10:32:52.839,0.035,0.036,1.03
2026/05/14 10:32:52.860,0.036,0.033,1.039
2026/05/14 10:32:52.880,0.028,0.023,0.998
2026/05/14 10:32:52.901,0.019,0.018,0.985
2026/05/14 10:32:52.921,0.022,0.011,1.017
2026/05/14 10:32:52.942,0.033,0.001,1.008
2026/05/14 10:32:52.962,0.015,0.028,0.968
2026/05/14 10:32:52.983,0.053,0.032,1.013
2026/05/14 10:32:53.003,0.036,0.036,1.02
2026/05/14 10:32:53.024,0.021,0.026,1.041
2026/05/14 10:32:53.044,0.025,0.017,1.006
2026/05/14 10:32:53.065,0.025,0.021,1.007
2026/05/14 10:32:53.085,0.018,0.025,1.024
2026/05/14 10:32:53.106,-0.013,0.034,1.046
2026/05/14 10:32:53.126,0.023,0.03,1.023
2026/05/14 10:32:53.146,0.024,0.039,1.02
2026/05/14 10:32:53.167,0.029,0.038,1.031
2026/05/14 10:32:53.187,0.01,0.047,1.033
2026/05/14 10:32:53.208,0.01,0.037,1.02
2026/05/14 10:32:53.228,0.003,0.015,1.029
2026/05/14 10:32:53.249,0.007,0.014,1.018
2026/05/14 10:32:53.269,0.017,0.017,1.033
2026/05/14 10:32:53.290,0.04,0.02,1.028
2026/05/14 10:32:53.310,0.053,0.018,1.02
2026/05/14 10:32:53.331,0.055,0.015,1.024
2026/05/14 10:32:53.351,0.048,0.01,1.027
2026/05/14 10:32:53.372,0.025,0.013,1.016
2026/05/14 10:32:53.392,0.009,0.016,1.02
2026/05/14 10:32:53.413,0.009,0.027,1.017
2026/05/14 10:32:53.433,0.009,0.039,1.023
2026/05/14 10:32:53.454,0.03,0.06,1.0
2026/05/14 10:32:53.474,0.013,0.071,1.126
2026/05/14 10:32:53.494,0.015,0.055,1.051
2026/05/14 10:32:53.515,0.029,0.027,1.001
2026/05/14 10:32:53.535,-0.034,0.017,1.016
2026/05/14 10:32:53.556,0.048,-0.015,1.031
2026/05/14 10:32:53.576,0.044,-0.015,1.008
2026/05/14 10:32:53.597,0.074,-0.015,1.041
2026/05/14 10:32:53.617,0.061,-0.008,1.024
2026/05/14 10:32:53.638,0.035,0.031,1.006
2026/05/14 10:32:53.658,0.045,0.037,1.066
2026/05/14 10:32:53.679,-0.056,0.087,0.984
2026/05/14 10:32:53.699,0.009,0.069,0.969
2026/05/14 10:32:53.720,-0.026,0.051,1.065
2026/05/14 10:32:53.740,0.002,0.028,0.993
2026/05/14 10:32:53.761,0.015,0.019,1.008
2026/05/14 10:32:53.781,0.03,-0.001,1.024
2026/05/14 10:32:53.802,0.041,0.001,1.009
2026/05/14 10:32:53.822,0.038,0.006,1.02
2026/05/14 10:32:53.842,0.049,0.013,1.039
2026/05/14 10:32:53.863,0.059,0.017,1.005
2026/05/14 10:32:53.883,0.06,0.02,1.008
2026/05/14 10:32:53.904,0.042,0.024,1.021
2026/05/14 10:32:53.924,0.02,0.021,1.023
2026/05/14 10:32:53.945,-0.007,0.02,1.014
2026/05/14 10:32:53.965,-0.007,0.027,1.018
2026/05/14 10:32:53.986,-0.004,0.037,1.032
2026/05/14 10:32:54.006,0.002,0.045,1.029
2026/05/14 10:32:54.027,0.012,0.049,1.021
2026/05/14 10:32:54.047,0.023,0.046,1.021
2026/05/14 10:32:54.068,0.027,0.038,1.01
2026/05/14 10:32:54.088,0.03,0.021,1.024
2026/05/14 10:32:54.109,0.03,0.005,1.022
2026/05/14 10:32:54.129,0.031,0.004,1.017
2026/05/14 10:32:54.150,0.036,0.0,1.025
2026/05/14 10:32:54.170,0.036,0.012,1.025
2026/05/14 10:32:54.191,0.036,0.028,1.028
2026/05/14 10:32:54.211,0.034,0.035,1.02
2026/05/14 10:32:54.231,0.031,0.036,1.011
2026/05/14 10:32:54.252,0.018,0.037,1.026
2026/05/14 10:32:54.272,0.008,0.032,1.018
2026/05/14 10:32:54.293,-0.003,0.026,1.019
2026/05/14 10:32:54.313,0.003,0.023,1.022
2026/05/14 10:32:54.334,0.01,0.031,1.025
2026/05/14 10:32:54.354,0.026,0.033,1.029
2026/05/14 10:32:54.375,0.034,0.034,1.012
2026/05/14 10:32:54.395,0.038,0.029,1.014
2026/05/14 10:32:54.416,0.039,0.021,1.025
2026/05/14 10:32:54.436,0.033,0.011,1.021
2026/05/14 10:32:54.457,0.031,0.011,1.021
2026/05/14 10:32:54.477,0.027,0.015,1.024
2026/05/14 10:32:54.498,0.031,0.023,1.023
2026/05/14 10:32:54.518,0.024,0.026,1.027
2026/05/14 10:32:54.539,0.022,0.031,1.018
2026/05/14 10:32:54.559,0.013,0.04,1.018
2026/05/14 10:32:54.579,0.009,0.036,1.025
2026/05/14 10:32:54.600,0.01,0.034,1.027
2026/05/14 10:32:54.620,0.017,0.037,1.019
2026/05/14 10:32:54.641,0.023,0.027,1.019
2026/05/14 10:32:54.661,0.03,0.025,1.025
2026/05/14 10:32:54.682,0.027,0.017,1.021
2026/05/14 10:32:54.702,0.029,0.016,1.019
2026/05/14 10:32:54.723,0.031,0.017,1.023
2026/05/14 10:32:54.743,0.037,0.019,1.018
2026/05/14 10:32:54.764,0.034,0.027,1.023
2026/05/14 10:32:54.784,0.03,0.027,1.021
2026/05/14 10:32:54.805,0.027,0.029,1.019
2026/05/14 10:32:54.825,0.015,0.021,1.027
2026/05/14 10:32:54.846,0.013,0.027,1.021
2026/05/14 10:32:54.866,0.012,0.027,1.024
2026/05/14 10:32:54.887,0.015,0.036,1.017
2026/05/14 10:32:54.907,0.017,0.03,1.024
2026/05/14 10:32:54.928,0.026,0.029,1.028
2026/05/14 10:32:54.948,0.026,0.027,1.019
2026/05/14 10:32:54.968,0.03,0.018,1.019
2026/05/14 10:32:54.989,0.029,0.019,1.018
2026/05/14 10:32:55.009,0.028,0.019,1.023
2026/05/14 10:32:55.030,0.028,0.016,1.026
2026/05/14 10:32:55.050,0.027,0.016,1.021
2026/05/14 10:32:55.071,0.025,0.022,1.022
2026/05/14 10:32:55.091,0.025,0.03,1.02
2026/05/14 10:32:55.112,0.026,0.028,1.02
2026/05/14 10:32:55.132,0.017,0.03,1.021
2026/05/14 10:32:55.153,0.01,0.024,1.02
2026/05/14 10:32:55.173,0.017,0.024,1.025
2026/05/14 10:32:55.194,0.021,0.028,1.018
2026/05/14 10:32:55.214,0.027,0.025,1.019
2026/05/14 10:32:55.235,0.026,0.027,1.02
2026/05/14 10:32:55.255,0.028,0.022,1.022
2026/05/14 10:32:55.276,0.029,0.023,1.023
2026/05/14 10:32:55.296,0.035,0.024,1.023
2026/05/14 10:32:55.316,0.03,0.019,1.021
2026/05/14 10:32:55.337,0.028,0.022,1.025
2026/05/14 10:32:55.357,0.026,0.026,1.022
2026/05/14 10:32:55.378,0.022,0.026,1.019
2026/05/14 10:32:55.398,0.024,0.029,1.019
2026/05/14 10:32:55.419,0.021,0.031,1.025
2026/05/14 10:32:55.439,0.018,0.033,1.028
2026/05/14 10:32:55.460,0.021,0.031,1.018
2026/05/14 10:32:55.480,0.021,0.03,1.021
2026/05/14 10:32:55.501,0.023,0.03,1.022
2026/05/14 10:32:55.521,0.025,0.026,1.021
2026/05/14 10:32:55.542,0.026,0.016,1.021
2026/05/14 10:32:55.562,0.025,0.022,1.021
2026/05/14 10:32:55.583,0.028,0.021,1.024
2026/05/14 10:32:55.603,0.03,0.026,1.025
2026/05/14 10:32:55.624,0.028,0.024,1.019
2026/05/14 10:32:55.644,0.027,0.028,1.022
2026/05/14 10:32:55.664,0.026,0.027,1.019
2026/05/14 10:32:55.685,0.023,0.029,1.022
2026/05/14 10:32:55.705,0.018,0.024,1.018
2026/05/14 10:32:55.726,0.018,0.028,1.025
2026/05/14 10:32:55.746,0.022,0.029,1.019
2026/05/14 10:32:55.767,0.024,0.028,1.024
2026/05/14 10:32:55.787,0.026,0.026,1.021
2026/05/14 10:32:55.808,0.027,0.024,1.017
2026/05/14 10:32:55.828,0.026,0.018,1.026
2026/05/14 10:32:55.849,0.025,0.021,1.022
2026/05/14 10:32:55.869,0.026,0.019,1.025
2026/05/14 10:32:55.890,0.024,0.022,1.024
2026/05/14 10:32:55.910,0.025,0.024,1.021
2026/05/14 10:32:55.931,0.023,0.024,1.022
2026/05/14 10:32:55.951,0.023,0.029,1.021
2026/05/14 10:32:55.972,0.02,0.028,1.019
2026/05/14 10:32:55.992,0.016,0.026,1.017
2026/05/14 10:32:56.013,0.019,0.025,1.025
2026/05/14 10:32:56.033,0.026,0.025,1.018
2026/05/14 10:32:56.053,0.024,0.028,1.022
2026/05/14 10:32:56.074,0.025,0.028,1.023
2026/05/14 10:32:56.094,0.026,0.025,1.022
2026/05/14 10:32:56.115,0.026,0.023,1.021
2026/05/14 10:32:56.135,0.029,0.025,1.017
2026/05/14 10:32:56.156,0.027,0.022,1.022
2026/05/14 10:32:56.176,0.026,0.027,1.023
2026/05/14 10:32:56.197,0.026,0.024,1.024
2026/05/14 10:32:56.217,0.025,0.026,1.015
2026/05/14 10:32:56.238,0.022,0.027,1.023
2026/05/14 10:32:56.258,0.023,0.028,1.021
2026/05/14 10:32:56.279,0.018,0.027,1.025
2026/05/14 10:32:56.299,0.023,0.027,1.025
2026/05/14 10:32:56.320,0.024,0.025,1.022
2026/05/14 10:32:56.340,0.027,0.027,1.025
2026/05/14 10:32:56.361,0.025,0.021,1.023
2026/05/14 10:32:56.381,0.025,0.021,1.022
2026/05/14 10:32:56.401,0.026,0.022,1.021
2026/05/14 10:32:56.422,0.026,0.025,1.021
2026/05/14 10:32:56.442,0.027,0.022,1.024
2026/05/14 10:32:56.463,0.025,0.024,1.023
2026/05/14 10:32:56.483,0.023,0.024,1.028
2026/05/14 10:32:56.504,0.024,0.027,1.02
2026/05/14 10:32:56.524,0.021,0.028,1.02
2026/05/14 10:32:56.545,0.023,0.027,1.02
2026/05/14 10:32:56.565,0.021,0.028,1.023
2026/05/14 10:32:56.586,0.019,0.026,1.019
2026/05/14 10:32:56.606,0.023,0.025,1.022
2026/05/14 10:32:56.627,0.028,0.027,1.02
2026/05/14 10:32:56.647,0.029,0.024,1.018
2026/05/14 10:32:56.668,0.025,0.024,1.021
2026/05/14 10:32:56.688,0.024,0.023,1.019
2026/05/14 10:32:56.709,0.029,0.024,1.021
2026/05/14 10:32:56.729,0.025,0.024,1.021
2026/05/14 10:32:56.749,0.023,0.024,1.019
2026/05/14 10:32:56.770,0.024,0.026,1.022
2026/05/14 10:32:56.790,0.025,0.03,1.019
2026/05/14 10:32:56.811,0.021,0.025,1.024
2026/05/14 10:32:56.831,0.023,0.026,1.021
2026/05/14 10:32:56.852,0.02,0.024,1.022
2026/05/14 10:32:56.872,0.024,0.024,1.023
2026/05/14 10:32:56.893,0.027,0.021,1.024
2026/05/14 10:32:56.913,0.024,0.022,1.023
2026/05/14 10:32:56.934,0.027,0.025,1.019
2026/05/14 10:32:56.954,0.023,0.024,1.023
2026/05/14 10:32:56.975,0.026,0.025,1.023
2026/05/14 10:32:56.995,0.023,0.023,1.02
2026/05/14 10:32:57.016,0.026,0.029,1.022
2026/05/14 10:32:57.036,0.024,0.027,1.023
2026/05/14 10:32:57.057,0.023,0.026,1.019
2026/05/14 10:32:57.077,0.024,0.025,1.017
2026/05/14 10:32:57.098,0.024,0.028,1.024
2026/05/14 10:32:57.118,0.026,0.026,1.023
2026/05/14 10:32:57.138,0.023,0.025,1.023
2026/05/14 10:32:57.159,0.025,0.027,1.021
2026/05/14 10:32:57.179,0.025,0.028,1.02
2026/05/14 10:32:57.200,0.028,0.027,1.019
2026/05/14 10:32:57.220,0.028,0.022,1.022
2026/05/14 10:32:57.241,0.023,0.025,1.023
2026/05/14 10:32:57.261,0.028,0.026,1.02
2026/05/14 10:32:57.282,0.027,0.023,1.021
2026/05/14 10:32:57.302,0.026,0.026,1.021
2026/05/14 10:32:57.323,0.027,0.026,1.021
2026/05/14 10:32:57.343,0.023,0.026,1.019
2026/05/14 10:32:57.364,0.021,0.025,1.02
2026/05/14 10:32:57.384,0.022,0.028,1.02
2026/05/14 10:32:57.405,0.021,0.029,1.024
2026/05/14 10:32:57.425,0.023,0.025,1.024
2026/05/14 10:32:57.446,0.024,0.025,1.023
2026/05/14 10:32:57.466,0.025,0.024,1.024
2026/05/14 10:32:57.486,0.025,0.021,1.021
2026/05/14 10:32:57.507,0.027,0.023,1.02
2026/05/14 10:32:57.527,0.027,0.022,1.017
2026/05/14 10:32:57.548,0.022,0.025,1.024
2026/05/14 10:32:57.568,0.024,0.022,1.022
2026/05/14 10:32:57.589,0.024,0.027,1.021
2026/05/14 10:32:57.609,0.022,0.027,1.022
2026/05/14 10:32:57.630,0.024,0.026,1.022
2026/05/14 10:32:57.650,0.023,0.027,1.022
2026/05/14 10:32:57.671,0.023,0.023,1.019
2026/05/14 10:32:57.691,0.024,0.026,1.02
2026/05/14 10:32:57.712,0.027,0.021,1.02
2026/05/14 10:32:57.732,0.024,0.027,1.021
2026/05/14 10:32:57.753,0.027,0.023,1.024
2026/05/14 10:32:57.773,0.022,0.027,1.021
2026/05/14 10:32:57.794,0.023,0.023,1.022
2026/05/14 10:32:57.814,0.026,0.025,1.026
2026/05/14 10:32:57.834,0.025,0.025,1.022
2026/05/14 10:32:57.855,0.022,0.024,1.023
2026/05/14 10:32:57.875,0.023,0.024,1.022
2026/05/14 10:32:57.896,0.023,0.026,1.022
2026/05/14 10:32:57.916,0.023,0.026,1.022
2026/05/14 10:32:57.937,0.021,0.024,1.018
2026/05/14 10:32:57.957,0.027,0.028,1.019
2026/05/14 10:32:57.978,0.025,0.024,1.022
2026/05/14 10:32:57.998,0.023,0.028,1.018
2026/05/14 10:32:58.019,0.02,0.024,1.021
2026/05/14 10:32:58.039,0.027,0.024,1.02
2026/05/14 10:32:58.060,0.023,0.026,1.024
2026/05/14 10:32:58.080,0.022,0.025,1.021
2026/05/14 10:32:58.101,0.021,0.023,1.02
2026/05/14 10:32:58.121,0.023,0.027,1.021
2026/05/14 10:32:58.142,0.025,0.028,1.021
2026/05/14 10:32:58.162,0.022,0.025,1.025
2026/05/14 10:32:58.182,0.023,0.024,1.024
2026/05/14 10:32:58.203,0.024,0.025,1.022
2026/05/14 10:32:58.223,0.026,0.025,1.025
2026/05/14 10:32:58.244,0.024,0.024,1.021
2026/05/14 10:32:58.264,0.025,0.026,1.021
2026/05/14 10:32:58.285,0.025,0.023,1.022
2026/05/14 10:32:58.305,0.024,0.026,1.024
2026/05/14 10:32:58.326,0.025,0.029,1.018
2026/05/14 10:32:58.346,0.027,0.027,1.019
2026/05/14 10:32:58.367,0.027,0.023,1.021
2026/05/14 10:32:58.387,0.023,0.023,1.022
2026/05/14 10:32:58.408,0.025,0.026,1.022
2026/05/14 10:32:58.428,0.024,0.026,1.018
2026/05/14 10:32:58.449,0.026,0.022,1.019
2026/05/14 10:32:58.469,0.017,0.026,1.021
2026/05/14 10:32:58.490,0.027,0.029,1.019
2026/05/14 10:32:58.510,0.023,0.026,1.021
2026/05/14 10:32:58.531,0.022,0.024,1.024
2026/05/14 10:32:58.551,0.024,0.027,1.023
2026/05/14 10:32:58.571,0.023,0.027,1.022
2026/05/14 10:32:58.592,0.028,0.024,1.026
2026/05/14 10:32:58.612,0.025,0.025,1.023
2026/05/14 10:32:58.633,0.025,0.031,1.018
2026/05/14 10:32:58.653,0.02,0.025,1.025
2026/05/14 10:32:58.674,0.017,0.026,1.024
2026/05/14 10:32:58.694,0.022,0.029,1.024
2026/05/14 10:32:58.715,0.021,0.026,1.022
2026/05/14 10:32:58.735,0.025,0.025,1.022
2026/05/14 10:32:58.756,0.025,0.025,1.023
2026/05/14 10:32:58.776,0.025,0.027,1.025
2026/05/14 10:32:58.797,0.026,0.028,1.02
2026/05/14 10:32:58.817,0.024,0.027,1.024
2026/05/14 10:32:58.838,0.025,0.028,1.017
2026/05/14 10:32:58.858,0.025,0.025,1.019
2026/05/14 10:32:58.879,0.025,0.026,1.023
2026/05/14 10:32:58.899,0.021,0.025,1.021
2026/05/14 10:32:58.919,0.023,0.028,1.021
2026/05/14 10:32:58.940,0.025,0.026,1.025
2026/05/14 10:32:58.960,0.023,0.029,1.022
2026/05/14 10:32:58.981,0.021,0.026,1.021
2026/05/14 10:32:59.001,0.025,0.023,1.019
2026/05/14 10:32:59.022,0.025,0.027,1.02
2026/05/14 10:32:59.042,0.024,0.027,1.02
2026/05/14 10:32:59.063,0.028,0.022,1.021
2026/05/14 10:32:59.083,0.023,0.026,1.022
2026/05/14 10:32:59.104,0.029,0.024,1.016
2026/05/14 10:32:59.124,0.024,0.024,1.021
2026/05/14 10:32:59.145,0.021,0.027,1.021
2026/05/14 10:32:59.165,0.019,0.025,1.021
2026/05/14 10:32:59.186,0.023,0.029,1.022
2026/05/14 10:32:59.206,0.026,0.024,1.023
2026/05/14 10:32:59.227,0.024,0.028,1.022
2026/05/14 10:32:59.247,0.024,0.026,1.022
2026/05/14 10:32:59.267,0.025,0.03,1.021
2026/05/14 10:32:59.288,0.022,0.024,1.024
2026/05/14 10:32:59.308,0.025,0.022,1.018
2026/05/14 10:32:59.329,0.026,0.027,1.022
2026/05/14 10:32:59.349,0.023,0.026,1.021
2026/05/14 10:32:59.370,0.021,0.027,1.021
2026/05/14 10:32:59.390,0.025,0.027,1.024
2026/05/14 10:32:59.411,0.024,0.027,1.021
2026/05/14 10:32:59.431,0.025,0.028,1.021
2026/05/14 10:32:59.452,0.025,0.022,1.02
2026/05/14 10:32:59.472,0.023,0.022,1.022
2026/05/14 10:32:59.493,0.023,0.026,1.021
2026/05/14 10:32:59.513,0.024,0.029,1.022
2026/05/14 10:32:59.534,0.024,0.026,1.023
2026/05/14 10:32:59.554,0.025,0.026,1.019
2026/05/14 10:32:59.575,0.025,0.024,1.022
2026/05/14 10:32:59.595,0.025,0.026,1.021
2026/05/14 10:32:59.615,0.026,0.021,1.023
2026/05/14 10:32:59.636,0.023,0.023,1.021
2026/05/14 10:32:59.656,0.025,0.021,1.022
2026/05/14 10:32:59.677,0.026,0.03,1.022
2026/05/14 10:32:59.697,0.024,0.026,1.025
2026/05/14 10:32:59.718,0.02,0.024,1.022
2026/05/14 10:32:59.738,0.024,0.029,1.022
2026/05/14 10:32:59.759,0.025,0.025,1.022
2026/05/14 10:32:59.779,0.022,0.022,1.021
2026/05/14 10:32:59.800,0.021,0.024,1.021
2026/05/14 10:32:59.820,0.023,0.023,1.024
2026/05/14 10:32:59.841,0.025,0.028,1.022
2026/05/14 10:32:59.861,0.023,0.023,1.021
2026/05/14 10:32:59.882,0.023,0.026,1.019
2026/05/14 10:32:59.902,0.024,0.025,1.023
2026/05/14 10:32:59.923,0.02,0.026,1.022
2026/05/14 10:32:59.943,0.02,0.028,1.021
2026/05/14 10:32:59.963,0.024,0.026,1.021
2026/05/14 10:32:59.984,0.024,0.026,1.019
2026/05/14 10:33:00.004,0.024,0.025,1.02
2026/05/14 10:33:00.025,0.023,0.025,1.021
2026/05/14 10:33:00.045,0.021,0.025,1.019
2026/05/14 10:33:00.066,0.023,0.021,1.021
2026/05/14 10:33:00.086,0.026,0.027,1.019
2026/05/14 10:33:00.107,0.024,0.024,1.017
2026/05/14 10:33:00.127,0.022,0.027,1.024
2026/05/14 10:33:00.148,0.025,0.024,1.017
2026/05/14 10:33:00.168,0.03,0.027,1.028
2026/05/14 10:33:00.189,0.022,0.025,1.022
2026/05/14 10:33:00.209,0.022,0.026,1.02
2026/05/14 10:33:00.230,0.022,0.028,1.019
2026/05/14 10:33:00.250,0.023,0.025,1.024
2026/05/14 10:33:00.271,0.023,0.024,1.021
2026/05/14 10:33:00.291,0.023,0.022,1.023
2026/05/14 10:33:00.311,0.026,0.027,1.021
2026/05/14 10:33:00.332,0.026,0.026,1.021
2026/05/14 10:33:00.352,0.025,0.024,1.022
2026/05/14 10:33:00.373,0.028,0.023,1.019
2026/05/14 10:33:00.393,0.023,0.022,1.023
2026/05/14 10:33:00.414,0.023,0.023,1.019
2026/05/14 10:33:00.434,0.024,0.027,1.025
2026/05/14 10:33:00.455,0.021,0.028,1.023
2026/05/14 10:33:00.475,0.019,0.027,1.02
2026/05/14 10:33:00.496,0.023,0.028,1.022
2026/05/14 10:33:00.516,0.021,0.025,1.023
2026/05/14 10:33:00.537,0.026,0.024,1.021
2026/05/14 10:33:00.557,0.026,0.025,1.015
2026/05/14 10:33:00.578,0.023,0.026,1.021
2026/05/14 10:33:00.598,0.024,0.026,1.016
2026/05/14 10:33:00.619,0.028,0.026,1.027
2026/05/14 10:33:00.639,0.028,0.022,1.023
2026/05/14 10:33:00.659,0.021,0.025,1.02
2026/05/14 10:33:00.680,0.019,0.026,1.022
2026/05/14 10:33:00.700,0.022,0.026,1.02
2026/05/14 10:33:00.721,0.023,0.024,1.022
2026/05/14 10:33:00.741,0.026,0.022,1.017
2026/05/14 10:33:00.762,0.022,0.022,1.025
2026/05/14 10:33:00.782,0.025,0.026,1.025
2026/05/14 10:33:00.803,0.022,0.024,1.022
2026/05/14 10:33:00.823,0.054,0.081,1.349
2026/05/14 10:33:00.844,0.192,-0.06,0.889
2026/05/14 10:33:00.864,0.036,-0.048,1.49
2026/05/14 10:33:00.885,0.091,-0.002,1.044
2026/05/14 10:33:00.905,-0.011,-0.001,1.048
2026/05/14 10:33:00.926,0.013,0.041,1.031
2026/05/14 10:33:00.946,0.013,0.025,1.053
2026/05/14 10:33:00.967,0.022,0.015,1.04
2026/05/14 10:33:00.987,0.031,0.014,1.045
2026/05/14 10:33:01.007,0.037,0.021,1.03
2026/05/14 10:33:01.028,0.018,0.029,1.181
2026/05/14 10:33:01.048,0.038,0.024,1.027
2026/05/14 10:33:01.069,0.045,0.012,0.982
2026/05/14 10:33:01.089,0.022,0.036,1.065
2026/05/14 10:33:01.110,0.029,0.052,0.952
2026/05/14 10:33:01.130,0.131,-0.006,0.197
2026/05/14 10:33:01.151,0.144,0.053,0.837
2026/05/14 10:33:01.171,0.222,-0.024,0.573
2026/05/14 10:33:01.192,0.112,0.048,1.629
2026/05/14 10:33:01.212,-0.024,0.019,1.285
2026/05/14 10:33:01.233,0.015,-0.005,1.04
2026/05/14 10:33:01.253,0.038,0.009,0.988
2026/05/14 10:33:01.274,0.03,0.047,0.842
2026/05/14 10:33:01.294,0.043,0.049,0.989
2026/05/14 10:33:01.315,0.049,0.033,0.933
2026/05/14 10:33:01.335,0.025,0.029,0.919
2026/05/14 10:33:01.355,0.011,0.031,0.967
2026/05/14 10:33:01.376,0.017,0.03,0.95
2026/05/14 10:33:01.396,0.013,0.034,1.017
2026/05/14 10:33:01.417,0.021,0.035,1.025
2026/05/14 10:33:01.437,0.023,0.04,0.966
2026/05/14 10:33:01.458,0.028,0.03,1.006
2026/05/14 10:33:01.478,0.024,0.027,0.98
2026/05/14 10:33:01.499,0.03,0.021,0.996
2026/05/14 10:33:01.519,0.018,0.014,1.003
2026/05/14 10:33:01.540,0.02,0.019,0.976
2026/05/14 10:33:01.560,0.038,0.01,1.014
2026/05/14 10:33:01.581,0.032,0.023,1.026
2026/05/14 10:33:01.601,0.035,0.027,1.002
2026/05/14 10:33:01.622,0.027,0.026,1.006
2026/05/14 10:33:01.642,0.022,0.027,1.005
2026/05/14 10:33:01.663,0.017,0.027,1.018
2026/05/14 10:33:01.683,0.018,0.028,1.013
2026/05/14 10:33:01.703,0.017,0.03,1.011
2026/05/14 10:33:01.724,0.017,0.029,1.015
2026/05/14 10:33:01.744,0.019,0.027,1.021
2026/05/14 10:33:01.765,0.019,0.03,1.017
2026/05/14 10:33:01.785,0.024,0.023,1.016
2026/05/14 10:33:01.806,0.027,0.024,1.022
2026/05/14 10:33:01.826,0.031,0.02,1.026
2026/05/14 10:33:01.847,0.028,0.02,1.023
2026/05/14 10:33:01.867,0.028,0.021,1.022
2026/05/14 10:33:01.888,0.027,0.023,1.024
2026/05/14 10:33:01.908,0.024,0.026,1.03
2026/05/14 10:33:01.929,0.024,0.025,1.017
2026/05/14 10:33:01.949,0.022,0.027,1.02
2026/05/14 10:33:01.970,0.019,0.027,1.023
2026/05/14 10:33:01.990,0.018,0.028,1.022
2026/05/14 10:33:02.011,0.016,0.028,1.022
2026/05/14 10:33:02.031,0.019,0.028,1.019
2026/05/14 10:33:02.051,0.024,0.025,1.031
2026/05/14 10:33:02.072,0.026,0.028,1.021
2026/05/14 10:33:02.092,0.025,0.021,1.023
2026/05/14 10:33:02.113,0.027,0.021,1.023
2026/05/14 10:33:02.133,0.027,0.02,1.026
2026/05/14 10:33:02.154,0.024,0.022,1.025
2026/05/14 10:33:02.174,0.027,0.021,1.022
2026/05/14 10:33:02.195,0.022,0.026,1.026
2026/05/14 10:33:02.215,0.024,0.026,1.029
2026/05/14 10:33:02.236,0.023,0.028,1.02
2026/05/14 10:33:02.256,0.018,0.026,1.017
2026/05/14 10:33:02.277,0.021,0.025,1.017
2026/05/14 10:33:02.297,0.017,0.024,1.026
2026/05/14 10:33:02.318,0.026,0.03,1.025
2026/05/14 10:33:02.338,0.024,0.025,1.021
2026/05/14 10:33:02.359,0.023,0.024,1.02
2026/05/14 10:33:02.379,0.025,0.025,1.022
2026/05/14 10:33:02.399,0.026,0.025,1.019
2026/05/14 10:33:02.420,0.026,0.022,1.018
2026/05/14 10:33:02.440,0.029,0.023,1.023
2026/05/14 10:33:02.461,0.028,0.024,1.023
2026/05/14 10:33:02.481,0.026,0.022,1.022
2026/05/14 10:33:02.502,0.021,0.024,1.019
2026/05/14 10:33:02.522,0.025,0.029,1.021
2026/05/14 10:33:02.543,0.018,0.027,1.026
2026/05/14 10:33:02.563,0.022,0.027,1.021
2026/05/14 10:33:02.584,0.019,0.024,1.02
2026/05/14 10:33:02.604,0.02,0.031,1.02
2026/05/14 10:33:02.625,0.021,0.028,1.022
2026/05/14 10:33:02.645,0.024,0.027,1.02
2026/05/14 10:33:02.666,0.025,0.022,1.019
2026/05/14 10:33:02.686,0.027,0.025,1.025
2026/05/14 10:33:02.707,0.025,0.018,1.021
2026/05/14 10:33:02.727,0.025,0.021,1.024
2026/05/14 10:33:02.747,0.022,0.025,1.023
2026/05/14 10:33:02.768,0.024,0.022,1.025
2026/05/14 10:33:02.788,0.029,0.028,1.022
2026/05/14 10:33:02.809,0.024,0.027,1.023
2026/05/14 10:33:02.829,0.022,0.026,1.021
2026/05/14 10:33:02.850,0.017,0.025,1.024
2026/05/14 10:33:02.870,0.019,0.024,1.022
2026/05/14 10:33:02.891,0.025,0.026,1.022
2026/05/14 10:33:02.911,0.022,0.026,1.023
2026/05/14 10:33:02.932,0.027,0.026,1.027
2026/05/14 10:33:02.952,0.025,0.027,1.022
2026/05/14 10:33:02.973,0.023,0.024,1.022
2026/05/14 10:33:02.993,0.027,0.024,1.019
2026/05/14 10:33:03.014,0.028,0.026,1.021
2026/05/14 10:33:03.034,0.028,0.022,1.022
2026/05/14 10:33:03.055,0.025,0.022,1.025
2026/05/14 10:33:03.075,0.025,0.024,1.024
2026/05/14 10:33:03.095,0.023,0.029,1.019
2026/05/14 10:33:03.116,0.021,0.027,1.024
2026/05/14 10:33:03.136,0.025,0.025,1.024
2026/05/14 10:33:03.157,0.023,0.025,1.022
2026/05/14 10:33:03.177,0.02,0.028,1.023
2026/05/14 10:33:03.198,0.025,0.025,1.022
2026/05/14 10:33:03.218,0.027,0.028,1.02
2026/05/14 10:33:03.239,0.025,0.025,1.02
2026/05/14 10:33:03.259,0.026,0.023,1.024
2026/05/14 10:33:03.280,0.027,0.024,1.021
2026/05/14 10:33:03.300,0.024,0.024,1.02
2026/05/14 10:33:03.321,0.078,0.223,1.049
2026/05/14 10:33:03.341,0.131,0.118,0.608
2026/05/14 10:33:03.362,0.157,0.1,1.13
2026/05/14 10:33:03.382,-0.167,-0.026,0.762
2026/05/14 10:33:03.403,-0.153,-0.033,0.899
2026/05/14 10:33:03.423,0.062,0.049,1.018
2026/05/14 10:33:03.443,0.073,0.026,0.871
2026/05/14 10:33:03.464,-0.043,0.066,1.053
2026/05/14 10:33:03.484,0.064,0.03,1.092
2026/05/14 10:33:03.505,0.008,0.075,0.95
2026/05/14 10:33:03.525,0.071,0.038,1.03
2026/05/14 10:33:03.546,0.044,0.033,1.046
2026/05/14 10:33:03.566,0.025,0.03,0.984
2026/05/14 10:33:03.587,0.016,0.006,1.027
2026/05/14 10:33:03.607,-0.014,0.02,0.994
2026/05/14 10:33:03.628,-0.013,0.025,1.04
2026/05/14 10:33:03.648,0.026,0.019,1.007
2026/05/14 10:33:03.669,0.04,0.027,1.035
2026/05/14 10:33:03.689,0.049,0.027,1.05
2026/05/14 10:33:03.710,0.04,0.026,0.985
2026/05/14 10:33:03.730,0.031,0.022,1.034
2026/05/14 10:33:03.751,0.018,0.015,1.06
2026/05/14 10:33:03.771,0.028,0.016,1.024
2026/05/14 10:33:03.791,0.04,0.012,1.017
2026/05/14 10:33:03.812,0.041,0.02,1.007
2026/05/14 10:33:03.832,0.029,0.025,1.031
2026/05/14 10:33:03.853,0.014,0.032,1.03
2026/05/14 10:33:03.873,0.012,0.03,1.009
2026/05/14 10:33:03.894,0.015,0.034,1.021
2026/05/14 10:33:03.914,0.027,0.03,1.03
2026/05/14 10:33:03.935,0.028,0.026,1.024
2026/05/14 10:33:03.955,0.026,0.018,1.019
2026/05/14 10:33:03.976,0.023,0.018,1.022
2026/05/14 10:33:03.996,0.02,0.019,1.032
2026/05/14 10:33:04.017,0.026,0.019,1.019
2026/05/14 10:33:04.037,0.033,0.024,1.021
2026/05/14 10:33:04.058,0.036,0.024,1.025
2026/05/14 10:33:04.078,0.033,0.029,1.024
2026/05/14 10:33:04.099,0.02,0.024,1.024
2026/05/14 10:33:04.119,0.017,0.027,1.013
2026/05/14 10:33:04.139,0.013,0.026,1.027
2026/05/14 10:33:04.160,0.018,0.028,1.024
2026/05/14 10:33:04.180,0.026,0.027,1.019
2026/05/14 10:33:04.201,0.027,0.029,1.023
2026/05/14 10:33:04.221,0.025,0.023,1.023
2026/05/14 10:33:04.242,0.02,0.025,1.023
2026/05/14 10:33:04.262,0.024,0.022,1.019
2026/05/14 10:33:04.283,0.029,0.024,1.028
2026/05/14 10:33:04.303,0.029,0.017,1.023
2026/05/14 10:33:04.324,0.03,0.021,1.021
2026/05/14 10:33:04.344,0.026,0.023,1.021
2026/05/14 10:33:04.365,0.018,0.026,1.021
2026/05/14 10:33:04.385,0.021,0.03,1.02
2026/05/14 10:33:04.406,0.021,0.03,1.017
2026/05/14 10:33:04.426,0.028,0.027,1.019
2026/05/14 10:33:04.447,0.022,0.03,1.023
2026/05/14 10:33:04.467,0.02,0.023,1.023
2026/05/14 10:33:04.488,0.024,0.018,1.018
2026/05/14 10:33:04.508,0.025,0.024,1.024
2026/05/14 10:33:04.528,0.029,0.022,1.021
2026/05/14 10:33:04.549,0.032,0.022,1.017
2026/05/14 10:33:04.569,0.026,0.026,1.023
2026/05/14 10:33:04.590,0.02,0.021,1.022
2026/05/14 10:33:04.610,0.024,0.026,1.024
2026/05/14 10:33:04.631,0.02,0.026,1.021
2026/05/14 10:33:04.651,0.023,0.025,1.021
2026/05/14 10:33:04.672,0.022,0.03,1.022
2026/05/14 10:33:04.692,0.02,0.025,1.021
2026/05/14 10:33:04.713,0.023,0.029,1.019
2026/05/14 10:33:04.733,0.028,0.02,1.021
2026/05/14 10:33:04.754,0.027,0.023,1.024
2026/05/14 10:33:04.774,0.032,0.022,1.019
2026/05/14 10:33:04.795,0.025,0.021,1.024
2026/05/14 10:33:04.815,0.029,0.022,1.025
2026/05/14 10:33:04.836,0.026,0.024,1.024
2026/05/14 10:33:04.856,0.023,0.027,1.021
2026/05/14 10:33:04.876,0.021,0.027,1.017
2026/05/14 10:33:04.897,0.026,0.028,1.026
2026/05/14 10:33:04.917,0.021,0.032,1.019
2026/05/14 10:33:04.938,0.021,0.026,1.02
2026/05/14 10:33:04.958,0.024,0.026,1.023
2026/05/14 10:33:04.979,0.027,0.025,1.021
2026/05/14 10:33:04.999,0.027,0.021,1.022
2026/05/14 10:33:05.020,0.028,0.019,1.019
2026/05/14 10:33:05.040,0.029,0.023,1.023
2026/05/14 10:33:05.061,0.028,0.023,1.023
2026/05/14 10:33:05.081,0.023,0.022,1.024
2026/05/14 10:33:05.102,0.022,0.024,1.021
2026/05/14 10:33:05.122,0.019,0.029,1.024
2026/05/14 10:33:05.143,0.018,0.027,1.023
2026/05/14 10:33:05.163,0.019,0.028,1.02
2026/05/14 10:33:05.184,0.024,0.026,1.022
2026/05/14 10:33:05.204,0.024,0.022,1.021
2026/05/14 10:33:05.225,0.027,0.021,1.021
2026/05/14 10:33:05.245,0.03,0.021,1.018
2026/05/14 10:33:05.265,0.029,0.016,1.024
2026/05/14 10:33:05.286,0.03,0.021,1.021
2026/05/14 10:33:05.306,0.026,0.02,1.019
2026/05/14 10:33:05.327,0.025,0.024,1.019
2026/05/14 10:33:05.347,0.02,0.026,1.023
2026/05/14 10:33:05.368,0.02,0.031,1.023
2026/05/14 10:33:05.388,0.015,0.031,1.02
2026/05/14 10:33:05.409,0.021,0.032,1.027
2026/05/14 10:33:05.429,0.021,0.033,1.018
2026/05/14 10:33:05.450,0.024,0.023,1.022
2026/05/14 10:33:05.470,0.029,0.018,1.021
2026/05/14 10:33:05.491,0.027,0.015,1.021
2026/05/14 10:33:05.511,0.026,0.018,1.021
2026/05/14 10:33:05.532,0.028,0.023,1.025
2026/05/14 10:33:05.552,0.029,0.023,1.02
2026/05/14 10:33:05.573,0.032,0.027,1.023
2026/05/14 10:33:05.593,0.027,0.029,1.02
2026/05/14 10:33:05.613,0.024,0.029,1.024
2026/05/14 10:33:05.634,0.02,0.029,1.021
2026/05/14 10:33:05.654,0.018,0.027,1.021
2026/05/14 10:33:05.675,0.018,0.03,1.02
2026/05/14 10:33:05.695,0.021,0.026,1.022
2026/05/14 10:33:05.716,0.029,0.026,1.021
2026/05/14 10:33:05.736,0.026,0.024,1.02
2026/05/14 10:33:05.757,0.028,0.018,1.018
2026/05/14 10:33:05.777,0.025,0.018,1.02
2026/05/14 10:33:05.798,0.029,0.02,1.027
2026/05/14 10:33:05.818,0.027,0.025,1.02
2026/05/14 10:33:05.839,0.026,0.023,1.023
2026/05/14 10:33:05.859,0.022,0.027,1.018
2026/05/14 10:33:05.880,0.022,0.024,1.016
2026/05/14 10:33:05.900,0.02,0.027,1.02
2026/05/14 10:33:05.921,0.024,0.029,1.019
2026/05/14 10:33:05.941,0.014,0.027,1.021
2026/05/14 10:33:05.962,0.023,0.024,1.022
2026/05/14 10:33:05.982,0.027,0.022,1.021
2026/05/14 10:33:06.002,0.023,0.019,1.021
2026/05/14 10:33:06.023,0.031,0.018,1.021
2026/05/14 10:33:06.043,0.024,0.023,1.022
2026/05/14 10:33:06.064,0.028,0.025,1.021
2026/05/14 10:33:06.084,0.023,0.022,1.016
2026/05/14 10:33:06.105,0.021,0.02,1.023
2026/05/14 10:33:06.125,0.022,0.025,1.017
2026/05/14 10:33:06.146,0.02,0.027,1.023
2026/05/14 10:33:06.166,0.023,0.028,1.018
2026/05/14 10:33:06.187,0.023,0.028,1.023
2026/05/14 10:33:06.207,0.025,0.028,1.018
2026/05/14 10:33:06.228,0.024,0.025,1.023
2026/05/14 10:33:06.248,0.026,0.021,1.022
2026/05/14 10:33:06.269,0.024,0.023,1.021
2026/05/14 10:33:06.289,0.024,0.022,1.021
2026/05/14 10:33:06.310,0.027,0.024,1.021
2026/05/14 10:33:06.330,0.024,0.027,1.02
2026/05/14 10:33:06.350,0.023,0.024,1.021
2026/05/14 10:33:06.371,0.023,0.025,1.021
2026/05/14 10:33:06.391,0.019,0.026,1.023
2026/05/14 10:33:06.412,0.023,0.027,1.021
2026/05/14 10:33:06.432,0.024,0.027,1.02
2026/05/14 10:33:06.453,0.022,0.027,1.021
2026/05/14 10:33:06.473,0.026,0.023,1.021
2026/05/14 10:33:06.494,0.025,0.026,1.024
2026/05/14 10:33:06.514,0.027,0.017,1.022
2026/05/14 10:33:06.535,0.025,0.021,1.02
2026/05/14 10:33:06.555,0.029,0.022,1.022
2026/05/14 10:33:06.576,0.026,0.023,1.021
2026/05/14 10:33:06.596,0.027,0.026,1.017
2026/05/14 10:33:06.617,0.021,0.025,1.023
2026/05/14 10:33:06.637,0.024,0.027,1.02
2026/05/14 10:33:06.658,0.024,0.026,1.019
2026/05/14 10:33:06.678,0.024,0.03,1.018
2026/05/14 10:33:06.699,0.023,0.024,1.024
2026/05/14 10:33:06.719,0.026,0.021,1.024
2026/05/14 10:33:06.739,0.025,0.022,1.019
2026/05/14 10:33:06.760,0.027,0.022,1.02
2026/05/14 10:33:06.780,0.026,0.027,1.02
2026/05/14 10:33:06.801,0.025,0.023,1.022
2026/05/14 10:33:06.821,0.025,0.023,1.023
2026/05/14 10:33:06.842,0.026,0.023,1.021
2026/05/14 10:33:06.862,0.023,0.022,1.021
2026/05/14 10:33:06.883,0.022,0.029,1.027
2026/05/14 10:33:06.903,0.023,0.024,1.02
2026/05/14 10:33:06.924,0.026,0.031,1.025
2026/05/14 10:33:06.944,0.024,0.024,1.023
2026/05/14 10:33:06.965,0.025,0.022,1.021
2026/05/14 10:33:06.985,0.026,0.022,1.024
2026/05/14 10:33:07.006,0.027,0.024,1.021
2026/05/14 10:33:07.026,0.027,0.023,1.024
2026/05/14 10:33:07.047,0.024,0.024,1.023
2026/05/14 10:33:07.067,0.024,0.027,1.022
2026/05/14 10:33:07.087,0.022,0.022,1.024
2026/05/14 10:33:07.108,0.025,0.025,1.022
2026/05/14 10:33:07.128,0.022,0.027,1.018
2026/05/14 10:33:07.149,0.023,0.024,1.021
2026/05/14 10:33:07.169,0.021,0.031,1.014
2026/05/14 10:33:07.190,0.021,0.025,1.021
2026/05/14 10:33:07.210,0.024,0.025,1.022
2026/05/14 10:33:07.231,0.023,0.023,1.023
2026/05/14 10:33:07.251,0.029,0.024,1.02
2026/05/14 10:33:07.272,0.022,0.022,1.022
2026/05/14 10:33:07.292,0.026,0.021,1.02
2026/05/14 10:33:07.313,0.026,0.021,1.025
2026/05/14 10:33:07.333,0.027,0.022,1.022
2026/05/14 10:33:07.354,0.026,0.027,1.019
2026/05/14 10:33:07.374,0.023,0.025,1.023
2026/05/14 10:33:07.395,0.024,0.024,1.023
2026/05/14 10:33:07.415,0.023,0.028,1.021
2026/05/14 10:33:07.435,0.024,0.027,1.024
2026/05/14 10:33:07.456,0.025,0.023,1.025
2026/05/14 10:33:07.476,0.026,0.022,1.024
2026/05/14 10:33:07.497,0.027,0.023,1.022
2026/05/14 10:33:07.517,0.027,0.023,1.019
2026/05/14 10:33:07.538,0.028,0.021,1.027
2026/05/14 10:33:07.558,0.026,0.027,1.018
2026/05/14 10:33:07.579,0.026,0.025,1.021
2026/05/14 10:33:07.599,0.024,0.026,1.022
2026/05/14 10:33:07.620,0.022,0.024,1.022
2026/05/14 10:33:07.640,0.022,0.025,1.02
2026/05/14 10:33:07.661,0.019,0.027,1.021
2026/05/14 10:33:07.681,0.022,0.022,1.02
2026/05/14 10:33:07.702,0.027,0.025,1.024
2026/05/14 10:33:07.722,0.024,0.022,1.024
2026/05/14 10:33:07.743,0.028,0.022,1.023
2026/05/14 10:33:07.763,0.028,0.022,1.022
2026/05/14 10:33:07.783,0.022,0.025,1.016
2026/05/14 10:33:07.804,0.023,0.024,1.019
2026/05/14 10:33:07.824,0.024,0.026,1.021
2026/05/14 10:33:07.845,0.022,0.022,1.023
2026/05/14 10:33:07.865,0.024,0.026,1.022
2026/05/14 10:33:07.886,0.024,0.029,1.018
2026/05/14 10:33:07.906,0.025,0.023,1.021
2026/05/14 10:33:07.927,0.025,0.027,1.019
2026/05/14 10:33:07.947,0.025,0.023,1.02
2026/05/14 10:33:07.968,0.027,0.023,1.021
2026/05/14 10:33:07.988,0.025,0.023,1.022
2026/05/14 10:33:08.009,0.021,0.025,1.022
2026/05/14 10:33:08.029,0.026,0.024,1.026
2026/05/14 10:33:08.050,0.024,0.023,1.02
2026/05/14 10:33:08.070,0.023,0.022,1.021
2026/05/14 10:33:08.091,0.026,0.024,1.023
2026/05/14 10:33:08.111,0.023,0.026,1.02
2026/05/14 10:33:08.131,0.023,0.025,1.023
2026/05/14 10:33:08.152,0.021,0.025,1.018
2026/05/14 10:33:08.172,0.021,0.027,1.019
2026/05/14 10:33:08.193,0.023,0.025,1.021
2026/05/14 10:33:08.213,0.022,0.024,1.023
2026/05/14 10:33:08.234,0.025,0.025,1.019
2026/05/14 10:33:08.254,0.027,0.023,1.022
2026/05/14 10:33:08.275,0.023,0.025,1.02
2026/05/14 10:33:08.295,0.022,0.026,1.018
2026/05/14 10:33:08.316,0.024,0.022,1.019
2026/05/14 10:33:08.336,0.024,0.025,1.023
2026/05/14 10:33:08.357,0.027,0.025,1.023
2026/05/14 10:33:08.377,0.02,0.023,1.021
2026/05/14 10:33:08.398,0.024,0.028,1.022
2026/05/14 10:33:08.418,0.022,0.027,1.02
2026/05/14 10:33:08.439,0.024,0.027,1.02
2026/05/14 10:33:08.459,0.023,0.022,1.025
2026/05/14 10:33:08.480,0.026,0.022,1.022
2026/05/14 10:33:08.500,0.026,0.024,1.022
2026/05/14 10:33:08.520,0.025,0.025,1.026
2026/05/14 10:33:08.541,0.024,0.026,1.02
2026/05/14 10:33:08.561,0.023,0.027,1.023
2026/05/14 10:33:08.582,0.025,0.027,1.019
2026/05/14 10:33:08.602,0.025,0.029,1.025
2026/05/14 10:33:08.623,0.025,0.025,1.022
2026/05/14 10:33:08.643,0.024,0.022,1.024
2026/05/14 10:33:08.664,0.024,0.024,1.021
2026/05/14 10:33:08.684,0.025,0.025,1.021
2026/05/14 10:33:08.705,0.028,0.024,1.023
2026/05/14 10:33:08.725,0.023,0.022,1.023
2026/05/14 10:33:08.746,0.025,0.022,1.021
2026/05/14 10:33:08.766,0.023,0.02,1.022
2026/05/14 10:33:08.787,0.02,0.025,1.022
2026/05/14 10:33:08.807,0.028,0.021,1.023
2026/05/14 10:33:08.828,0.027,0.028,1.02
2026/05/14 10:33:08.848,0.026,0.029,1.021
2026/05/14 10:33:08.868,0.025,0.025,1.021
2026/05/14 10:33:08.889,0.022,0.025,1.021
2026/05/14 10:33:08.909,0.022,0.027,1.023
2026/05/14 10:33:08.930,0.029,0.026,1.024
2026/05/14 10:33:08.950,0.027,0.023,1.021
2026/05/14 10:33:08.971,0.022,0.023,1.027
2026/05/14 10:33:08.991,0.026,0.024,1.023
2026/05/14 10:33:09.012,0.029,0.028,1.019
2026/05/14 10:33:09.032,0.027,0.024,1.018
2026/05/14 10:33:09.053,0.023,0.029,1.02
2026/05/14 10:33:09.073,0.024,0.026,1.021
2026/05/14 10:33:09.094,0.025,0.025,1.018
2026/05/14 10:33:09.114,0.025,0.027,1.021
2026/05/14 10:33:09.135,0.025,0.027,1.023
2026/05/14 10:33:09.155,0.019,0.023,1.021
2026/05/14 10:33:09.176,0.023,0.026,1.022
2026/05/14 10:33:09.196,0.024,0.029,1.024
2026/05/14 10:33:09.216,0.026,0.024,1.021
2026/05/14 10:33:09.237,0.025,0.025,1.021
2026/05/14 10:33:09.257,0.025,0.022,1.02
2026/05/14 10:33:09.278,0.027,0.024,1.022
2026/05/14 10:33:09.298,0.027,0.026,1.027
2026/05/14 10:33:09.319,0.028,0.027,1.022
2026/05/14 10:33:09.339,0.025,0.021,1.024
2026/05/14 10:33:09.360,0.022,0.027,1.02
2026/05/14 10:33:09.380,0.024,0.024,1.021
2026/05/14 10:33:09.401,0.023,0.028,1.024
2026/05/14 10:33:09.421,0.025,0.024,1.022
2026/05/14 10:33:09.442,0.027,0.026,1.024
2026/05/14 10:33:09.462,0.025,0.022,1.022
2026/05/14 10:33:09.483,0.027,0.025,1.021
2026/05/14 10:33:09.503,0.027,0.024,1.022
2026/05/14 10:33:09.524,0.025,0.025,1.024
2026/05/14 10:33:09.544,0.026,0.022,1.019
2026/05/14 10:33:09.565,0.025,0.028,1.024
2026/05/14 10:33:09.585,0.026,0.025,1.021
2026/05/14 10:33:09.605,0.023,0.026,1.021
2026/05/14 10:33:09.626,0.023,0.026,1.021
2026/05/14 10:33:09.646,0.02,0.024,1.019
2026/05/14 10:33:09.667,0.026,0.025,1.024
2026/05/14 10:33:09.687,0.025,0.022,1.022
2026/05/14 10:33:09.708,0.022,0.027,1.02
2026/05/14 10:33:09.728,0.022,0.023,1.02
2026/05/14 10:33:09.749,0.025,0.024,1.019
2026/05/14 10:33:09.769,0.027,0.023,1.022
2026/05/14 10:33:09.790,0.026,0.023,1.02
2026/05/14 10:33:09.810,0.023,0.025,1.02
2026/05/14 10:33:09.831,0.027,0.024,1.025
2026/05/14 10:33:09.851,0.023,0.027,1.024
2026/05/14 10:33:09.872,0.025,0.024,1.018
2026/05/14 10:33:09.892,0.025,0.022,1.018
2026/05/14 10:33:09.913,0.025,0.025,1.024
2026/05/14 10:33:09.933,0.027,0.022,1.022
2026/05/14 10:33:09.953,0.024,0.021,1.025
2026/05/14 10:33:09.974,0.026,0.023,1.023
2026/05/14 10:33:09.994,0.026,0.021,1.02
2026/05/14 10:33:10.015,0.027,0.023,1.02
2026/05/14 10:33:10.035,0.021,0.023,1.021
2026/05/14 10:33:10.056,0.026,0.026,1.022
2026/05/14 10:33:10.076,0.022,0.026,1.02
2026/05/14 10:33:10.097,0.025,0.027,1.023
2026/05/14 10:33:10.117,0.021,0.022,1.016
2026/05/14 10:33:10.138,0.026,0.024,1.021
2026/05/14 10:33:10.158,0.023,0.024,1.022
2026/05/14 10:33:10.179,0.026,0.027,1.025
2026/05/14 10:33:10.199,0.027,0.023,1.023
2026/05/14 10:33:10.220,0.024,0.023,1.023
2026/05/14 10:33:10.240,0.027,0.024,1.02
2026/05/14 10:33:10.261,0.02,0.024,1.022
2026/05/14 10:33:10.281,0.023,0.023,1.023
2026/05/14 10:33:10.302,0.025,0.03,1.026
2026/05/14 10:33:10.322,0.027,0.021,1.023
2026/05/14 10:33:10.342,0.024,0.024,1.023
2026/05/14 10:33:10.363,0.024,0.027,1.026
2026/05/14 10:33:10.383,0.026,0.024,1.024
2026/05/14 10:33:10.404,0.023,0.024,1.021
2026/05/14 10:33:10.424,0.029,0.026,1.023
2026/05/14 10:33:10.445,0.023,0.025,1.026
2026/05/14 10:33:10.465,0.023,0.022,1.024
2026/05/14 10:33:10.486,0.022,0.022,1.022
2026/05/14 10:33:10.506,0.024,0.027,1.022
2026/05/14 10:33:10.527,0.019,0.03,1.019
2026/05/14 10:33:10.547,0.021,0.026,1.021
2026/05/14 10:33:10.568,0.025,0.023,1.02
2026/05/14 10:33:10.588,0.018,0.023,1.021
2026/05/14 10:33:10.609,0.023,0.027,1.019
2026/05/14 10:33:10.629,0.023,0.02,1.022
2026/05/14 10:33:10.650,0.025,0.022,1.022
2026/05/14 10:33:10.670,0.024,0.022,1.017
2026/05/14 10:33:10.690,0.029,0.025,1.022
2026/05/14 10:33:10.711,0.02,0.022,1.019
2026/05/14 10:33:10.731,0.025,0.025,1.023
2026/05/14 10:33:10.752,0.024,0.023,1.021
2026/05/14 10:33:10.772,0.026,0.023,1.021
2026/05/14 10:33:10.793,0.023,0.027,1.017
2026/05/14 10:33:10.813,0.024,0.019,1.023
2026/05/14 10:33:10.834,0.019,0.025,1.024
2026/05/14 10:33:10.854,0.023,0.027,1.025
2026/05/14 10:33:10.875,0.026,0.024,1.025
2026/05/14 10:33:10.895,0.024,0.027,1.023
2026/05/14 10:33:10.916,0.024,0.022,1.022
2026/05/14 10:33:10.936,0.026,0.025,1.023
2026/05/14 10:33:10.957,0.023,0.023,1.024
2026/05/14 10:33:10.977,0.023,0.026,1.021
2026/05/14 10:33:10.998,0.025,0.025,1.024
2026/05/14 10:33:11.018,0.023,0.025,1.02
2026/05/14 10:33:11.039,0.025,0.022,1.019
2026/05/14 10:33:11.059,0.028,0.024,1.024
2026/05/14 10:33:11.079,0.025,0.025,1.023
2026/05/14 10:33:11.100,0.023,0.027,1.023
2026/05/14 10:33:11.120,0.025,0.021,1.024
2026/05/14 10:33:11.141,0.02,0.025,1.017
2026/05/14 10:33:11.161,0.021,0.026,1.022
2026/05/14 10:33:11.182,0.028,0.021,1.023
2026/05/14 10:33:11.202,0.027,0.023,1.019
2026/05/14 10:33:11.223,0.026,0.027,1.023
2026/05/14 10:33:11.243,0.027,0.026,1.02
2026/05/14 10:33:11.264,0.025,0.023,1.015
2026/05/14 10:33:11.284,0.021,0.025,1.021
2026/05/14 10:33:11.305,0.023,0.024,1.02
2026/05/14 10:33:11.325,0.024,0.025,1.024
2026/05/14 10:33:11.346,0.024,0.025,1.025
2026/05/14 10:33:11.366,0.027,0.023,1.024
2026/05/14 10:33:11.387,0.027,0.029,1.022
2026/05/14 10:33:11.407,0.024,0.023,1.023
2026/05/14 10:33:11.427,0.021,0.026,1.021
2026/05/14 10:33:11.448,0.025,0.025,1.021
2026/05/14 10:33:11.468,0.025,0.025,1.021
2026/05/14 10:33:11.489,0.023,0.022,1.021
2026/05/14 10:33:11.509,0.024,0.026,1.019
2026/05/14 10:33:11.530,0.027,0.023,1.021
2026/05/14 10:33:11.550,0.024,0.022,1.019
2026/05/14 10:33:11.571,0.024,0.026,1.023
2026/05/14 10:33:11.591,0.027,0.027,1.022
2026/05/14 10:33:11.612,0.026,0.027,1.02
2026/05/14 10:33:11.632,0.022,0.025,1.021
2026/05/14 10:33:11.653,0.024,0.023,1.021
2026/05/14 10:33:11.673,0.023,0.022,1.023
2026/05/14 10:33:11.694,0.023,0.025,1.018
2026/05/14 10:33:11.714,0.026,0.025,1.02
2026/05/14 10:33:11.735,0.022,0.024,1.021
2026/05/14 10:33:11.755,0.024,0.027,1.021
2026/05/14 10:33:11.776,0.027,0.027,1.021
2026/05/14 10:33:11.796,0.026,0.025,1.018
2026/05/14 10:33:11.816,0.024,0.026,1.021
2026/05/14 10:33:11.837,0.025,0.022,1.02
2026/05/14 10:33:11.857,0.026,0.028,1.021
2026/05/14 10:33:11.878,0.024,0.022,1.021
2026/05/14 10:33:11.898,0.024,0.021,1.021
2026/05/14 10:33:11.919,0.022,0.023,1.023
2026/05/14 10:33:11.939,0.022,0.024,1.019
2026/05/14 10:33:11.960,0.023,0.027,1.025
2026/05/14 10:33:11.980,0.025,0.027,1.023
2026/05/14 10:33:12.001,0.025,0.025,1.02
2026/05/14 10:33:12.021,0.025,0.025,1.022
2026/05/14 10:33:12.042,0.021,0.026,1.02
2026/05/14 10:33:12.062,0.025,0.024,1.02
2026/05/14 10:33:12.083,0.026,0.021,1.025
2026/05/14 10:33:12.103,0.026,0.027,1.024
2026/05/14 10:33:12.124,0.023,0.022,1.021
2026/05/14 10:33:12.144,0.027,0.023,1.02
2026/05/14 10:33:12.164,0.023,0.025,1.021
2026/05/14 10:33:12.185,0.025,0.024,1.022
2026/05/14 10:33:12.205,0.025,0.026,1.019
2026/05/14 10:33:12.226,0.024,0.026,1.021
2026/05/14 10:33:12.246,0.028,0.024,1.019
2026/05/14 10:33:12.267,0.025,0.023,1.021
2026/05/14 10:33:12.287,0.027,0.024,1.026
2026/05/14 10:33:12.308,0.022,0.025,1.021
2026/05/14 10:33:12.328,0.024,0.024,1.023
2026/05/14 10:33:12.349,0.021,0.027,1.024
2026/05/14 10:33:12.369,0.023,0.028,1.023
2026/05/14 10:33:12.390,0.027,0.027,1.024
2026/05/14 10:33:12.410,0.026,0.026,1.023
2026/05/14 10:33:12.431,0.022,0.024,1.022
2026/05/14 10:33:12.451,0.023,0.025,1.019
2026/05/14 10:33:12.472,0.023,0.024,1.022
2026/05/14 10:33:12.492,0.026,0.025,1.021
2026/05/14 10:33:12.513,0.024,0.026,1.022
2026/05/14 10:33:12.533,0.025,0.024,1.022
2026/05/14 10:33:12.553,0.024,0.024,1.022
2026/05/14 10:33:12.574,0.024,0.023,1.024
2026/05/14 10:33:12.594,0.025,0.025,1.024
2026/05/14 10:33:12.615,0.025,0.025,1.022
2026/05/14 10:33:12.635,0.024,0.024,1.018
2026/05/14 10:33:12.656,0.026,0.026,1.024
2026/05/14 10:33:12.676,0.025,0.026,1.021
2026/05/14 10:33:12.697,0.024,0.023,1.025
2026/05/14 10:33:12.717,0.023,0.026,1.022
2026/05/14 10:33:12.738,0.024,0.027,1.022
2026/05/14 10:33:12.758,0.019,0.024,1.021
2026/05/14 10:33:12.779,0.025,0.023,1.019
2026/05/14 10:33:12.799,0.024,0.025,1.022
2026/05/14 10:33:12.820,0.025,0.024,1.022
2026/05/14 10:33:12.840,0.026,0.025,1.019
2026/05/14 10:33:12.861,0.025,0.025,1.018
2026/05/14 10:33:12.881,0.023,0.026,1.021
2026/05/14 10:33:12.901,0.027,0.022,1.019
2026/05/14 10:33:12.922,0.023,0.025,1.022
2026/05/14 10:33:12.942,0.026,0.028,1.02
2026/05/14 10:33:12.963,0.026,0.027,1.023
2026/05/14 10:33:12.983,0.02,0.027,1.022
2026/05/14 10:33:13.004,0.021,0.026,1.021
2026/05/14 10:33:13.024,0.026,0.022,1.022
2026/05/14 10:33:13.045,0.027,0.024,1.021
2026/05/14 10:33:13.065,0.025,0.024,1.025
2026/05/14 10:33:13.086,0.026,0.024,1.021
2026/05/14 10:33:13.106,0.028,0.024,1.017
2026/05/14 10:33:13.127,0.024,0.023,1.023
2026/05/14 10:33:13.147,0.023,0.023,1.02
2026/05/14 10:33:13.168,0.025,0.029,1.021
2026/05/14 10:33:13.188,0.025,0.028,1.023
2026/05/14 10:33:13.209,0.023,0.028,1.02
2026/05/14 10:33:13.229,0.026,0.024,1.025
2026/05/14 10:33:13.249,0.022,0.024,1.021
2026/05/14 10:33:13.270,0.026,0.026,1.021
2026/05/14 10:33:13.290,0.024,0.023,1.023
2026/05/14 10:33:13.311,0.023,0.023,1.022
2026/05/14 10:33:13.331,0.023,0.024,1.022
2026/05/14 10:33:13.352,0.022,0.022,1.022
2026/05/14 10:33:13.372,0.023,0.024,1.02
2026/05/14 10:33:13.393,0.024,0.026,1.021
2026/05/14 10:33:13.413,0.024,0.026,1.027
2026/05/14 10:33:13.434,0.021,0.023,1.023
2026/05/14 10:33:13.454,0.025,0.025,1.022
2026/05/14 10:33:13.475,0.024,0.021,1.024
2026/05/14 10:33:13.495,0.026,0.022,1.023
2026/05/14 10:33:13.516,0.024,0.027,1.025
2026/05/14 10:33:13.536,0.022,0.02,1.025
2026/05/14 10:33:13.557,0.029,0.025,1.023
2026/05/14 10:33:13.577,0.026,0.026,1.023
2026/05/14 10:33:13.597,0.023,0.024,1.022
2026/05/14 10:33:13.618,0.025,0.025,1.023
2026/05/14 10:33:13.638,0.024,0.024,1.024
2026/05/14 10:33:13.659,0.026,0.028,1.021
2026/05/14 10:33:13.679,0.025,0.025,1.024
2026/05/14 10:33:13.700,0.026,0.023,1.02
2026/05/14 10:33:13.720,0.025,0.024,1.022
2026/05/14 10:33:13.741,0.024,0.027,1.021
2026/05/14 10:33:13.761,0.025,0.023,1.023
2026/05/14 10:33:13.782,0.022,0.026,1.021
2026/05/14 10:33:13.802,0.022,0.026,1.026
2026/05/14 10:33:13.823,0.023,0.029,1.019
2026/05/14 10:33:13.843,0.025,0.026,1.022
2026/05/14 10:33:13.864,0.022,0.027,1.022
2026/05/14 10:33:13.884,0.025,0.022,1.021
2026/05/14 10:33:13.905,0.028,0.024,1.025
2026/05/14 10:33:13.925,0.021,0.023,1.021
2026/05/14 10:33:13.946,0.025,0.025,1.02
2026/05/14 10:33:13.966,0.023,0.023,1.019
2026/05/14 10:33:13.986,0.026,0.023,1.021
2026/05/14 10:33:14.007,0.024,0.024,1.021
2026/05/14 10:33:14.027,0.026,0.026,1.022
2026/05/14 10:33:14.048,0.023,0.028,1.023
2026/05/14 10:33:14.068,0.023,0.027,1.023
2026/05/14 10:33:14.089,0.021,0.026,1.023
2026/05/14 10:33:14.109,0.026,0.023,1.022
2026/05/14 10:33:14.130,0.025,0.025,1.023
2026/05/14 10:33:14.150,0.024,0.025,1.023
2026/05/14 10:33:14.171,0.024,0.023,1.021
2026/05/14 10:33:14.191,0.029,0.025,1.022
2026/05/14 10:33:14.212,0.022,0.025,1.025
2026/05/14 10:33:14.232,0.026,0.024,1.023
2026/05/14 10:33:14.253,0.023,0.021,1.025
2026/05/14 10:33:14.273,0.023,0.022,1.022
2026/05/14 10:33:14.294,0.024,0.024,1.022
2026/05/14 10:33:14.314,0.025,0.024,1.025
2026/05/14 10:33:14.334,0.024,0.026,1.024
2026/05/14 10:33:14.355,0.025,0.022,1.02
2026/05/14 10:33:14.375,0.025,0.024,1.023
2026/05/14 10:33:14.396,0.022,0.027,1.022
2026/05/14 10:33:14.416,0.024,0.026,1.021
2026/05/14 10:33:14.437,0.026,0.026,1.023
2026/05/14 10:33:14.457,0.026,0.024,1.018
2026/05/14 10:33:14.478,0.028,0.022,1.022
2026/05/14 10:33:14.498,0.025,0.025,1.02
2026/05/14 10:33:14.519,0.024,0.026,1.021
2026/05/14 10:33:14.539,0.029,0.025,1.024
2026/05/14 10:33:14.560,0.023,0.025,1.023
2026/05/14 10:33:14.580,0.024,0.022,1.022
2026/05/14 10:33:14.601,0.025,0.026,1.022
2026/05/14 10:33:14.621,0.024,0.025,1.021
2026/05/14 10:33:14.642,0.027,0.025,1.024
2026/05/14 10:33:14.662,0.023,0.023,1.023
2026/05/14 10:33:14.682,0.024,0.027,1.023
2026/05/14 10:33:14.703,0.027,0.023,1.022
2026/05/14 10:33:14.723,0.02,0.022,1.024
2026/05/14 10:33:14.744,0.024,0.025,1.022
2026/05/14 10:33:14.764,0.025,0.023,1.021
2026/05/14 10:33:14.785,0.026,0.024,1.025
2026/05/14 10:33:14.805,0.024,0.025,1.021
2026/05/14 10:33:14.826,0.024,0.028,1.023
2026/05/14 10:33:14.846,0.025,0.024,1.021
2026/05/14 10:33:14.867,0.023,0.023,1.019
2026/05/14 10:33:14.887,0.023,0.026,1.021
2026/05/14 10:33:14.908,0.028,0.024,1.017
2026/05/14 10:33:14.928,0.022,0.03,1.022
2026/05/14 10:33:14.949,0.024,0.023,1.019
2026/05/14 10:33:14.969,0.023,0.023,1.022
2026/05/14 10:33:14.990,0.021,0.026,1.026
2026/05/14 10:33:15.010,0.027,0.026,1.023
2026/05/14 10:33:15.030,0.026,0.026,1.022
2026/05/14 10:33:15.051,0.026,0.024,1.021
2026/05/14 10:33:15.071,0.025,0.025,1.019
2026/05/14 10:33:15.092,0.026,0.025,1.019
2026/05/14 10:33:15.112,0.026,0.022,1.024
2026/05/14 10:33:15.133,0.027,0.026,1.022
2026/05/14 10:33:15.153,0.021,0.023,1.022
2026/05/14 10:33:15.174,0.027,0.02,1.021
2026/05/14 10:33:15.194,0.025,0.024,1.02
2026/05/14 10:33:15.215,0.027,0.025,1.022
2026/05/14 10:33:15.235,0.026,0.027,1.022
2026/05/14 10:33:15.256,0.022,0.024,1.017
2026/05/14 10:33:15.276,0.024,0.025,1.023
2026/05/14 10:33:15.297,0.025,0.021,1.024
2026/05/14 10:33:15.317,0.021,0.025,1.023
2026/05/14 10:33:15.338,0.023,0.022,1.02
2026/05/14 10:33:15.358,0.026,0.023,1.017
2026/05/14 10:33:15.379,0.026,0.024,1.022
2026/05/14 10:33:15.399,0.024,0.023,1.017
2026/05/14 10:33:15.419,0.025,0.023,1.02
2026/05/14 10:33:15.440,0.025,0.025,1.019
2026/05/14 10:33:15.460,0.025,0.025,1.024
2026/05/14 10:33:15.481,0.025,0.025,1.023
2026/05/14 10:33:15.501,0.028,0.026,1.023
2026/05/14 10:33:15.522,0.025,0.023,1.021
2026/05/14 10:33:15.542,0.022,0.02,1.021
2026/05/14 10:33:15.563,0.024,0.027,1.022
2026/05/14 10:33:15.583,0.025,0.026,1.025
2026/05/14 10:33:15.604,0.025,0.023,1.022
2026/05/14 10:33:15.624,0.024,0.029,1.026
2026/05/14 10:33:15.645,0.023,0.027,1.018
2026/05/14 10:33:15.665,0.027,0.026,1.026
2026/05/14 10:33:15.686,0.027,0.022,1.017
2026/05/14 10:33:15.706,0.028,0.022,1.021
2026/05/14 10:33:15.727,0.023,0.023,1.02
2026/05/14 10:33:15.747,0.027,0.022,1.018
2026/05/14 10:33:15.767,0.022,0.025,1.021
2026/05/14 10:33:15.788,0.024,0.025,1.024
2026/05/14 10:33:15.808,0.025,0.023,1.017
2026/05/14 10:33:15.829,0.02,0.027,1.025
2026/05/14 10:33:15.849,0.025,0.026,1.024
2026/05/14 10:33:15.870,0.025,0.026,1.022
2026/05/14 10:33:15.890,0.027,0.024,1.021
2026/05/14 10:33:15.911,0.022,0.026,1.021
