Timestamp,ACC X,ACC Y,ACC Z
2026/05/14 10:30:06.708,-0.012,-0.027,1.001
2026/05/14 10:30:06.727,-0.012,-0.028,0.995
2026/05/14 10:30:06.747,-0.014,-0.031,1.002
2026/05/14 10:30:06.766,-0.011,-0.026,0.998
2026/05/14 10:30:06.785,-0.015,-0.029,0.995
2026/05/14 10:30:06.804,-0.013,-0.03,0.999
2026/05/14 10:30:06.823,-0.015,-0.029,1.0
2026/05/14 10:30:06.843,-0.016,-0.031,0.994
2026/05/14 10:30:06.862,-0.015,-0.03,0.996
2026/05/14 10:30:06.881,-0.01,-0.03,0.999
2026/05/14 10:30:06.900,-0.012,-0.029,0.998
2026/05/14 10:30:06.920,-0.015,-0.027,1.001
2026/05/14 10:30:06.939,-0.008,-0.028,0.994
2026/05/14 10:30:06.958,-0.018,-0.033,1.004
2026/05/14 10:30:06.977,-0.011,-0.028,0.996
2026/05/14 10:30:06.997,-0.015,-0.03,1.0
2026/05/14 10:30:07.016,-0.013,-0.032,0.998
2026/05/14 10:30:07.035,-0.012,-0.031,1.0
2026/05/14 10:30:07.054,-0.015,-0.026,1.002
2026/05/14 10:30:07.073,-0.015,-0.029,0.999
2026/05/14 10:30:07.093,-0.016,-0.03,0.995
2026/05/14 10:30:07.112,-0.013,-0.032,1.004
2026/05/14 10:30:07.131,-0.009,-0.024,1.002
2026/05/14 10:30:07.150,-0.016,-0.03,1.0
2026/05/14 10:30:07.170,-0.014,-0.031,1.007
2026/05/14 10:30:07.189,-0.015,-0.022,0.985
2026/05/14 10:30:07.208,-0.015,-0.035,0.994
2026/05/14 10:30:07.227,-0.01,-0.03,1.002
2026/05/14 10:30:07.247,-0.016,-0.027,0.995
2026/05/14 10:30:07.266,-0.009,-0.029,0.992
2026/05/14 10:30:07.285,-0.012,-0.035,1.009
2026/05/14 10:30:07.304,-0.015,-0.015,0.95
2026/05/14 10:30:07.323,-0.018,-0.03,1.004
2026/05/14 10:30:07.343,-0.01,-0.028,1.0
2026/05/14 10:30:07.362,-0.018,-0.035,1.019
2026/05/14 10:30:07.381,-0.009,-0.034,1.013
2026/05/14 10:30:07.400,-0.015,-0.032,1.015
2026/05/14 10:30:07.420,-0.009,-0.022,0.972
2026/05/14 10:30:07.439,-0.018,-0.024,0.999
2026/05/14 10:30:07.458,-0.01,-0.028,1.011
2026/05/14 10:30:07.477,-0.009,-0.03,0.996
2026/05/14 10:30:07.497,-0.014,-0.025,0.983
2026/05/14 10:30:07.516,-0.01,-0.035,0.992
2026/05/14 10:30:07.535,-0.014,-0.032,0.984
2026/05/14 10:30:07.554,-0.011,-0.031,1.017
2026/05/14 10:30:07.573,-0.009,-0.033,0.988
2026/05/14 10:30:07.593,-0.015,-0.037,1.015
2026/05/14 10:30:07.612,-0.015,-0.022,0.979
2026/05/14 10:30:07.631,-0.015,-0.038,1.005
2026/05/14 10:30:07.650,-0.01,-0.028,0.992
2026/05/14 10:30:07.670,-0.014,-0.029,0.997
2026/05/14 10:30:07.689,-0.01,-0.032,1.0
2026/05/14 10:30:07.708,-0.011,-0.034,0.993
2026/05/14 10:30:07.727,-0.011,-0.032,0.986
2026/05/14 10:30:07.747,-0.011,-0.036,1.0
2026/05/14 10:30:07.766,-0.018,-0.03,0.987
2026/05/14 10:30:07.785,-0.016,-0.029,0.994
2026/05/14 10:30:07.804,-0.015,-0.027,0.995
2026/05/14 10:30:07.823,-0.014,-0.033,1.001
2026/05/14 10:30:07.843,-0.011,-0.033,1.005
2026/05/14 10:30:07.862,-0.014,-0.034,1.006
2026/05/14 10:30:07.881,-0.012,-0.032,1.0
2026/05/14 10:30:07.900,-0.014,-0.031,1.009
2026/05/14 10:30:07.920,-0.011,-0.032,0.996
2026/05/14 10:30:07.939,-0.011,-0.025,0.993
2026/05/14 10:30:07.958,-0.014,-0.027,1.006
2026/05/14 10:30:07.977,-0.007,-0.032,1.001
2026/05/14 10:30:07.997,-0.018,-0.031,0.996
2026/05/14 10:30:08.016,-0.015,-0.031,1.004
2026/05/14 10:30:08.035,-0.016,-0.031,1.002
2026/05/14 10:30:08.054,-0.015,-0.031,0.994
2026/05/14 10:30:08.073,-0.011,-0.032,1.001
2026/05/14 10:30:08.093,-0.015,-0.028,0.996
2026/05/14 10:30:08.112,-0.013,-0.035,1.005
2026/05/14 10:30:08.131,-0.015,-0.034,0.995
2026/05/14 10:30:08.150,-0.012,-0.027,1.0
2026/05/14 10:30:08.170,-0.011,-0.034,0.995
2026/05/14 10:30:08.189,-0.017,-0.026,1.0
2026/05/14 10:30:08.208,-0.007,-0.03,1.004
2026/05/14 10:30:08.227,-0.01,-0.034,1.0
2026/05/14 10:30:08.247,-0.012,-0.031,0.999
2026/05/14 10:30:08.266,-0.014,-0.033,0.997
2026/05/14 10:30:08.285,-0.014,-0.028,1.003
2026/05/14 10:30:08.304,-0.013,-0.03,0.998
2026/05/14 10:30:08.323,-0.012,-0.03,0.996
2026/05/14 10:30:08.343,-0.012,-0.029,0.999
2026/05/14 10:30:08.362,-0.016,-0.035,0.999
2026/05/14 10:30:08.381,-0.01,-0.034,1.0
2026/05/14 10:30:08.400,-0.013,-0.031,1.002
2026/05/14 10:30:08.420,-0.009,-0.028,0.996
2026/05/14 10:30:08.439,-0.014,-0.032,1.002
2026/05/14 10:30:08.458,-0.008,-0.035,0.999
2026/05/14 10:30:08.477,-0.013,-0.026,1.0
2026/05/14 10:30:08.497,-0.012,-0.035,1.003
2026/05/14 10:30:08.516,-0.013,-0.032,0.998
2026/05/14 10:30:08.535,-0.016,-0.027,1.001
2026/05/14 10:30:08.554,-0.013,-0.027,1.0
2026/05/14 10:30:08.573,-0.01,-0.033,0.996
2026/05/14 10:30:08.593,-0.014,-0.026,0.998
2026/05/14 10:30:08.612,-0.014,-0.027,1.0
2026/05/14 10:30:08.631,-0.012,-0.025,0.997
2026/05/14 10:30:08.650,-0.008,-0.031,0.997
2026/05/14 10:30:08.670,-0.014,-0.03,0.999
2026/05/14 10:30:08.689,-0.011,-0.029,0.999
2026/05/14 10:30:08.708,-0.015,-0.029,0.998
2026/05/14 10:30:08.727,-0.012,-0.031,1.002
2026/05/14 10:30:08.747,-0.015,-0.03,1.0
2026/05/14 10:30:08.766,-0.017,-0.029,0.996
2026/05/14 10:30:08.785,-0.008,-0.034,1.0
2026/05/14 10:30:08.804,-0.012,-0.037,0.995
2026/05/14 10:30:08.822,-0.012,-0.03,0.999
2026/05/14 10:30:08.841,-0.01,-0.028,0.997
2026/05/14 10:30:08.860,-0.014,-0.03,0.997
2026/05/14 10:30:08.878,-0.013,-0.032,0.998
2026/05/14 10:30:08.897,-0.015,-0.029,0.999
2026/05/14 10:30:08.916,-0.015,-0.03,1.003
2026/05/14 10:30:08.934,-0.014,-0.029,0.994
2026/05/14 10:30:08.953,-0.014,-0.03,0.999
2026/05/14 10:30:08.972,-0.013,-0.029,0.997
2026/05/14 10:30:08.990,-0.01,-0.025,0.999
2026/05/14 10:30:09.009,-0.015,-0.028,1.003
2026/05/14 10:30:09.028,-0.01,-0.029,1.001
2026/05/14 10:30:09.046,-0.012,-0.031,1.0
2026/05/14 10:30:09.065,-0.017,-0.033,1.0
2026/05/14 10:30:09.084,-0.011,-0.033,1.0
2026/05/14 10:30:09.102,-0.014,-0.03,1.0
2026/05/14 10:30:09.121,-0.012,-0.026,1.002
2026/05/14 10:30:09.140,-0.01,-0.033,1.006
2026/05/14 10:30:09.158,-0.006,-0.028,1.006
2026/05/14 10:30:09.177,-0.009,-0.035,0.997
2026/05/14 10:30:09.196,-0.011,-0.035,0.999
2026/05/14 10:30:09.214,-0.01,-0.033,0.994
2026/05/14 10:30:09.233,-0.012,-0.033,1.002
2026/05/14 10:30:09.252,-0.022,-0.043,0.94
2026/05/14 10:30:09.270,-0.333,-0.022,0.914
2026/05/14 10:30:09.289,-0.257,-0.05,0.96
2026/05/14 10:30:09.308,-0.032,-0.037,1.007
2026/05/14 10:30:09.326,-0.038,-0.026,0.941
2026/05/14 10:30:09.345,-0.014,-0.049,1.03
2026/05/14 10:30:09.364,0.003,-0.024,1.003
2026/05/14 10:30:09.382,-0.005,-0.033,1.028
2026/05/14 10:30:09.401,-0.005,-0.033,1.011
2026/05/14 10:30:09.420,-0.014,-0.033,0.987
2026/05/14 10:30:09.438,-0.021,-0.04,1.005
2026/05/14 10:30:09.457,-0.013,-0.021,1.002
2026/05/14 10:30:09.476,-0.009,-0.012,0.986
2026/05/14 10:30:09.495,-0.009,-0.02,0.993
2026/05/14 10:30:09.513,-0.009,-0.02,0.999
2026/05/14 10:30:09.532,-0.012,-0.023,0.986
2026/05/14 10:30:09.551,-0.02,-0.036,1.012
2026/05/14 10:30:09.569,-0.017,-0.035,0.995
2026/05/14 10:30:09.588,-0.01,-0.039,1.003
2026/05/14 10:30:09.607,-0.012,-0.038,1.009
2026/05/14 10:30:09.625,-0.011,-0.033,1.0
2026/05/14 10:30:09.644,-0.016,-0.032,1.006
2026/05/14 10:30:09.663,-0.022,-0.034,1.003
2026/05/14 10:30:09.681,-0.021,-0.03,0.998
2026/05/14 10:30:09.700,-0.018,-0.031,0.998
2026/05/14 10:30:09.719,-0.008,-0.028,1.003
2026/05/14 10:30:09.737,-0.002,-0.023,0.999
2026/05/14 10:30:09.756,-0.003,-0.027,0.996
2026/05/14 10:30:09.775,-0.006,-0.027,1.001
2026/05/14 10:30:09.793,-0.018,-0.03,1.0
2026/05/14 10:30:09.812,-0.017,-0.025,0.998
2026/05/14 10:30:09.831,-0.019,-0.024,0.996
2026/05/14 10:30:09.849,-0.017,-0.028,1.0
2026/05/14 10:30:09.868,-0.022,-0.026,1.005
2026/05/14 10:30:09.887,-0.012,-0.032,1.003
2026/05/14 10:30:09.905,-0.013,-0.042,1.001
2026/05/14 10:30:09.924,-0.016,-0.04,1.003
2026/05/14 10:30:09.943,-0.016,-0.036,0.999
2026/05/14 10:30:09.961,-0.011,-0.036,1.001
2026/05/14 10:30:09.980,-0.016,-0.024,0.999
2026/05/14 10:30:09.999,-0.012,-0.022,0.988
2026/05/14 10:30:10.017,-0.009,-0.032,1.008
2026/05/14 10:30:10.036,-0.012,-0.025,0.998
2026/05/14 10:30:10.055,-0.009,-0.029,0.998
2026/05/14 10:30:10.073,-0.008,-0.03,1.0
2026/05/14 10:30:10.092,-0.011,-0.025,0.998
2026/05/14 10:30:10.111,-0.01,-0.025,0.998
2026/05/14 10:30:10.129,-0.015,-0.033,0.997
2026/05/14 10:30:10.148,-0.014,-0.036,0.998
2026/05/14 10:30:10.167,-0.017,-0.033,0.998
2026/05/14 10:30:10.185,-0.017,-0.034,1.001
2026/05/14 10:30:10.204,-0.016,-0.034,1.006
2026/05/14 10:30:10.223,-0.014,-0.034,1.0
2026/05/14 10:30:10.241,-0.01,-0.03,0.994
2026/05/14 10:30:10.260,-0.009,-0.027,1.001
2026/05/14 10:30:10.279,-0.01,-0.031,0.998
2026/05/14 10:30:10.297,-0.009,-0.031,1.006
2026/05/14 10:30:10.316,-0.012,-0.025,0.995
2026/05/14 10:30:10.335,-0.015,-0.027,1.004
2026/05/14 10:30:10.353,-0.012,-0.031,1.001
2026/05/14 10:30:10.372,-0.015,-0.028,0.996
2026/05/14 10:30:10.391,-0.014,-0.031,1.001
2026/05/14 10:30:10.409,-0.009,-0.029,0.993
2026/05/14 10:30:10.428,-0.012,-0.033,1.0
2026/05/14 10:30:10.447,-0.013,-0.034,0.999
2026/05/14 10:30:10.465,-0.013,-0.037,0.998
2026/05/14 10:30:10.484,-0.015,-0.036,0.999
2026/05/14 10:30:10.503,-0.016,-0.031,1.001
2026/05/14 10:30:10.521,-0.009,-0.031,1.0
2026/05/14 10:30:10.540,-0.014,-0.027,1.004
2026/05/14 10:30:10.559,-0.015,-0.024,0.995
2026/05/14 10:30:10.577,-0.01,-0.032,1.004
2026/05/14 10:30:10.596,-0.011,-0.027,0.992
2026/05/14 10:30:10.615,-0.012,-0.026,1.0
2026/05/14 10:30:10.633,-0.006,-0.031,0.998
2026/05/14 10:30:10.652,-0.015,-0.029,0.999
2026/05/14 10:30:10.671,-0.016,-0.029,0.997
2026/05/14 10:30:10.689,-0.013,-0.029,0.999
2026/05/14 10:30:10.708,-0.013,-0.03,0.995
2026/05/14 10:30:10.727,-0.009,-0.031,1.002
2026/05/14 10:30:10.746,-0.012,-0.03,1.0
2026/05/14 10:30:10.764,-0.017,-0.032,0.998
2026/05/14 10:30:10.783,-0.012,-0.03,1.003
2026/05/14 10:30:10.802,-0.01,-0.03,1.0
2026/05/14 10:30:10.820,-0.012,-0.026,0.999
2026/05/14 10:30:10.839,-0.014,-0.021,0.998
2026/05/14 10:30:10.858,-0.014,-0.03,0.999
2026/05/14 10:30:10.876,-0.011,-0.031,1.0
2026/05/14 10:30:10.895,-0.014,-0.029,0.999
2026/05/14 10:30:10.914,-0.011,-0.03,1.002
2026/05/14 10:30:10.932,-0.014,-0.03,1.002
2026/05/14 10:30:10.951,-0.012,-0.029,0.997
2026/05/14 10:30:10.970,-0.017,-0.03,1.0
2026/05/14 10:30:10.988,-0.019,-0.031,0.998
2026/05/14 10:30:11.007,-0.016,-0.034,0.996
2026/05/14 10:30:11.026,-0.013,-0.031,0.999
2026/05/14 10:30:11.044,-0.009,-0.032,0.999
2026/05/14 10:30:11.063,-0.009,-0.032,0.999
2026/05/14 10:30:11.082,-0.008,-0.029,0.997
2026/05/14 10:30:11.100,-0.009,-0.028,1.001
2026/05/14 10:30:11.119,-0.01,-0.029,0.998
2026/05/14 10:30:11.138,-0.013,-0.029,0.997
2026/05/14 10:30:11.156,-0.011,-0.031,0.996
2026/05/14 10:30:11.175,-0.014,-0.032,0.998
2026/05/14 10:30:11.194,-0.016,-0.03,0.995
2026/05/14 10:30:11.212,-0.011,-0.031,1.0
2026/05/14 10:30:11.231,-0.014,-0.03,1.0
2026/05/14 10:30:11.250,-0.014,-0.033,1.0
2026/05/14 10:30:11.268,-0.015,-0.033,1.004
2026/05/14 10:30:11.287,-0.01,-0.031,1.002
2026/05/14 10:30:11.306,-0.011,-0.03,0.998
2026/05/14 10:30:11.324,-0.011,-0.029,0.999
2026/05/14 10:30:11.343,-0.014,-0.033,0.998
2026/05/14 10:30:11.362,-0.011,-0.026,1.0
2026/05/14 10:30:11.380,-0.011,-0.025,0.999
2026/05/14 10:30:11.399,-0.01,-0.03,0.996
2026/05/14 10:30:11.418,-0.008,-0.035,0.997
2026/05/14 10:30:11.436,-0.016,-0.035,1.005
2026/05/14 10:30:11.455,-0.012,-0.03,1.0
2026/05/14 10:30:11.474,-0.018,-0.033,1.0
2026/05/14 10:30:11.492,-0.015,-0.028,1.001
2026/05/14 10:30:11.511,-0.014,-0.031,1.001
2026/05/14 10:30:11.530,-0.012,-0.028,0.997
2026/05/14 10:30:11.548,-0.009,-0.028,1.001
2026/05/14 10:30:11.567,-0.016,-0.029,0.999
2026/05/14 10:30:11.586,-0.009,-0.031,0.995
2026/05/14 10:30:11.604,-0.013,-0.027,1.0
2026/05/14 10:30:11.623,-0.014,-0.029,0.996
2026/05/14 10:30:11.642,-0.014,-0.032,0.998
2026/05/14 10:30:11.660,-0.015,-0.033,0.996
2026/05/14 10:30:11.679,-0.012,-0.034,1.005
2026/05/14 10:30:11.698,-0.014,-0.034,0.999
2026/05/14 10:30:11.716,-0.012,-0.027,1.002
2026/05/14 10:30:11.735,-0.016,-0.03,1.0
2026/05/14 10:30:11.754,-0.013,-0.032,0.997
2026/05/14 10:30:11.772,-0.016,-0.035,0.999
2026/05/14 10:30:11.791,-0.012,-0.028,1.001
2026/05/14 10:30:11.810,-0.013,-0.029,0.999
2026/05/14 10:30:11.828,-0.008,-0.031,1.002
2026/05/14 10:30:11.847,-0.017,-0.03,1.001
2026/05/14 10:30:11.866,-0.011,-0.028,0.996
2026/05/14 10:30:11.885,-0.013,-0.032,1.001
2026/05/14 10:30:11.903,-0.015,-0.033,0.997
2026/05/14 10:30:11.922,-0.017,-0.034,1.0
2026/05/14 10:30:11.941,-0.014,-0.029,1.002
2026/05/14 10:30:11.959,-0.013,-0.03,0.998
2026/05/14 10:30:11.978,-0.015,-0.029,0.999
2026/05/14 10:30:11.997,-0.01,-0.032,1.0
2026/05/14 10:30:12.015,-0.012,-0.028,0.999
2026/05/14 10:30:12.034,-0.014,-0.03,1.0
2026/05/14 10:30:12.053,-0.012,-0.026,1.003
2026/05/14 10:30:12.071,-0.013,-0.029,0.998
2026/05/14 10:30:12.090,-0.012,-0.029,0.999
2026/05/14 10:30:12.109,-0.013,-0.029,1.0
2026/05/14 10:30:12.127,-0.012,-0.031,0.997
2026/05/14 10:30:12.146,-0.018,-0.032,0.997
2026/05/14 10:30:12.165,-0.018,-0.032,0.999
2026/05/14 10:30:12.183,-0.015,-0.03,1.0
2026/05/14 10:30:12.202,-0.017,-0.027,1.004
2026/05/14 10:30:12.221,-0.013,-0.031,0.994
2026/05/14 10:30:12.239,-0.014,-0.029,1.0
2026/05/14 10:30:12.258,-0.009,-0.034,0.997
2026/05/14 10:30:12.277,-0.013,-0.027,0.999
2026/05/14 10:30:12.295,-0.015,-0.033,1.0
2026/05/14 10:30:12.314,-0.013,-0.029,0.997
2026/05/14 10:30:12.333,-0.01,-0.03,1.001
2026/05/14 10:30:12.351,-0.013,-0.027,0.997
2026/05/14 10:30:12.370,-0.01,-0.033,0.999
2026/05/14 10:30:12.389,-0.008,-0.026,1.0
2026/05/14 10:30:12.407,-0.018,-0.03,0.998
2026/05/14 10:30:12.426,-0.012,-0.031,0.999
2026/05/14 10:30:12.445,-0.012,-0.028,0.998
2026/05/14 10:30:12.463,-0.013,-0.036,0.999
2026/05/14 10:30:12.482,-0.009,-0.032,1.001
2026/05/14 10:30:12.501,-0.015,-0.029,0.995
2026/05/14 10:30:12.519,-0.016,-0.028,1.001
2026/05/14 10:30:12.538,-0.01,-0.029,0.996
2026/05/14 10:30:12.557,-0.014,-0.033,0.996
2026/05/14 10:30:12.575,-0.012,-0.026,0.996
2026/05/14 10:30:12.594,-0.009,-0.031,0.998
2026/05/14 10:30:12.613,-0.013,-0.03,1.003
2026/05/14 10:30:12.631,-0.015,-0.028,0.998
2026/05/14 10:30:12.650,-0.01,-0.026,0.999
2026/05/14 10:30:12.669,-0.012,-0.031,0.998
2026/05/14 10:30:12.687,-0.017,-0.031,1.0
2026/05/14 10:30:12.706,-0.018,-0.028,1.002
2026/05/14 10:30:12.725,-0.014,-0.03,1.001
2026/05/14 10:30:12.743,-0.013,-0.032,0.998
2026/05/14 10:30:12.762,-0.014,-0.034,0.997
2026/05/14 10:30:12.781,-0.013,-0.031,0.997
2026/05/14 10:30:12.799,-0.013,-0.028,0.997
2026/05/14 10:30:12.818,-0.011,-0.027,0.998
2026/05/14 10:30:12.837,-0.01,-0.028,0.998
2026/05/14 10:30:12.855,-0.012,-0.027,0.998
2026/05/14 10:30:12.874,-0.012,-0.031,1.001
2026/05/14 10:30:12.893,-0.013,-0.03,1.003
2026/05/14 10:30:12.911,-0.016,-0.031,1.0
2026/05/14 10:30:12.930,-0.012,-0.03,0.996
2026/05/14 10:30:12.949,-0.012,-0.028,1.004
2026/05/14 10:30:12.967,-0.012,-0.031,0.994
2026/05/14 10:30:12.986,-0.013,-0.028,0.996
2026/05/14 10:30:13.005,-0.014,-0.029,1.0
2026/05/14 10:30:13.024,-0.01,-0.033,1.001
2026/05/14 10:30:13.042,-0.01,-0.032,0.999
2026/05/14 10:30:13.061,-0.008,-0.028,0.999
2026/05/14 10:30:13.080,-0.011,-0.026,1.002
2026/05/14 10:30:13.098,-0.01,-0.029,1.0
2026/05/14 10:30:13.117,-0.011,-0.029,1.002
2026/05/14 10:30:13.136,-0.009,-0.03,0.997
2026/05/14 10:30:13.154,-0.016,-0.031,1.001
2026/05/14 10:30:13.173,-0.015,-0.034,0.991
2026/05/14 10:30:13.192,-0.015,-0.03,1.0
2026/05/14 10:30:13.210,-0.016,-0.034,1.001
2026/05/14 10:30:13.229,-0.011,-0.035,1.0
2026/05/14 10:30:13.248,-0.017,-0.031,1.0
2026/05/14 10:30:13.266,-0.015,-0.033,0.994
2026/05/14 10:30:13.285,-0.014,-0.035,0.996
2026/05/14 10:30:13.304,-0.014,-0.03,0.994
2026/05/14 10:30:13.322,-0.014,-0.03,1.001
2026/05/14 10:30:13.341,-0.012,-0.024,1.003
2026/05/14 10:30:13.360,-0.011,-0.033,1.001
2026/05/14 10:30:13.378,-0.014,-0.032,1.0
2026/05/14 10:30:13.397,-0.015,-0.03,1.0
2026/05/14 10:30:13.416,-0.012,-0.032,1.0
2026/05/14 10:30:13.434,-0.009,-0.026,1.002
2026/05/14 10:30:13.453,-0.017,-0.03,1.0
2026/05/14 10:30:13.472,-0.01,-0.034,0.998
2026/05/14 10:30:13.490,-0.011,-0.028,1.0
2026/05/14 10:30:13.509,-0.013,-0.033,0.999
2026/05/14 10:30:13.528,-0.014,-0.03,0.998
2026/05/14 10:30:13.546,-0.014,-0.034,0.998
2026/05/14 10:30:13.565,-0.013,-0.025,1.005
2026/05/14 10:30:13.584,-0.014,-0.03,1.002
2026/05/14 10:30:13.602,-0.013,-0.031,0.996
2026/05/14 10:30:13.621,-0.014,-0.029,0.999
2026/05/14 10:30:13.640,-0.011,-0.036,1.003
2026/05/14 10:30:13.658,-0.008,-0.033,0.996
2026/05/14 10:30:13.677,-0.014,-0.031,0.998
2026/05/14 10:30:13.696,-0.015,-0.03,0.997
2026/05/14 10:30:13.714,-0.01,-0.033,0.999
2026/05/14 10:30:13.733,-0.018,-0.03,0.997
2026/05/14 10:30:13.752,-0.008,-0.031,0.997
2026/05/14 10:30:13.770,-0.014,-0.029,1.0
2026/05/14 10:30:13.789,-0.012,-0.028,0.997
2026/05/14 10:30:13.808,-0.014,-0.028,0.999
2026/05/14 10:30:13.826,-0.008,-0.029,0.999
2026/05/14 10:30:13.845,-0.01,-0.034,0.999
2026/05/14 10:30:13.864,-0.01,-0.032,1.0
2026/05/14 10:30:13.882,-0.016,-0.029,1.003
2026/05/14 10:30:13.901,-0.01,-0.029,0.998
2026/05/14 10:30:13.920,-0.014,-0.035,0.995
2026/05/14 10:30:13.938,-0.011,-0.034,1.0
2026/05/14 10:30:13.957,-0.012,-0.028,0.994
2026/05/14 10:30:13.976,-0.014,-0.034,1.001
2026/05/14 10:30:13.994,-0.016,-0.031,0.998
2026/05/14 10:30:14.013,-0.012,-0.032,0.996
2026/05/14 10:30:14.032,-0.015,-0.031,0.998
2026/05/14 10:30:14.050,-0.016,-0.029,0.997
2026/05/14 10:30:14.069,-0.013,-0.032,1.002
2026/05/14 10:30:14.088,-0.017,-0.031,0.999
2026/05/14 10:30:14.106,-0.018,-0.028,0.999
2026/05/14 10:30:14.125,-0.01,-0.03,0.995
2026/05/14 10:30:14.144,-0.012,-0.032,0.998
2026/05/14 10:30:14.162,-0.009,-0.031,1.0
2026/05/14 10:30:14.181,-0.013,-0.03,1.001
2026/05/14 10:30:14.200,-0.01,-0.034,0.997
2026/05/14 10:30:14.219,-0.014,-0.031,0.997
2026/05/14 10:30:14.237,-0.015,-0.033,1.001
2026/05/14 10:30:14.256,-0.013,-0.033,1.0
2026/05/14 10:30:14.275,-0.012,-0.033,0.998
2026/05/14 10:30:14.293,-0.015,-0.032,1.001
2026/05/14 10:30:14.312,-0.012,-0.031,0.998
2026/05/14 10:30:14.331,-0.008,-0.031,0.998
2026/05/14 10:30:14.349,-0.01,-0.032,0.994
2026/05/14 10:30:14.368,-0.012,-0.027,0.999
2026/05/14 10:30:14.387,-0.011,-0.028,1.0
2026/05/14 10:30:14.405,-0.014,-0.033,1.0
2026/05/14 10:30:14.424,-0.013,-0.034,0.996
2026/05/14 10:30:14.443,-0.015,-0.034,0.994
2026/05/14 10:30:14.461,-0.013,-0.031,0.995
2026/05/14 10:30:14.480,-0.01,-0.029,1.003
2026/05/14 10:30:14.499,-0.013,-0.031,0.999
2026/05/14 10:30:14.517,-0.015,-0.035,1.002
2026/05/14 10:30:14.536,-0.012,-0.03,0.997
2026/05/14 10:30:14.555,-0.016,-0.032,1.0
2026/05/14 10:30:14.573,-0.016,-0.028,0.997
2026/05/14 10:30:14.592,-0.016,-0.028,0.996
2026/05/14 10:30:14.611,-0.011,-0.029,0.996
2026/05/14 10:30:14.629,-0.008,-0.031,1.001
2026/05/14 10:30:14.648,-0.011,-0.027,1.001
2026/05/14 10:30:14.667,-0.011,-0.031,0.995
2026/05/14 10:30:14.685,-0.013,-0.032,0.998
2026/05/14 10:30:14.704,-0.013,-0.031,0.998
2026/05/14 10:30:14.723,-0.012,-0.039,0.994
2026/05/14 10:30:14.741,-0.015,-0.033,1.0
2026/05/14 10:30:14.760,-0.013,-0.03,0.998
2026/05/14 10:30:14.779,-0.012,-0.032,0.993
2026/05/14 10:30:14.797,-0.018,-0.03,0.999
2026/05/14 10:30:14.816,-0.013,-0.029,1.001
2026/05/14 10:30:14.835,-0.017,-0.031,0.999
2026/05/14 10:30:14.853,-0.01,-0.028,1.008
2026/05/14 10:30:14.872,-0.008,-0.026,0.993
2026/05/14 10:30:14.891,-0.009,-0.031,0.997
2026/05/14 10:30:14.909,-0.012,-0.03,0.994
2026/05/14 10:30:14.928,-0.015,-0.035,1.001
2026/05/14 10:30:14.947,-0.01,-0.033,0.999
2026/05/14 10:30:14.965,-0.011,-0.031,1.0
2026/05/14 10:30:14.984,-0.015,-0.029,1.0
2026/05/14 10:30:15.003,-0.009,-0.028,1.005
2026/05/14 10:30:15.021,-0.011,-0.029,1.001
2026/05/14 10:30:15.040,-0.015,-0.028,0.995
2026/05/14 10:30:15.059,-0.011,-0.031,1.001
2026/05/14 10:30:15.077,-0.01,-0.029,0.996
2026/05/14 10:30:15.096,-0.011,-0.027,0.998
2026/05/14 10:30:15.115,-0.016,-0.032,1.001
2026/05/14 10:30:15.133,-0.011,-0.033,0.996
2026/05/14 10:30:15.152,-0.016,-0.031,1.001
2026/05/14 10:30:15.171,-0.013,-0.031,0.995
2026/05/14 10:30:15.189,-0.014,-0.029,1.001
2026/05/14 10:30:15.208,-0.014,-0.032,0.998
2026/05/14 10:30:15.227,-0.013,-0.032,0.997
2026/05/14 10:30:15.245,-0.013,-0.031,0.997
2026/05/14 10:30:15.264,-0.008,-0.033,1.003
2026/05/14 10:30:15.283,-0.012,-0.028,1.0
2026/05/14 10:30:15.301,-0.013,-0.03,1.0
2026/05/14 10:30:15.320,-0.011,-0.032,1.0
2026/05/14 10:30:15.339,-0.012,-0.034,0.996
2026/05/14 10:30:15.357,-0.008,-0.034,1.001
2026/05/14 10:30:15.376,-0.012,-0.029,0.995
2026/05/14 10:30:15.395,-0.012,-0.03,0.994
2026/05/14 10:30:15.414,-0.014,-0.03,0.995
2026/05/14 10:30:15.432,-0.011,-0.027,1.001
2026/05/14 10:30:15.451,-0.014,-0.029,1.004
2026/05/14 10:30:15.470,-0.016,-0.031,1.001
2026/05/14 10:30:15.488,-0.011,-0.029,1.001
2026/05/14 10:30:15.507,-0.014,-0.032,0.997
2026/05/14 10:30:15.526,-0.011,-0.031,0.999
2026/05/14 10:30:15.544,-0.013,-0.032,0.996
2026/05/14 10:30:15.563,-0.009,-0.031,0.995
2026/05/14 10:30:15.582,-0.01,-0.029,0.999
2026/05/14 10:30:15.600,-0.015,-0.035,0.99
2026/05/14 10:30:15.619,-0.008,-0.031,0.998
2026/05/14 10:30:15.638,-0.011,-0.032,0.996
2026/05/14 10:30:15.656,-0.014,-0.029,1.0
2026/05/14 10:30:15.675,-0.013,-0.029,1.0
2026/05/14 10:30:15.694,-0.008,-0.032,0.997
2026/05/14 10:30:15.712,-0.013,-0.035,0.998
2026/05/14 10:30:15.731,-0.008,-0.027,1.002
2026/05/14 10:30:15.750,-0.01,-0.028,0.996
2026/05/14 10:30:15.768,-0.016,-0.029,0.995
2026/05/14 10:30:15.787,-0.01,-0.027,0.997
2026/05/14 10:30:15.806,-0.009,-0.031,0.996
2026/05/14 10:30:15.824,-0.016,-0.028,0.996
2026/05/14 10:30:15.843,-0.012,-0.027,0.999
2026/05/14 10:30:15.862,-0.012,-0.029,0.996
2026/05/14 10:30:15.880,-0.018,-0.033,0.993
2026/05/14 10:30:15.899,-0.014,-0.031,0.993
2026/05/14 10:30:15.918,-0.013,-0.03,0.994
2026/05/14 10:30:15.936,-0.011,-0.035,0.995
2026/05/14 10:30:15.955,-0.014,-0.031,1.0
2026/05/14 10:30:15.974,-0.01,-0.033,0.997
2026/05/14 10:30:15.992,-0.015,-0.028,1.0
2026/05/14 10:30:16.011,-0.011,-0.033,0.998
2026/05/14 10:30:16.030,-0.013,-0.035,1.001
2026/05/14 10:30:16.048,-0.014,-0.03,1.001
2026/05/14 10:30:16.067,-0.012,-0.03,1.0
2026/05/14 10:30:16.086,-0.008,-0.031,0.996
2026/05/14 10:30:16.104,-0.013,-0.03,1.001
2026/05/14 10:30:16.123,-0.011,-0.028,0.999
2026/05/14 10:30:16.142,-0.01,-0.034,0.998
2026/05/14 10:30:16.160,-0.014,-0.032,1.002
2026/05/14 10:30:16.179,-0.01,-0.028,0.997
2026/05/14 10:30:16.198,-0.011,-0.033,0.999
2026/05/14 10:30:16.216,-0.015,-0.029,1.001
2026/05/14 10:30:16.235,-0.012,-0.031,0.995
2026/05/14 10:30:16.254,-0.017,-0.032,1.0
2026/05/14 10:30:16.272,-0.01,-0.032,0.996
2026/05/14 10:30:16.291,-0.012,-0.03,0.999
2026/05/14 10:30:16.310,-0.014,-0.033,0.995
2026/05/14 10:30:16.328,-0.011,-0.028,1.0
2026/05/14 10:30:16.347,-0.016,-0.027,0.999
2026/05/14 10:30:16.366,-0.015,-0.032,0.995
2026/05/14 10:30:16.384,-0.011,-0.026,0.995
2026/05/14 10:30:16.403,-0.015,-0.031,0.998
2026/05/14 10:30:16.422,-0.012,-0.031,1.0
2026/05/14 10:30:16.440,-0.012,-0.028,0.996
2026/05/14 10:30:16.459,-0.012,-0.029,0.996
2026/05/14 10:30:16.478,-0.012,-0.028,0.994
2026/05/14 10:30:16.497,-0.011,-0.031,0.999
2026/05/14 10:30:16.515,-0.014,-0.027,1.002
2026/05/14 10:30:16.534,-0.015,-0.035,0.999
2026/05/14 10:30:16.553,-0.013,-0.034,0.999
2026/05/14 10:30:16.571,-0.015,-0.032,1.002
2026/05/14 10:30:16.590,-0.013,-0.03,1.001
2026/05/14 10:30:16.609,-0.017,-0.027,1.0
2026/05/14 10:30:16.627,-0.01,-0.031,0.995
2026/05/14 10:30:16.646,-0.013,-0.03,1.0
2026/05/14 10:30:16.665,-0.016,-0.03,1.001
2026/05/14 10:30:16.683,-0.013,-0.027,0.999
2026/05/14 10:30:16.702,-0.016,-0.027,0.995
2026/05/14 10:30:16.721,-0.016,-0.028,1.0
2026/05/14 10:30:16.739,-0.008,-0.027,0.998
2026/05/14 10:30:16.758,-0.013,-0.032,1.001
2026/05/14 10:30:16.777,-0.009,-0.031,0.998
2026/05/14 10:30:16.795,-0.014,-0.026,1.002
2026/05/14 10:30:16.814,-0.009,-0.026,1.002
2026/05/14 10:30:16.833,-0.013,-0.03,0.999
2026/05/14 10:30:16.851,-0.012,-0.03,1.0
2026/05/14 10:30:16.870,-0.01,-0.032,0.995
2026/05/14 10:30:16.889,-0.011,-0.032,0.999
2026/05/14 10:30:16.907,-0.013,-0.03,1.001
2026/05/14 10:30:16.926,-0.013,-0.034,1.0
2026/05/14 10:30:16.945,-0.016,-0.037,1.001
2026/05/14 10:30:16.963,-0.013,-0.03,0.998
2026/05/14 10:30:16.982,-0.014,-0.033,0.995
2026/05/14 10:30:17.001,-0.016,-0.03,0.999
2026/05/14 10:30:17.019,-0.011,-0.028,0.997
2026/05/14 10:30:17.038,-0.011,-0.029,1.0
2026/05/14 10:30:17.057,-0.012,-0.026,1.001
2026/05/14 10:30:17.075,-0.012,-0.031,0.997
2026/05/14 10:30:17.094,-0.013,-0.028,0.99
2026/05/14 10:30:17.113,-0.014,-0.031,0.998
2026/05/14 10:30:17.131,-0.014,-0.033,1.0
2026/05/14 10:30:17.150,-0.013,-0.028,0.998
2026/05/14 10:30:17.169,-0.014,-0.034,1.0
2026/05/14 10:30:17.187,-0.01,-0.034,0.998
2026/05/14 10:30:17.206,-0.011,-0.03,0.998
2026/05/14 10:30:17.225,-0.011,-0.031,0.999
2026/05/14 10:30:17.243,-0.01,-0.03,0.994
2026/05/14 10:30:17.262,-0.017,-0.035,0.999
2026/05/14 10:30:17.281,-0.011,-0.034,1.0
2026/05/14 10:30:17.299,-0.013,-0.03,0.995
2026/05/14 10:30:17.318,-0.013,-0.03,0.998
2026/05/14 10:30:17.337,-0.011,-0.03,0.997
2026/05/14 10:30:17.355,-0.012,-0.028,0.997
2026/05/14 10:30:17.374,-0.013,-0.034,0.995
2026/05/14 10:30:17.393,-0.017,-0.03,0.998
2026/05/14 10:30:17.411,-0.011,-0.028,0.993
2026/05/14 10:30:17.430,-0.014,-0.035,0.999
2026/05/14 10:30:17.449,-0.01,-0.035,0.998
2026/05/14 10:30:17.467,-0.011,-0.034,1.0
2026/05/14 10:30:17.486,-0.014,-0.032,1.001
2026/05/14 10:30:17.505,-0.012,-0.036,1.0
2026/05/14 10:30:17.523,-0.015,-0.031,1.0
2026/05/14 10:30:17.542,-0.013,-0.029,1.0
2026/05/14 10:30:17.561,-0.014,-0.029,0.997
2026/05/14 10:30:17.580,-0.012,-0.028,0.999
2026/05/14 10:30:17.598,-0.009,-0.034,0.999
2026/05/14 10:30:17.617,-0.01,-0.031,0.997
2026/05/14 10:30:17.636,-0.013,-0.03,0.999
2026/05/14 10:30:17.654,-0.012,-0.032,0.997
2026/05/14 10:30:17.673,-0.014,-0.034,0.998
2026/05/14 10:30:17.692,-0.015,-0.034,0.995
2026/05/14 10:30:17.710,-0.012,-0.027,0.997
2026/05/14 10:30:17.729,-0.01,-0.029,0.998
2026/05/14 10:30:17.748,-0.016,-0.033,0.996
2026/05/14 10:30:17.766,-0.009,-0.029,0.999
2026/05/14 10:30:17.785,-0.006,-0.03,1.0
2026/05/14 10:30:17.804,-0.015,-0.035,0.998
2026/05/14 10:30:17.822,-0.012,-0.031,0.998
2026/05/14 10:30:17.841,-0.012,-0.03,0.994
2026/05/14 10:30:17.860,-0.01,-0.034,0.998
2026/05/14 10:30:17.878,-0.013,-0.032,0.997
2026/05/14 10:30:17.897,-0.007,-0.03,0.997
2026/05/14 10:30:17.916,-0.011,-0.029,0.996
2026/05/14 10:30:17.934,-0.011,-0.03,0.999
2026/05/14 10:30:17.953,-0.016,-0.031,0.999
2026/05/14 10:30:17.972,-0.013,-0.029,0.996
2026/05/14 10:30:17.990,-0.014,-0.03,0.996
2026/05/14 10:30:18.009,-0.013,-0.028,1.001
2026/05/14 10:30:18.028,-0.012,-0.031,0.999
2026/05/14 10:30:18.046,-0.014,-0.03,0.995
2026/05/14 10:30:18.065,-0.011,-0.032,1.001
2026/05/14 10:30:18.084,-0.01,-0.029,0.998
2026/05/14 10:30:18.102,-0.013,-0.028,0.998
2026/05/14 10:30:18.121,-0.01,-0.028,0.994
2026/05/14 10:30:18.140,-0.014,-0.03,1.0
2026/05/14 10:30:18.158,-0.015,-0.027,0.999
2026/05/14 10:30:18.177,-0.012,-0.03,0.999
2026/05/14 10:30:18.196,-0.01,-0.035,0.997
2026/05/14 10:30:18.214,-0.014,-0.031,0.995
2026/05/14 10:30:18.233,-0.017,-0.032,1.001
2026/05/14 10:30:18.252,-0.015,-0.036,1.0
2026/05/14 10:30:18.270,-0.012,-0.033,0.993
2026/05/14 10:30:18.289,-0.011,-0.031,0.997
2026/05/14 10:30:18.308,-0.013,-0.032,0.999
2026/05/14 10:30:18.326,-0.015,-0.031,1.0
2026/05/14 10:30:18.345,-0.015,-0.03,1.002
2026/05/14 10:30:18.364,-0.013,-0.029,0.997
2026/05/14 10:30:18.382,-0.009,-0.035,0.998
2026/05/14 10:30:18.401,-0.01,-0.033,0.999
2026/05/14 10:30:18.420,-0.011,-0.033,1.002
2026/05/14 10:30:18.438,-0.015,-0.03,0.995
2026/05/14 10:30:18.457,-0.017,-0.033,1.0
2026/05/14 10:30:18.476,-0.012,-0.028,0.999
2026/05/14 10:30:18.494,-0.013,-0.031,0.998
2026/05/14 10:30:18.513,-0.013,-0.027,1.002
2026/05/14 10:30:18.532,-0.013,-0.03,0.996
2026/05/14 10:30:18.550,-0.014,-0.028,1.002
2026/05/14 10:30:18.569,-0.012,-0.032,0.999
2026/05/14 10:30:18.588,-0.013,-0.031,0.996
2026/05/14 10:30:18.606,-0.015,-0.032,0.994
2026/05/14 10:30:18.625,-0.014,-0.03,1.002
2026/05/14 10:30:18.644,-0.009,-0.03,0.998
2026/05/14 10:30:18.662,-0.01,-0.033,0.996
2026/05/14 10:30:18.681,-0.014,-0.03,0.997
2026/05/14 10:30:18.700,-0.016,-0.032,0.999
2026/05/14 10:30:18.719,-0.014,-0.03,0.995
2026/05/14 10:30:18.737,-0.017,-0.029,0.998
2026/05/14 10:30:18.756,-0.017,-0.028,0.999
2026/05/14 10:30:18.775,-0.011,-0.031,0.999
2026/05/14 10:30:18.793,-0.009,-0.03,1.004
2026/05/14 10:30:18.812,-0.01,-0.03,1.0
2026/05/14 10:30:18.831,-0.01,-0.032,0.999
2026/05/14 10:30:18.849,-0.013,-0.03,0.998
2026/05/14 10:30:18.868,-0.014,-0.026,0.994
2026/05/14 10:30:18.887,-0.013,-0.029,0.997
2026/05/14 10:30:18.905,-0.015,-0.032,0.999
2026/05/14 10:30:18.924,-0.012,-0.026,0.997
2026/05/14 10:30:18.943,-0.013,-0.031,1.0
2026/05/14 10:30:18.961,-0.012,-0.03,1.0
2026/05/14 10:30:18.980,-0.013,-0.03,0.997
2026/05/14 10:30:18.999,-0.014,-0.032,0.996
2026/05/14 10:30:19.017,-0.014,-0.034,1.003
2026/05/14 10:30:19.036,-0.009,-0.029,0.993
2026/05/14 10:30:19.055,-0.013,-0.033,0.998
2026/05/14 10:30:19.073,-0.012,-0.031,1.001
2026/05/14 10:30:19.092,-0.01,-0.03,0.999
2026/05/14 10:30:19.111,-0.013,-0.03,0.996
2026/05/14 10:30:19.129,-0.016,-0.031,0.996
2026/05/14 10:30:19.148,-0.013,-0.032,0.997
2026/05/14 10:30:19.167,-0.014,-0.03,0.999
2026/05/14 10:30:19.185,-0.013,-0.027,0.999
2026/05/14 10:30:19.204,-0.009,-0.032,0.995
2026/05/14 10:30:19.223,-0.013,-0.032,1.0
2026/05/14 10:30:19.241,-0.01,-0.031,1.001
2026/05/14 10:30:19.260,-0.013,-0.027,0.995
2026/05/14 10:30:19.279,-0.012,-0.033,1.002
2026/05/14 10:30:19.297,-0.011,-0.032,0.995
2026/05/14 10:30:19.316,-0.013,-0.031,0.999
2026/05/14 10:30:19.335,-0.015,-0.031,0.994
2026/05/14 10:30:19.353,-0.015,-0.029,1.001
2026/05/14 10:30:19.372,-0.01,-0.031,0.999
2026/05/14 10:30:19.391,-0.013,-0.033,0.995
2026/05/14 10:30:19.409,-0.013,-0.029,1.0
2026/05/14 10:30:19.428,-0.012,-0.029,1.002
2026/05/14 10:30:19.447,-0.012,-0.029,0.997
2026/05/14 10:30:19.465,-0.012,-0.028,0.999
2026/05/14 10:30:19.484,-0.014,-0.031,0.995
2026/05/14 10:30:19.503,-0.011,-0.032,1.004
2026/05/14 10:30:19.521,-0.016,-0.031,0.997
2026/05/14 10:30:19.540,-0.011,-0.031,1.001
2026/05/14 10:30:19.559,-0.015,-0.028,0.997
2026/05/14 10:30:19.577,-0.015,-0.032,0.995
2026/05/14 10:30:19.596,-0.015,-0.027,0.997
2026/05/14 10:30:19.615,-0.011,-0.03,0.999
2026/05/14 10:30:19.633,-0.016,-0.028,0.997
2026/05/14 10:30:19.652,-0.011,-0.03,0.991
2026/05/14 10:30:19.671,-0.012,-0.029,0.997
2026/05/14 10:30:19.689,-0.011,-0.031,1.0
2026/05/14 10:30:19.708,-0.01,-0.029,1.002
2026/05/14 10:30:19.727,-0.01,-0.032,1.001
2026/05/14 10:30:19.745,-0.011,-0.028,0.998
2026/05/14 10:30:19.764,-0.019,-0.025,0.997
2026/05/14 10:30:19.783,-0.013,-0.033,0.996
2026/05/14 10:30:19.801,-0.013,-0.032,1.002
2026/05/14 10:30:19.820,-0.013,-0.027,0.994
2026/05/14 10:30:19.839,-0.011,-0.032,0.997
2026/05/14 10:30:19.857,-0.012,-0.031,0.996
2026/05/14 10:30:19.876,-0.01,-0.03,1.0
2026/05/14 10:30:19.895,-0.009,-0.033,0.996
2026/05/14 10:30:19.913,-0.013,-0.028,0.996
2026/05/14 10:30:19.932,-0.012,-0.028,0.997
2026/05/14 10:30:19.951,-0.014,-0.03,0.997
2026/05/14 10:30:19.970,-0.015,-0.03,0.998
2026/05/14 10:30:19.988,-0.012,-0.03,0.998
2026/05/14 10:30:20.007,-0.01,-0.034,1.007
2026/05/14 10:30:20.026,-0.014,-0.026,0.993
2026/05/14 10:30:20.044,-0.013,-0.026,0.992
2026/05/14 10:30:20.063,-0.015,-0.035,1.005
2026/05/14 10:30:20.082,-0.013,-0.035,0.997
2026/05/14 10:30:20.100,-0.015,-0.024,1.001
2026/05/14 10:30:20.119,-0.009,-0.034,1.006
2026/05/14 10:30:20.138,-0.015,-0.022,0.992
2026/05/14 10:30:20.156,-0.007,-0.038,1.004
2026/05/14 10:30:20.175,-0.005,-0.036,1.016
2026/05/14 10:30:20.194,-0.014,-0.026,0.999
2026/05/14 10:30:20.212,-0.013,-0.027,0.99
2026/05/14 10:30:20.231,-0.01,-0.033,0.999
2026/05/14 10:30:20.250,-0.012,-0.031,1.001
2026/05/14 10:30:20.268,-0.009,-0.03,0.994
2026/05/14 10:30:20.287,-0.008,-0.029,0.997
2026/05/14 10:30:20.306,-0.016,-0.028,0.997
2026/05/14 10:30:20.324,-0.019,-0.032,0.99
2026/05/14 10:30:20.343,-0.013,-0.03,0.993
2026/05/14 10:30:20.362,-0.015,-0.033,0.999
2026/05/14 10:30:20.380,-0.009,-0.033,1.021
2026/05/14 10:30:20.399,-0.009,-0.025,1.006
2026/05/14 10:30:20.418,-0.011,-0.031,0.993
2026/05/14 10:30:20.436,-0.013,-0.03,0.993
2026/05/14 10:30:20.455,-0.01,-0.028,0.992
2026/05/14 10:30:20.474,-0.012,-0.029,1.006
2026/05/14 10:30:20.492,-0.01,-0.034,0.995
2026/05/14 10:30:20.511,-0.009,-0.034,1.001
2026/05/14 10:30:20.530,-0.016,-0.039,0.991
2026/05/14 10:30:20.548,-0.013,-0.033,0.998
2026/05/14 10:30:20.567,-0.016,-0.029,0.995
2026/05/14 10:30:20.586,-0.01,-0.034,0.996
2026/05/14 10:30:20.604,-0.01,-0.032,0.999
2026/05/14 10:30:20.623,-0.011,-0.032,1.002
2026/05/14 10:30:20.642,-0.013,-0.027,0.995
2026/05/14 10:30:20.660,-0.01,-0.031,0.996
2026/05/14 10:30:20.679,-0.011,-0.029,0.996
2026/05/14 10:30:20.698,-0.01,-0.025,1.001
2026/05/14 10:30:20.716,-0.011,-0.029,1.002
2026/05/14 10:30:20.735,-0.015,-0.026,0.998
2026/05/14 10:30:20.754,-0.016,-0.031,0.997
2026/05/14 10:30:20.772,-0.011,-0.032,0.999
2026/05/14 10:30:20.791,-0.009,-0.031,1.004
2026/05/14 10:30:20.810,-0.014,-0.032,1.0
2026/05/14 10:30:20.828,-0.016,-0.032,0.991
2026/05/14 10:30:20.847,-0.012,-0.033,1.0
2026/05/14 10:30:20.866,-0.01,-0.034,1.003
2026/05/14 10:30:20.884,-0.008,-0.027,0.997
2026/05/14 10:30:20.903,-0.009,-0.028,0.993
2026/05/14 10:30:20.922,-0.011,-0.03,0.999
2026/05/14 10:30:20.940,-0.005,-0.029,0.995
2026/05/14 10:30:20.959,-0.014,-0.03,0.997
2026/05/14 10:30:20.978,-0.014,-0.027,1.006
2026/05/14 10:30:20.997,-0.011,-0.027,0.996
2026/05/14 10:30:21.015,-0.013,-0.031,1.0
2026/05/14 10:30:21.034,-0.013,-0.036,0.998
2026/05/14 10:30:21.053,-0.01,-0.035,1.003
2026/05/14 10:30:21.071,-0.015,-0.029,0.999
2026/05/14 10:30:21.090,-0.015,-0.033,1.002
2026/05/14 10:30:21.109,-0.013,-0.029,0.992
2026/05/14 10:30:21.127,-0.008,-0.037,1.012
2026/05/14 10:30:21.146,-0.014,-0.04,1.032
2026/05/14 10:30:21.165,-0.015,-0.024,0.995
2026/05/14 10:30:21.183,-0.011,-0.038,1.022
2026/05/14 10:30:21.202,-0.017,-0.024,0.977
2026/05/14 10:30:21.221,-0.012,-0.035,1.02
2026/05/14 10:30:21.239,-0.013,-0.029,1.0
2026/05/14 10:30:21.258,-0.012,-0.028,0.995
2026/05/14 10:30:21.277,-0.014,-0.032,0.996
2026/05/14 10:30:21.295,-0.014,-0.032,0.998
2026/05/14 10:30:21.314,-0.012,-0.031,0.999
2026/05/14 10:30:21.333,-0.014,-0.032,0.994
2026/05/14 10:30:21.351,-0.013,-0.032,1.014
2026/05/14 10:30:21.370,-0.012,-0.021,0.976
2026/05/14 10:30:21.389,-0.011,-0.033,1.008
2026/05/14 10:30:21.407,-0.012,-0.025,0.983
2026/05/14 10:30:21.426,-0.012,-0.029,1.013
2026/05/14 10:30:21.445,-0.014,-0.025,0.996
2026/05/14 10:30:21.463,-0.013,-0.029,1.001
2026/05/14 10:30:21.482,-0.015,-0.033,1.001
2026/05/14 10:30:21.501,-0.015,-0.024,0.987
2026/05/14 10:30:21.519,-0.015,-0.034,1.007
2026/05/14 10:30:21.538,-0.007,-0.031,0.992
2026/05/14 10:30:21.557,-0.015,-0.035,0.999
2026/05/14 10:30:21.575,-0.013,-0.034,0.999
2026/05/14 10:30:21.594,-0.019,-0.03,0.996
2026/05/14 10:30:21.613,-0.01,-0.034,1.009
2026/05/14 10:30:21.631,-0.016,-0.027,0.992
2026/05/14 10:30:21.650,-0.01,-0.024,0.965
2026/05/14 10:30:21.669,-0.013,-0.032,0.995
2026/05/14 10:30:21.687,-0.012,-0.033,0.992
2026/05/14 10:30:21.706,-0.012,-0.035,0.995
2026/05/14 10:30:21.725,-0.014,-0.039,1.013
2026/05/14 10:30:21.743,-0.012,-0.026,0.987
2026/05/14 10:30:21.762,-0.014,-0.027,0.989
2026/05/14 10:30:21.781,-0.015,-0.031,1.001
2026/05/14 10:30:21.799,-0.018,-0.031,0.993
2026/05/14 10:30:21.818,-0.011,-0.033,0.999
2026/05/14 10:30:21.837,-0.017,-0.031,0.999
2026/05/14 10:30:21.856,-0.013,-0.031,0.998
2026/05/14 10:30:21.874,-0.014,-0.025,1.001
2026/05/14 10:30:21.893,-0.011,-0.025,0.984
2026/05/14 10:30:21.912,-0.011,-0.032,1.014
2026/05/14 10:30:21.930,-0.01,-0.031,1.003
2026/05/14 10:30:21.949,-0.008,-0.028,1.005
2026/05/14 10:30:21.968,-0.013,-0.032,0.996
2026/05/14 10:30:21.986,-0.011,-0.034,0.998
2026/05/14 10:30:22.005,-0.018,-0.029,0.992
2026/05/14 10:30:22.024,-0.016,-0.033,0.997
2026/05/14 10:30:22.042,-0.017,-0.033,0.995
2026/05/14 10:30:22.061,-0.016,-0.034,0.99
2026/05/14 10:30:22.080,-0.01,-0.03,1.001
2026/05/14 10:30:22.098,-0.014,-0.029,0.998
2026/05/14 10:30:22.117,-0.008,-0.034,0.998
2026/05/14 10:30:22.136,-0.015,-0.031,0.992
2026/05/14 10:30:22.154,-0.012,-0.028,0.997
2026/05/14 10:30:22.173,-0.011,-0.031,0.997
2026/05/14 10:30:22.192,-0.017,-0.036,0.992
2026/05/14 10:30:22.210,-0.012,-0.027,0.998
2026/05/14 10:30:22.229,-0.014,-0.032,1.0
2026/05/14 10:30:22.248,-0.015,-0.035,0.999
2026/05/14 10:30:22.266,-0.012,-0.03,0.998
2026/05/14 10:30:22.285,-0.01,-0.037,0.999
2026/05/14 10:30:22.304,-0.012,-0.026,0.999
2026/05/14 10:30:22.322,-0.016,-0.031,1.0
2026/05/14 10:30:22.341,-0.014,-0.033,1.0
2026/05/14 10:30:22.360,-0.014,-0.03,1.003
2026/05/14 10:30:22.378,-0.009,-0.032,0.994
2026/05/14 10:30:22.397,-0.014,-0.03,1.0
2026/05/14 10:30:22.416,-0.01,-0.032,1.005
2026/05/14 10:30:22.434,-0.011,-0.029,0.992
2026/05/14 10:30:22.453,-0.01,-0.031,0.991
2026/05/14 10:30:22.472,-0.01,-0.031,0.985
2026/05/14 10:30:22.490,-0.014,-0.034,1.002
2026/05/14 10:30:22.509,-0.013,-0.035,1.001
2026/05/14 10:30:22.528,-0.013,-0.029,1.0
2026/05/14 10:30:22.546,-0.012,-0.031,1.002
2026/05/14 10:30:22.565,-0.017,-0.035,0.997
2026/05/14 10:30:22.584,-0.014,-0.035,1.0
2026/05/14 10:30:22.602,-0.015,-0.033,1.002
2026/05/14 10:30:22.621,-0.01,-0.029,0.995
2026/05/14 10:30:22.640,-0.01,-0.027,0.999
2026/05/14 10:30:22.658,-0.016,-0.027,1.0
2026/05/14 10:30:22.677,-0.012,-0.027,0.999
2026/05/14 10:30:22.696,-0.013,-0.034,0.996
2026/05/14 10:30:22.714,-0.01,-0.028,1.0
2026/05/14 10:30:22.733,-0.014,-0.029,0.999
2026/05/14 10:30:22.752,-0.012,-0.028,0.998
2026/05/14 10:30:22.770,-0.013,-0.031,0.996
2026/05/14 10:30:22.789,-0.013,-0.034,0.993
2026/05/14 10:30:22.808,-0.011,-0.03,0.994
2026/05/14 10:30:22.827,-0.015,-0.034,1.002
2026/05/14 10:30:22.845,-0.01,-0.029,0.995
2026/05/14 10:30:22.864,-0.011,-0.03,0.994
2026/05/14 10:30:22.883,-0.008,-0.03,0.997
2026/05/14 10:30:22.901,-0.015,-0.028,0.998
2026/05/14 10:30:22.920,-0.014,-0.028,0.998
2026/05/14 10:30:22.939,-0.013,-0.027,0.994
2026/05/14 10:30:22.957,-0.014,-0.033,1.0
2026/05/14 10:30:22.976,-0.014,-0.03,0.999
2026/05/14 10:30:22.995,-0.011,-0.031,0.997
2026/05/14 10:30:23.013,-0.015,-0.03,0.998
2026/05/14 10:30:23.032,-0.016,-0.03,0.999
2026/05/14 10:30:23.051,-0.013,-0.035,0.997
2026/05/14 10:30:23.069,-0.01,-0.03,0.999
2026/05/14 10:30:23.088,-0.016,-0.031,0.997
2026/05/14 10:30:23.107,-0.014,-0.031,0.996
2026/05/14 10:30:23.125,-0.009,-0.032,0.997
2026/05/14 10:30:23.144,-0.011,-0.029,0.998
2026/05/14 10:30:23.163,-0.013,-0.031,1.004
2026/05/14 10:30:23.181,-0.01,-0.03,0.996
2026/05/14 10:30:23.200,-0.013,-0.03,0.999
2026/05/14 10:30:23.219,-0.013,-0.03,0.993
2026/05/14 10:30:23.237,-0.012,-0.032,0.998
2026/05/14 10:30:23.256,-0.011,-0.034,1.001
2026/05/14 10:30:23.275,-0.016,-0.029,0.999
2026/05/14 10:30:23.293,-0.013,-0.033,0.996
2026/05/14 10:30:23.312,-0.012,-0.036,0.993
2026/05/14 10:30:23.331,-0.01,-0.035,0.997
2026/05/14 10:30:23.349,-0.013,-0.03,1.0
2026/05/14 10:30:23.368,-0.016,-0.03,1.0
2026/05/14 10:30:23.387,-0.008,-0.034,0.997
2026/05/14 10:30:23.405,-0.008,-0.029,0.998
2026/05/14 10:30:23.424,-0.012,-0.027,0.996
2026/05/14 10:30:23.443,-0.013,-0.03,0.996
2026/05/14 10:30:23.461,-0.013,-0.031,0.999
2026/05/14 10:30:23.480,-0.014,-0.03,0.997
2026/05/14 10:30:23.499,-0.012,-0.032,0.997
2026/05/14 10:30:23.517,-0.013,-0.027,0.999
2026/05/14 10:30:23.536,-0.008,-0.028,0.994
2026/05/14 10:30:23.555,-0.011,-0.03,0.997
2026/05/14 10:30:23.573,-0.014,-0.03,0.999
2026/05/14 10:30:23.592,-0.012,-0.032,0.996
2026/05/14 10:30:23.611,-0.013,-0.026,0.998
2026/05/14 10:30:23.629,-0.013,-0.029,1.0
2026/05/14 10:30:23.648,-0.014,-0.03,1.004
2026/05/14 10:30:23.667,-0.016,-0.03,0.993
2026/05/14 10:30:23.685,-0.012,-0.029,0.996
2026/05/14 10:30:23.704,-0.013,-0.032,1.002
2026/05/14 10:30:23.723,-0.012,-0.033,1.0
2026/05/14 10:30:23.742,-0.011,-0.033,0.997
2026/05/14 10:30:23.760,-0.012,-0.029,0.996
2026/05/14 10:30:23.779,-0.011,-0.034,0.997
2026/05/14 10:30:23.798,-0.013,-0.031,0.992
2026/05/14 10:30:23.816,-0.013,-0.032,0.999
2026/05/14 10:30:23.835,-0.012,-0.031,0.994
2026/05/14 10:30:23.854,-0.014,-0.031,0.995
2026/05/14 10:30:23.872,-0.014,-0.038,0.998
2026/05/14 10:30:23.891,-0.016,-0.029,1.001
2026/05/14 10:30:23.910,-0.014,-0.027,1.001
2026/05/14 10:30:23.928,-0.014,-0.032,0.995
2026/05/14 10:30:23.947,-0.009,-0.029,0.999
2026/05/14 10:30:23.966,-0.011,-0.034,1.001
2026/05/14 10:30:23.984,-0.013,-0.03,1.0
2026/05/14 10:30:24.003,-0.013,-0.032,1.001
2026/05/14 10:30:24.022,-0.015,-0.029,1.0
2026/05/14 10:30:24.040,-0.014,-0.03,0.995
2026/05/14 10:30:24.059,-0.013,-0.033,0.998
2026/05/14 10:30:24.078,-0.012,-0.029,1.001
2026/05/14 10:30:24.096,-0.01,-0.034,0.999
2026/05/14 10:30:24.115,-0.01,-0.032,0.995
2026/05/14 10:30:24.134,-0.013,-0.027,0.997
2026/05/14 10:30:24.152,-0.01,-0.028,1.001
2026/05/14 10:30:24.171,-0.018,-0.029,0.995
2026/05/14 10:30:24.190,-0.013,-0.03,0.997
2026/05/14 10:30:24.208,-0.013,-0.029,0.995
2026/05/14 10:30:24.227,-0.013,-0.032,1.0
2026/05/14 10:30:24.246,-0.013,-0.031,0.999
2026/05/14 10:30:24.264,-0.011,-0.03,0.995
2026/05/14 10:30:24.283,-0.014,-0.032,0.998
2026/05/14 10:30:24.302,-0.014,-0.032,1.0
2026/05/14 10:30:24.320,-0.011,-0.031,0.998
2026/05/14 10:30:24.339,-0.014,-0.03,0.998
2026/05/14 10:30:24.358,-0.014,-0.029,0.995
2026/05/14 10:30:24.376,-0.013,-0.036,1.001
2026/05/14 10:30:24.395,-0.015,-0.031,1.0
2026/05/14 10:30:24.414,-0.01,-0.031,1.0
2026/05/14 10:30:24.432,-0.013,-0.029,0.997
2026/05/14 10:30:24.451,-0.013,-0.03,0.998
2026/05/14 10:30:24.470,-0.014,-0.032,0.998
2026/05/14 10:30:24.488,-0.013,-0.03,0.993
2026/05/14 10:30:24.507,-0.009,-0.03,0.999
2026/05/14 10:30:24.526,-0.013,-0.027,1.004
2026/05/14 10:30:24.544,-0.012,-0.035,1.001
2026/05/14 10:30:24.563,-0.011,-0.033,1.001
2026/05/14 10:30:24.582,-0.013,-0.033,0.998
2026/05/14 10:30:24.600,-0.014,-0.029,0.998
2026/05/14 10:30:24.619,-0.015,-0.033,1.002
2026/05/14 10:30:24.638,-0.012,-0.033,1.0
2026/05/14 10:30:24.656,-0.012,-0.029,1.0
2026/05/14 10:30:24.675,-0.013,-0.03,0.998
2026/05/14 10:30:24.694,-0.015,-0.035,1.0
2026/05/14 10:30:24.713,-0.011,-0.029,1.002
2026/05/14 10:30:24.731,-0.015,-0.03,0.996
2026/05/14 10:30:24.750,-0.012,-0.032,1.0
2026/05/14 10:30:24.769,-0.015,-0.03,1.003
2026/05/14 10:30:24.787,-0.011,-0.029,0.995
2026/05/14 10:30:24.806,-0.014,-0.03,0.994
2026/05/14 10:30:24.825,-0.014,-0.025,1.0
2026/05/14 10:30:24.843,-0.009,-0.033,1.003
2026/05/14 10:30:24.862,-0.013,-0.03,1.0
2026/05/14 10:30:24.881,-0.017,-0.035,0.993
2026/05/14 10:30:24.899,-0.014,-0.03,1.002
2026/05/14 10:30:24.918,-0.013,-0.034,0.998
2026/05/14 10:30:24.937,-0.014,-0.033,0.996
2026/05/14 10:30:24.955,-0.015,-0.027,0.996
2026/05/14 10:30:24.974,-0.011,-0.028,1.0
2026/05/14 10:30:24.993,-0.012,-0.03,0.997
2026/05/14 10:30:25.011,-0.016,-0.028,0.995
2026/05/14 10:30:25.030,-0.016,-0.029,1.002
2026/05/14 10:30:25.049,-0.011,-0.031,0.998
2026/05/14 10:30:25.067,-0.021,-0.042,1.022
2026/05/14 10:30:25.086,-0.011,0.034,0.888
2026/05/14 10:30:25.105,-0.021,-0.049,1.016
2026/05/14 10:30:25.123,-0.021,-0.011,0.914
2026/05/14 10:30:25.142,-0.007,-0.022,0.987
2026/05/14 10:30:25.161,-0.018,-0.037,0.999
2026/05/14 10:30:25.179,-0.039,-0.034,0.986
2026/05/14 10:30:25.198,-0.027,-0.033,0.972
2026/05/14 10:30:25.217,-0.017,-0.039,0.998
2026/05/14 10:30:25.235,-0.011,-0.038,0.986
2026/05/14 10:30:25.254,-0.013,-0.034,0.997
2026/05/14 10:30:25.273,-0.016,-0.035,1.006
2026/05/14 10:30:25.291,-0.008,-0.021,0.99
2026/05/14 10:30:25.310,-0.005,-0.023,1.011
2026/05/14 10:30:25.329,-0.006,-0.025,1.004
2026/05/14 10:30:25.347,0.008,-0.034,0.992
2026/05/14 10:30:25.366,-0.008,-0.027,1.021
2026/05/14 10:30:25.385,-0.016,-0.038,1.017
2026/05/14 10:30:25.403,-0.014,-0.029,1.0
2026/05/14 10:30:25.422,-0.024,-0.048,1.012
2026/05/14 10:30:25.441,-0.03,-0.033,1.008
2026/05/14 10:30:25.459,-0.022,-0.042,0.994
2026/05/14 10:30:25.478,-0.019,-0.032,0.97
2026/05/14 10:30:25.497,-0.021,-0.032,0.969
2026/05/14 10:30:25.515,-0.018,-0.032,0.995
2026/05/14 10:30:25.534,0.012,-0.03,1.004
2026/05/14 10:30:25.553,-0.014,-0.037,1.01
2026/05/14 10:30:25.571,-0.012,-0.024,0.987
2026/05/14 10:30:25.590,-0.012,-0.03,1.003
2026/05/14 10:30:25.609,-0.012,-0.026,0.994
2026/05/14 10:30:25.628,-0.019,-0.016,0.981
2026/05/14 10:30:25.646,-0.017,-0.031,1.004
2026/05/14 10:30:25.665,-0.009,-0.03,0.995
2026/05/14 10:30:25.684,-0.008,-0.029,0.992
2026/05/14 10:30:25.702,-0.002,-0.039,1.013
2026/05/14 10:30:25.721,-0.003,-0.034,0.99
2026/05/14 10:30:25.740,-0.012,-0.035,1.018
2026/05/14 10:30:25.758,-0.018,-0.035,0.998
2026/05/14 10:30:25.777,-0.025,-0.027,0.987
2026/05/14 10:30:25.796,-0.027,-0.025,1.0
2026/05/14 10:30:25.814,-0.02,-0.028,1.023
2026/05/14 10:30:25.833,-0.02,-0.019,0.997
2026/05/14 10:30:25.852,0.002,-0.024,1.0
2026/05/14 10:30:25.870,-0.004,-0.023,1.002
2026/05/14 10:30:25.889,0.002,-0.03,1.01
2026/05/14 10:30:25.908,0.008,-0.013,0.979
2026/05/14 10:30:25.926,-0.007,-0.029,0.992
2026/05/14 10:30:25.945,-0.022,-0.031,0.995
2026/05/14 10:30:25.964,-0.034,-0.036,0.997
2026/05/14 10:30:25.982,-0.034,-0.037,0.998
2026/05/14 10:30:26.001,-0.022,-0.038,1.002
2026/05/14 10:30:26.020,-0.01,-0.036,0.996
2026/05/14 10:30:26.038,0.001,-0.039,1.017
2026/05/14 10:30:26.057,-0.08,-0.025,0.991
2026/05/14 10:30:26.076,0.012,-0.051,1.118
2026/05/14 10:30:26.094,-0.069,0.129,0.973
2026/05/14 10:30:26.113,-0.042,0.221,1.049
2026/05/14 10:30:26.132,0.041,0.033,0.948
2026/05/14 10:30:26.150,-0.094,-0.132,1.034
2026/05/14 10:30:26.169,-0.069,-0.157,1.096
2026/05/14 10:30:26.188,-0.129,0.129,1.128
2026/05/14 10:30:26.206,-0.016,-0.085,0.955
2026/05/14 10:30:26.225,-0.005,-0.043,1.046
2026/05/14 10:30:26.244,-0.008,-0.039,0.986
2026/05/14 10:30:26.262,-0.025,-0.021,0.995
2026/05/14 10:30:26.281,-0.007,-0.034,1.013
2026/05/14 10:30:26.300,-0.004,0.007,1.011
2026/05/14 10:30:26.318,-0.001,-0.012,1.01
2026/05/14 10:30:26.337,-0.023,-0.01,0.971
2026/05/14 10:30:26.356,-0.003,-0.031,1.038
2026/05/14 10:30:26.374,-0.06,-0.107,1.009
2026/05/14 10:30:26.393,-0.003,-0.007,0.99
2026/05/14 10:30:26.412,-0.004,-0.027,1.014
2026/05/14 10:30:26.430,-0.018,-0.026,1.011
2026/05/14 10:30:26.449,-0.002,-0.039,1.016
2026/05/14 10:30:26.468,-0.001,-0.035,1.001
2026/05/14 10:30:26.486,-0.016,-0.018,0.98
2026/05/14 10:30:26.505,-0.011,-0.026,0.996
2026/05/14 10:30:26.524,-0.01,-0.035,0.998
2026/05/14 10:30:26.543,-0.017,-0.025,0.992
2026/05/14 10:30:26.561,-0.019,-0.022,0.984
2026/05/14 10:30:26.580,-0.021,-0.043,1.006
2026/05/14 10:30:26.599,-0.021,-0.048,0.993
2026/05/14 10:30:26.617,-0.004,-0.018,0.974
2026/05/14 10:30:26.636,-0.011,-0.005,0.955
2026/05/14 10:30:26.655,-0.007,-0.025,0.993
2026/05/14 10:30:26.673,-0.014,-0.008,1.025
2026/05/14 10:30:26.692,-0.016,0.002,0.981
2026/05/14 10:30:26.711,-0.013,0.004,0.938
2026/05/14 10:30:26.729,-0.013,-0.029,1.038
2026/05/14 10:30:26.748,-0.006,-0.045,0.99
2026/05/14 10:30:26.767,-0.003,-0.021,1.003
2026/05/14 10:30:26.785,-0.032,-0.068,1.046
2026/05/14 10:30:26.804,-0.01,-0.016,0.985
2026/05/14 10:30:26.823,0.005,-0.026,1.009
2026/05/14 10:30:26.841,0.006,-0.037,1.003
2026/05/14 10:30:26.860,-0.005,-0.037,0.989
2026/05/14 10:30:26.879,-0.017,-0.041,0.996
2026/05/14 10:30:26.897,-0.017,-0.045,0.996
2026/05/14 10:30:26.916,-0.018,-0.052,1.0
2026/05/14 10:30:26.935,-0.021,-0.048,0.995
2026/05/14 10:30:26.953,-0.038,-0.038,0.991
2026/05/14 10:30:26.972,-0.039,-0.031,1.003
2026/05/14 10:30:26.991,-0.021,-0.022,0.992
2026/05/14 10:30:27.009,0.001,-0.03,1.02
2026/05/14 10:30:27.028,0.011,-0.027,0.992
2026/05/14 10:30:27.047,0.178,-0.079,0.875
2026/05/14 10:30:27.065,0.013,-0.004,0.933
2026/05/14 10:30:27.084,-0.021,-0.026,0.999
2026/05/14 10:30:27.103,-0.013,-0.033,0.969
2026/05/14 10:30:27.121,-0.007,-0.032,0.993
2026/05/14 10:30:27.140,-0.021,-0.029,1.012
2026/05/14 10:30:27.159,-0.031,-0.02,0.979
2026/05/14 10:30:27.177,-0.035,-0.025,1.007
2026/05/14 10:30:27.196,-0.024,-0.035,1.019
2026/05/14 10:30:27.215,-0.095,-0.217,1.628
2026/05/14 10:30:27.233,0.004,-0.012,0.914
2026/05/14 10:30:27.252,0.013,-0.045,1.028
2026/05/14 10:30:27.271,0.018,-0.032,0.997
2026/05/14 10:30:27.289,-0.002,-0.018,0.992
2026/05/14 10:30:27.308,-0.017,-0.014,0.999
2026/05/14 10:30:27.327,0.118,0.073,0.993
2026/05/14 10:30:27.345,0.151,0.197,0.939
2026/05/14 10:30:27.364,0.078,0.034,1.057
2026/05/14 10:30:27.383,-0.266,0.011,0.982
2026/05/14 10:30:27.401,-0.192,-0.034,0.883
2026/05/14 10:30:27.420,-0.03,-0.244,1.238
2026/05/14 10:30:27.439,0.047,-0.194,0.998
2026/05/14 10:30:27.458,0.004,-0.077,1.051
2026/05/14 10:30:27.476,-0.033,-0.048,1.01
2026/05/14 10:30:27.495,-0.006,-0.03,0.987
2026/05/14 10:30:27.514,0.0,-0.027,0.997
2026/05/14 10:30:27.532,-0.016,-0.021,0.996
2026/05/14 10:30:27.551,-0.026,-0.023,1.009
2026/05/14 10:30:27.570,-0.034,-0.03,0.99
2026/05/14 10:30:27.588,0.083,-0.187,0.996
2026/05/14 10:30:27.607,0.098,-0.154,1.061
2026/05/14 10:30:27.626,-0.023,0.128,0.951
2026/05/14 10:30:27.644,-0.16,0.156,1.064
2026/05/14 10:30:27.663,-0.001,-0.039,1.021
2026/05/14 10:30:27.682,0.061,-0.177,0.941
2026/05/14 10:30:27.700,0.085,-0.187,1.036
2026/05/14 10:30:27.719,0.113,-0.237,1.338
2026/05/14 10:30:27.738,-0.096,0.261,1.056
2026/05/14 10:30:27.756,-1.226,0.945,1.922
2026/05/14 10:30:27.775,0.071,-0.114,1.091
2026/05/14 10:30:27.794,0.045,-0.023,0.981
2026/05/14 10:30:27.812,-0.002,-0.027,0.97
2026/05/14 10:30:27.831,-0.11,-0.188,1.032
2026/05/14 10:30:27.850,-0.049,-0.006,1.042
2026/05/14 10:30:27.868,0.09,0.046,1.081
2026/05/14 10:30:27.887,0.0,-0.029,1.012
2026/05/14 10:30:27.906,-0.017,-0.005,0.98
2026/05/14 10:30:27.924,-0.011,-0.025,0.99
2026/05/14 10:30:27.943,-0.019,-0.029,1.016
2026/05/14 10:30:27.962,-0.007,-0.041,1.004
2026/05/14 10:30:27.980,-0.013,-0.036,0.972
2026/05/14 10:30:27.999,-0.003,-0.035,0.985
2026/05/14 10:30:28.018,-0.015,-0.032,0.994
2026/05/14 10:30:28.036,-0.024,-0.03,0.977
2026/05/14 10:30:28.055,-0.034,-0.027,0.988
2026/05/14 10:30:28.074,-0.031,-0.024,0.997
2026/05/14 10:30:28.092,-0.029,-0.022,1.001
2026/05/14 10:30:28.111,-0.015,-0.027,1.003
2026/05/14 10:30:28.130,-0.004,-0.017,0.999
2026/05/14 10:30:28.148,0.004,-0.033,1.011
2026/05/14 10:30:28.167,0.004,-0.029,0.998
2026/05/14 10:30:28.186,-0.004,-0.025,1.001
2026/05/14 10:30:28.204,-0.013,-0.021,0.996
2026/05/14 10:30:28.223,-0.026,-0.023,0.993
2026/05/14 10:30:28.242,-0.028,-0.023,0.997
2026/05/14 10:30:28.260,-0.031,-0.023,0.996
2026/05/14 10:30:28.279,-0.02,-0.028,0.994
2026/05/14 10:30:28.298,-0.015,-0.035,1.001
2026/05/14 10:30:28.317,-0.011,-0.037,1.001
2026/05/14 10:30:28.335,-0.008,-0.04,1.0
2026/05/14 10:30:28.354,-0.012,-0.039,1.002
2026/05/14 10:30:28.373,-0.015,-0.031,1.001
2026/05/14 10:30:28.391,-0.018,-0.021,0.999
2026/05/14 10:30:28.410,-0.022,-0.019,0.993
2026/05/14 10:30:28.429,-0.022,-0.022,0.991
2026/05/14 10:30:28.447,-0.016,-0.021,0.999
2026/05/14 10:30:28.466,-0.012,-0.029,1.003
2026/05/14 10:30:28.485,-0.005,-0.024,1.001
2026/05/14 10:30:28.503,-0.003,-0.023,1.001
2026/05/14 10:30:28.522,-0.008,-0.03,1.008
2026/05/14 10:30:28.541,-0.012,-0.033,0.998
2026/05/14 10:30:28.559,-0.018,-0.031,0.994
2026/05/14 10:30:28.578,-0.023,-0.032,1.001
2026/05/14 10:30:28.597,-0.022,-0.032,1.001
2026/05/14 10:30:28.615,-0.021,-0.034,0.995
2026/05/14 10:30:28.634,-0.017,-0.031,1.004
2026/05/14 10:30:28.653,-0.015,-0.031,0.997
2026/05/14 10:30:28.671,-0.014,-0.036,0.996
2026/05/14 10:30:28.690,-0.012,-0.029,0.999
2026/05/14 10:30:28.709,-0.011,-0.026,0.998
2026/05/14 10:30:28.727,-0.014,-0.026,0.999
2026/05/14 10:30:28.746,-0.015,-0.023,0.998
2026/05/14 10:30:28.765,-0.012,-0.024,0.998
2026/05/14 10:30:28.783,-0.017,-0.022,1.0
2026/05/14 10:30:28.802,-0.018,-0.026,0.998
2026/05/14 10:30:28.821,-0.012,-0.03,0.997
2026/05/14 10:30:28.839,-0.013,-0.031,1.008
2026/05/14 10:30:28.858,-0.011,-0.032,0.998
2026/05/14 10:30:28.877,-0.007,-0.037,0.997
2026/05/14 10:30:28.895,-0.018,-0.034,0.998
2026/05/14 10:30:28.914,-0.018,-0.033,1.004
2026/05/14 10:30:28.933,-0.021,-0.028,0.995
2026/05/14 10:30:28.951,-0.021,-0.033,1.001
2026/05/14 10:30:28.970,-0.02,-0.024,1.001
2026/05/14 10:30:28.989,-0.014,-0.026,0.996
2026/05/14 10:30:29.007,-0.008,-0.03,1.001
2026/05/14 10:30:29.026,-0.008,-0.025,1.001
2026/05/14 10:30:29.045,-0.009,-0.027,0.997
2026/05/14 10:30:29.063,-0.014,-0.025,0.996
2026/05/14 10:30:29.082,-0.015,-0.028,1.001
2026/05/14 10:30:29.101,-0.018,-0.028,0.993
2026/05/14 10:30:29.120,-0.016,-0.026,0.987
2026/05/14 10:30:29.138,-0.017,-0.033,0.998
2026/05/14 10:30:29.157,-0.014,-0.037,0.999
2026/05/14 10:30:29.176,-0.012,-0.031,1.001
2026/05/14 10:30:29.194,-0.012,-0.028,0.997
2026/05/14 10:30:29.213,-0.016,-0.03,1.0
2026/05/14 10:30:29.232,-0.012,-0.028,1.004
2026/05/14 10:30:29.250,-0.014,-0.025,1.0
2026/05/14 10:30:29.269,-0.014,-0.025,0.993
2026/05/14 10:30:29.288,-0.016,-0.026,0.995
2026/05/14 10:30:29.306,-0.017,-0.028,0.998
2026/05/14 10:30:29.325,-0.015,-0.023,0.983
2026/05/14 10:30:29.344,-0.014,-0.026,1.001
2026/05/14 10:30:29.362,-0.015,-0.033,0.996
2026/05/14 10:30:29.381,-0.018,-0.03,0.997
2026/05/14 10:30:29.400,-0.015,-0.03,1.004
2026/05/14 10:30:29.418,-0.019,-0.024,0.994
2026/05/14 10:30:29.437,-0.016,-0.033,1.003
2026/05/14 10:30:29.456,-0.011,-0.033,1.002
2026/05/14 10:30:29.474,-0.018,-0.028,0.99
2026/05/14 10:30:29.493,-0.014,-0.026,0.995
2026/05/14 10:30:29.512,-0.009,-0.027,1.008
2026/05/14 10:30:29.530,-0.014,-0.029,0.992
2026/05/14 10:30:29.549,-0.012,-0.032,1.0
2026/05/14 10:30:29.568,-0.014,-0.027,0.999
2026/05/14 10:30:29.586,-0.014,-0.029,0.994
2026/05/14 10:30:29.605,-0.017,-0.031,1.001
2026/05/14 10:30:29.624,-0.02,-0.028,1.0
2026/05/14 10:30:29.642,-0.017,-0.029,0.994
2026/05/14 10:30:29.661,-0.017,-0.031,1.0
2026/05/14 10:30:29.680,-0.009,-0.031,0.993
2026/05/14 10:30:29.698,-0.008,-0.03,0.995
2026/05/14 10:30:29.717,-0.015,-0.026,0.996
2026/05/14 10:30:29.736,-0.014,-0.033,1.002
2026/05/14 10:30:29.754,-0.012,-0.026,0.995
2026/05/14 10:30:29.773,-0.009,-0.026,1.007
2026/05/14 10:30:29.792,-0.016,-0.011,1.015
2026/05/14 10:30:29.810,-0.007,-0.02,0.974
2026/05/14 10:30:29.829,-0.028,-0.041,1.021
2026/05/14 10:30:29.848,-0.005,-0.048,1.067
2026/05/14 10:30:29.867,-0.016,-0.027,0.938
2026/05/14 10:30:29.885,-0.109,0.018,0.878
2026/05/14 10:30:29.904,0.024,0.0,0.949
2026/05/14 10:30:29.923,-0.019,-0.035,1.013
2026/05/14 10:30:29.941,-0.012,-0.01,0.892
2026/05/14 10:30:29.960,0.003,0.005,1.019
2026/05/14 10:30:29.979,-0.016,-0.012,1.007
2026/05/14 10:30:29.997,-0.023,-0.014,1.011
2026/05/14 10:30:30.016,-0.011,-0.033,1.014
2026/05/14 10:30:30.035,0.006,-0.038,1.01
2026/05/14 10:30:30.053,0.0,-0.023,0.966
2026/05/14 10:30:30.072,0.122,-0.223,1.139
2026/05/14 10:30:30.091,-0.01,-0.023,0.997
2026/05/14 10:30:30.109,-0.025,-0.016,0.986
2026/05/14 10:30:30.128,-0.037,-0.017,0.98
2026/05/14 10:30:30.147,-0.038,-0.021,0.985
2026/05/14 10:30:30.165,-0.034,-0.035,1.003
2026/05/14 10:30:30.184,-0.018,-0.037,1.0
2026/05/14 10:30:30.203,0.002,-0.034,1.016
2026/05/14 10:30:30.221,0.012,-0.038,1.002
2026/05/14 10:30:30.240,0.007,-0.04,1.012
2026/05/14 10:30:30.259,-0.007,-0.034,0.999
2026/05/14 10:30:30.277,-0.025,-0.027,0.991
2026/05/14 10:30:30.296,-0.032,-0.025,1.001
2026/05/14 10:30:30.315,-0.028,-0.009,0.989
2026/05/14 10:30:30.333,-0.021,-0.007,1.0
2026/05/14 10:30:30.352,-0.01,-0.027,1.005
2026/05/14 10:30:30.371,-0.021,-0.044,0.918
2026/05/14 10:30:30.389,0.0,-0.05,1.044
2026/05/14 10:30:30.408,0.007,-0.045,1.012
2026/05/14 10:30:30.427,-0.015,-0.045,0.999
2026/05/14 10:30:30.445,-0.017,-0.033,0.994
2026/05/14 10:30:30.464,-0.023,-0.028,0.991
2026/05/14 10:30:30.483,-0.02,-0.032,1.037
2026/05/14 10:30:30.501,-0.003,0.026,0.937
2026/05/14 10:30:30.520,-0.034,-0.01,0.977
2026/05/14 10:30:30.539,-0.013,-0.013,1.026
2026/05/14 10:30:30.557,0.001,-0.036,1.023
2026/05/14 10:30:30.576,0.023,-0.032,1.008
2026/05/14 10:30:30.595,0.022,-0.082,1.532
2026/05/14 10:30:30.614,0.015,0.002,0.871
2026/05/14 10:30:30.632,-0.021,-0.022,0.997
2026/05/14 10:30:30.651,-0.025,-0.014,0.993
2026/05/14 10:30:30.670,-0.036,-0.017,0.977
2026/05/14 10:30:30.688,-0.025,-0.029,0.981
2026/05/14 10:30:30.707,0.023,0.023,0.772
2026/05/14 10:30:30.726,0.006,-0.05,1.035
2026/05/14 10:30:30.744,0.041,-0.128,1.209
2026/05/14 10:30:30.763,0.031,-0.013,1.037
2026/05/14 10:30:30.782,-0.001,-0.043,1.007
2026/05/14 10:30:30.800,-0.007,-0.009,0.838
2026/05/14 10:30:30.819,-0.005,-0.02,1.068
2026/05/14 10:30:30.838,0.195,0.015,1.028
2026/05/14 10:30:30.856,-0.021,-0.011,0.99
2026/05/14 10:30:30.875,-0.03,-0.045,1.039
2026/05/14 10:30:30.894,-0.032,0.013,0.981
2026/05/14 10:30:30.912,-0.008,-0.048,1.019
2026/05/14 10:30:30.931,-0.011,-0.037,0.989
2026/05/14 10:30:30.950,-0.002,-0.043,1.031
2026/05/14 10:30:30.968,-0.017,-0.024,0.982
2026/05/14 10:30:30.987,-0.03,-0.015,0.967
2026/05/14 10:30:31.006,-0.019,-0.043,1.041
2026/05/14 10:30:31.024,-0.02,-0.025,0.984
2026/05/14 10:30:31.043,-0.028,-0.028,1.0
2026/05/14 10:30:31.062,-0.02,-0.031,1.014
2026/05/14 10:30:31.080,-0.005,-0.02,0.996
2026/05/14 10:30:31.099,0.001,-0.029,0.992
2026/05/14 10:30:31.118,0.002,-0.026,1.005
2026/05/14 10:30:31.136,-0.029,-0.013,1.042
2026/05/14 10:30:31.155,-0.022,-0.017,0.992
2026/05/14 10:30:31.174,-0.022,-0.031,0.999
2026/05/14 10:30:31.192,-0.018,-0.031,0.997
2026/05/14 10:30:31.211,-0.015,-0.034,1.003
2026/05/14 10:30:31.230,0.0,-0.036,1.005
2026/05/14 10:30:31.248,-0.001,-0.05,1.008
2026/05/14 10:30:31.267,0.012,-0.03,0.983
2026/05/14 10:30:31.286,-0.018,-0.013,0.979
2026/05/14 10:30:31.304,-0.015,-0.105,1.026
2026/05/14 10:30:31.323,-0.044,0.055,2.378
2026/05/14 10:30:31.342,-0.008,-0.062,1.233
2026/05/14 10:30:31.360,-0.061,-0.023,0.919
2026/05/14 10:30:31.379,0.025,-0.08,0.937
2026/05/14 10:30:31.398,0.003,-0.049,0.982
2026/05/14 10:30:31.417,-0.003,-0.051,1.002
2026/05/14 10:30:31.435,-0.002,-0.03,1.006
2026/05/14 10:30:31.454,-0.009,-0.027,0.969
2026/05/14 10:30:31.473,-0.02,-0.031,1.011
2026/05/14 10:30:31.491,-0.024,-0.021,1.006
2026/05/14 10:30:31.510,-0.018,-0.002,0.984
2026/05/14 10:30:31.529,-0.021,-0.013,0.996
2026/05/14 10:30:31.547,-0.011,-0.024,0.995
2026/05/14 10:30:31.566,-0.005,-0.033,1.006
2026/05/14 10:30:31.585,-0.004,-0.036,1.01
2026/05/14 10:30:31.603,-0.007,-0.032,0.995
2026/05/14 10:30:31.622,-0.01,-0.03,1.009
2026/05/14 10:30:31.641,-0.025,-0.033,1.002
2026/05/14 10:30:31.659,-0.017,-0.037,0.982
2026/05/14 10:30:31.678,-0.102,0.117,0.003
2026/05/14 10:30:31.697,0.176,0.02,1.075
2026/05/14 10:30:31.715,0.008,-0.006,1.088
2026/05/14 10:30:31.734,0.005,-0.012,0.901
2026/05/14 10:30:31.753,-0.001,-0.025,0.976
2026/05/14 10:30:31.771,0.009,0.009,0.925
2026/05/14 10:30:31.790,0.126,-0.035,1.063
2026/05/14 10:30:31.809,-0.013,0.005,1.06
2026/05/14 10:30:31.827,-0.045,-0.051,1.027
2026/05/14 10:30:31.846,-0.02,-0.022,1.015
2026/05/14 10:30:31.865,-0.026,-0.025,1.011
2026/05/14 10:30:31.883,-0.026,-0.01,0.99
2026/05/14 10:30:31.902,-0.016,-0.035,1.001
2026/05/14 10:30:31.921,-0.009,-0.034,1.003
2026/05/14 10:30:31.939,-0.011,-0.035,1.006
2026/05/14 10:30:31.958,-0.015,-0.028,0.986
2026/05/14 10:30:31.977,-0.019,-0.03,0.997
2026/05/14 10:30:31.995,0.019,-0.044,1.013
2026/05/14 10:30:32.014,-0.042,-0.042,1.099
2026/05/14 10:30:32.033,-0.056,0.176,0.157
2026/05/14 10:30:32.051,-0.099,0.015,0.865
2026/05/14 10:30:32.070,0.015,-0.035,1.006
2026/05/14 10:30:32.089,-0.03,0.023,0.959
2026/05/14 10:30:32.107,-0.047,0.006,1.116
2026/05/14 10:30:32.126,0.009,-0.052,1.059
2026/05/14 10:30:32.145,-0.009,-0.041,0.986
2026/05/14 10:30:32.163,-0.032,-0.039,1.064
2026/05/14 10:30:32.182,0.008,-0.028,0.982
2026/05/14 10:30:32.201,-0.038,-0.041,1.077
2026/05/14 10:30:32.219,-0.001,-0.031,1.001
2026/05/14 10:30:32.238,-0.009,-0.034,1.01
2026/05/14 10:30:32.257,-0.007,-0.038,1.005
2026/05/14 10:30:32.276,-0.012,-0.026,1.003
2026/05/14 10:30:32.294,-0.03,0.002,0.909
2026/05/14 10:30:32.313,-0.016,0.027,0.841
2026/05/14 10:30:32.332,-0.017,-0.04,1.048
2026/05/14 10:30:32.350,-0.032,-0.024,0.989
2026/05/14 10:30:32.369,-0.016,-0.032,0.986
2026/05/14 10:30:32.388,-0.013,-0.033,1.033
2026/05/14 10:30:32.406,-0.039,-0.037,1.054
2026/05/14 10:30:32.425,-0.008,-0.045,1.011
2026/05/14 10:30:32.444,-0.004,-0.032,0.997
2026/05/14 10:30:32.462,-0.022,-0.023,1.014
2026/05/14 10:30:32.481,-0.009,-0.035,1.005
2026/05/14 10:30:32.500,0.033,-0.108,1.138
2026/05/14 10:30:32.518,-0.007,-0.016,0.956
2026/05/14 10:30:32.537,0.0,-0.027,1.013
2026/05/14 10:30:32.556,-0.01,-0.024,0.998
2026/05/14 10:30:32.574,-0.013,-0.017,0.983
2026/05/14 10:30:32.593,-0.026,-0.025,1.025
2026/05/14 10:30:32.612,-0.005,-0.025,1.009
2026/05/14 10:30:32.630,-0.008,-0.02,1.019
2026/05/14 10:30:32.649,-0.1,-0.053,1.1
2026/05/14 10:30:32.668,-0.015,-0.041,0.997
2026/05/14 10:30:32.686,-0.008,-0.044,1.0
2026/05/14 10:30:32.705,-0.008,-0.045,1.012
2026/05/14 10:30:32.724,-0.014,-0.037,0.983
2026/05/14 10:30:32.742,-0.005,-0.045,1.0
2026/05/14 10:30:32.761,-0.009,-0.024,0.994
2026/05/14 10:30:32.780,-0.023,-0.011,0.979
2026/05/14 10:30:32.798,-0.028,-0.021,1.012
2026/05/14 10:30:32.817,-0.02,-0.018,0.996
2026/05/14 10:30:32.836,0.038,0.068,0.56
2026/05/14 10:30:32.854,0.082,-0.094,1.157
2026/05/14 10:30:32.873,0.028,-0.045,0.971
2026/05/14 10:30:32.892,-0.03,0.068,0.782
2026/05/14 10:30:32.910,-0.02,-0.03,0.979
2026/05/14 10:30:32.929,-0.001,-0.112,1.184
2026/05/14 10:30:32.948,-0.019,-0.034,1.03
2026/05/14 10:30:32.967,-0.024,-0.027,0.996
2026/05/14 10:30:32.985,-0.018,-0.027,0.991
2026/05/14 10:30:33.004,-0.016,-0.041,1.016
2026/05/14 10:30:33.023,-0.012,-0.034,0.992
2026/05/14 10:30:33.041,-0.013,-0.032,1.001
2026/05/14 10:30:33.060,-0.008,-0.031,1.008
2026/05/14 10:30:33.079,-0.013,-0.026,0.999
2026/05/14 10:30:33.097,-0.016,-0.027,1.007
2026/05/14 10:30:33.116,0.057,-0.041,0.996
2026/05/14 10:30:33.135,0.056,0.07,0.888
2026/05/14 10:30:33.153,0.018,-0.29,1.403
2026/05/14 10:30:33.172,-0.021,-0.038,1.01
2026/05/14 10:30:33.191,0.034,-0.051,1.033
2026/05/14 10:30:33.209,-0.017,-0.039,0.991
2026/05/14 10:30:33.228,-0.003,-0.02,0.997
2026/05/14 10:30:33.247,-0.016,-0.034,1.005
2026/05/14 10:30:33.265,-0.032,0.0,0.997
2026/05/14 10:30:33.284,0.0,-0.035,1.002
2026/05/14 10:30:33.303,0.1,0.007,0.993
2026/05/14 10:30:33.321,0.004,-0.014,0.956
2026/05/14 10:30:33.340,-0.024,-0.018,0.981
2026/05/14 10:30:33.359,-0.014,-0.022,0.993
2026/05/14 10:30:33.377,-0.01,-0.024,0.991
2026/05/14 10:30:33.396,-0.012,-0.028,1.0
2026/05/14 10:30:33.415,-0.011,-0.032,0.997
2026/05/14 10:30:33.433,-0.015,-0.032,0.994
2026/05/14 10:30:33.452,-0.019,-0.025,0.984
2026/05/14 10:30:33.471,0.008,-0.022,1.061
2026/05/14 10:30:33.489,-0.023,-0.026,0.974
2026/05/14 10:30:33.508,-0.019,-0.022,0.986
2026/05/14 10:30:33.527,-0.031,-0.014,0.957
2026/05/14 10:30:33.545,-0.011,-0.024,0.99
2026/05/14 10:30:33.564,-0.015,-0.028,0.996
2026/05/14 10:30:33.583,-0.056,0.024,0.887
2026/05/14 10:30:33.601,-0.02,-0.053,1.019
2026/05/14 10:30:33.620,-0.041,-0.01,0.975
2026/05/14 10:30:33.639,-0.02,-0.035,1.03
2026/05/14 10:30:33.657,-0.019,-0.019,0.985
2026/05/14 10:30:33.676,-0.01,-0.022,0.993
2026/05/14 10:30:33.695,-0.009,-0.032,0.989
2026/05/14 10:30:33.713,-0.038,-0.006,0.94
2026/05/14 10:30:33.732,-0.017,-0.014,0.958
2026/05/14 10:30:33.751,-0.06,0.058,0.848
2026/05/14 10:30:33.769,-0.019,0.011,0.951
2026/05/14 10:30:33.788,0.053,0.098,-0.079
2026/05/14 10:30:33.807,-0.021,-0.085,1.216
2026/05/14 10:30:33.826,-0.009,-0.044,1.027
2026/05/14 10:30:33.844,-0.024,-0.023,0.988
2026/05/14 10:30:33.863,0.115,-0.452,2.051
2026/05/14 10:30:33.882,0.027,-0.059,1.025
2026/05/14 10:30:33.900,0.059,-0.116,1.142
2026/05/14 10:30:33.919,0.014,-0.038,1.055
2026/05/14 10:30:33.938,0.003,0.018,0.866
2026/05/14 10:30:33.956,0.0,-0.034,1.01
2026/05/14 10:30:33.975,-0.01,-0.014,0.958
2026/05/14 10:30:33.994,-0.016,-0.018,0.996
2026/05/14 10:30:34.012,-0.012,-0.028,0.996
2026/05/14 10:30:34.031,-0.009,-0.03,0.993
2026/05/14 10:30:34.050,-0.012,-0.026,1.006
2026/05/14 10:30:34.068,-0.014,-0.028,0.993
2026/05/14 10:30:34.087,-0.015,-0.292,1.92
2026/05/14 10:30:34.106,-0.001,-0.058,1.027
2026/05/14 10:30:34.124,-0.001,-0.024,0.995
2026/05/14 10:30:34.143,-0.048,0.058,1.055
2026/05/14 10:30:34.162,-0.008,-0.049,1.038
2026/05/14 10:30:34.180,-0.037,-0.046,0.949
2026/05/14 10:30:34.199,-0.02,-0.049,1.033
2026/05/14 10:30:34.218,-0.04,-0.017,0.939
2026/05/14 10:30:34.236,-0.046,-0.063,1.164
2026/05/14 10:30:34.255,-0.003,-0.021,1.014
2026/05/14 10:30:34.274,-0.095,-0.002,0.908
2026/05/14 10:30:34.292,0.021,-0.058,1.088
2026/05/14 10:30:34.311,-0.05,0.0,0.77
2026/05/14 10:30:34.330,-0.014,0.011,0.934
2026/05/14 10:30:34.348,0.007,-0.083,1.225
2026/05/14 10:30:34.367,0.0,-0.025,1.002
2026/05/14 10:30:34.386,-0.001,-0.006,0.967
2026/05/14 10:30:34.404,-0.013,-0.04,0.992
2026/05/14 10:30:34.423,-0.014,-0.026,0.948
2026/05/14 10:30:34.442,-0.02,-0.038,1.007
2026/05/14 10:30:34.460,-0.015,-0.035,0.998
2026/05/14 10:30:34.479,-0.005,-0.029,0.974
2026/05/14 10:30:34.498,-0.035,0.047,0.791
2026/05/14 10:30:34.516,-0.018,-0.027,0.995
2026/05/14 10:30:34.535,-0.02,-0.029,1.009
2026/05/14 10:30:34.554,-0.016,-0.026,0.996
2026/05/14 10:30:34.572,-0.033,-0.02,0.961
2026/05/14 10:30:34.591,0.013,-0.094,1.155
2026/05/14 10:30:34.610,0.001,-0.025,0.992
2026/05/14 10:30:34.628,-0.01,-0.011,0.997
2026/05/14 10:30:34.647,-0.007,-0.023,1.011
2026/05/14 10:30:34.666,-0.024,-0.038,0.975
2026/05/14 10:30:34.684,-0.002,-0.042,0.911
2026/05/14 10:30:34.703,-0.016,-0.057,1.009
2026/05/14 10:30:34.722,-0.005,-0.058,1.012
2026/05/14 10:30:34.741,-0.01,-0.051,1.011
2026/05/14 10:30:34.759,0.003,-0.045,1.024
2026/05/14 10:30:34.778,-0.012,-0.032,1.0
2026/05/14 10:30:34.797,0.041,-0.051,0.998
2026/05/14 10:30:34.815,-0.019,-0.02,0.993
2026/05/14 10:30:34.834,-0.024,-0.011,0.995
2026/05/14 10:30:34.853,0.026,0.046,0.849
2026/05/14 10:30:34.871,0.011,-0.027,1.013
2026/05/14 10:30:34.890,-0.008,-0.025,1.01
2026/05/14 10:30:34.909,0.011,-0.044,1.071
2026/05/14 10:30:34.927,-0.01,-0.029,1.0
2026/05/14 10:30:34.946,-0.016,-0.029,0.999
2026/05/14 10:30:34.965,-0.012,-0.031,1.002
2026/05/14 10:30:34.983,-0.021,-0.03,0.996
2026/05/14 10:30:35.002,-0.01,-0.027,0.97
2026/05/14 10:30:35.021,-0.016,-0.036,1.002
2026/05/14 10:30:35.039,-0.024,-0.028,0.992
2026/05/14 10:30:35.058,-0.001,-0.03,1.01
2026/05/14 10:30:35.077,-0.015,-0.024,1.0
2026/05/14 10:30:35.095,-0.016,-0.025,1.015
2026/05/14 10:30:35.114,-0.01,-0.026,0.995
2026/05/14 10:30:35.133,-0.016,-0.049,1.001
2026/05/14 10:30:35.151,0.0,-0.064,1.162
2026/05/14 10:30:35.170,-0.003,-0.035,1.011
2026/05/14 10:30:35.189,-0.02,-0.03,0.997
2026/05/14 10:30:35.207,-0.015,-0.029,0.996
2026/05/14 10:30:35.226,-0.017,-0.027,1.004
2026/05/14 10:30:35.245,-0.016,-0.028,0.996
2026/05/14 10:30:35.263,-0.017,-0.033,0.993
2026/05/14 10:30:35.282,0.014,-0.071,0.964
2026/05/14 10:30:35.301,-0.016,-0.041,1.013
2026/05/14 10:30:35.319,-0.013,-0.031,1.003
2026/05/14 10:30:35.338,-0.014,-0.038,0.995
2026/05/14 10:30:35.357,-0.009,-0.038,0.997
2026/05/14 10:30:35.375,-0.018,-0.026,0.993
2026/05/14 10:30:35.394,-0.015,-0.028,1.003
2026/05/14 10:30:35.413,-0.002,-0.039,1.067
2026/05/14 10:30:35.431,-0.02,-0.014,1.011
2026/05/14 10:30:35.450,-0.024,-0.032,1.02
2026/05/14 10:30:35.469,-0.023,0.094,0.643
2026/05/14 10:30:35.487,-0.017,-0.097,1.129
2026/05/14 10:30:35.506,0.014,-0.063,1.035
2026/05/14 10:30:35.525,-0.025,0.09,0.004
2026/05/14 10:30:35.543,-0.03,-0.024,0.946
2026/05/14 10:30:35.562,-0.027,-0.039,1.015
2026/05/14 10:30:35.581,-0.014,-0.212,1.53
2026/05/14 10:30:35.600,-0.057,-0.063,0.972
2026/05/14 10:30:35.618,0.008,0.001,0.861
2026/05/14 10:30:35.637,0.005,-0.032,1.016
2026/05/14 10:30:35.656,0.021,-0.031,1.177
2026/05/14 10:30:35.674,0.004,-0.032,1.017
2026/05/14 10:30:35.693,-0.015,-0.025,0.973
2026/05/14 10:30:35.712,-0.012,-0.031,1.009
2026/05/14 10:30:35.730,-0.016,-0.026,0.989
2026/05/14 10:30:35.749,-0.011,-0.037,1.004
2026/05/14 10:30:35.768,-0.014,-0.033,0.999
2026/05/14 10:30:35.786,-0.013,-0.023,1.0
2026/05/14 10:30:35.805,-0.017,-0.027,1.008
2026/05/14 10:30:35.824,-0.016,-0.03,0.995
2026/05/14 10:30:35.842,-0.016,-0.033,0.99
2026/05/14 10:30:35.861,-0.019,-0.027,1.0
2026/05/14 10:30:35.880,-0.015,-0.033,1.0
2026/05/14 10:30:35.898,-0.112,0.135,0.764
2026/05/14 10:30:35.917,0.075,-0.149,1.143
2026/05/14 10:30:35.936,-0.02,0.001,0.929
2026/05/14 10:30:35.954,-0.023,-0.026,1.004
2026/05/14 10:30:35.973,-0.01,-0.037,1.0
2026/05/14 10:30:35.992,-0.016,-0.012,0.958
2026/05/14 10:30:36.010,-0.014,-0.035,1.016
2026/05/14 10:30:36.029,-0.008,-0.034,1.002
2026/05/14 10:30:36.048,-0.006,-0.037,1.017
2026/05/14 10:30:36.066,-0.008,-0.036,0.99
2026/05/14 10:30:36.085,-0.017,-0.031,0.99
2026/05/14 10:30:36.104,-0.014,-0.042,1.063
2026/05/14 10:30:36.122,-0.003,-0.029,0.968
2026/05/14 10:30:36.141,-0.014,-0.025,0.99
2026/05/14 10:30:36.160,-0.051,0.088,0.354
2026/05/14 10:30:36.178,0.071,0.034,0.842
2026/05/14 10:30:36.197,-0.045,0.032,0.729
2026/05/14 10:30:36.216,-0.033,-0.114,1.231
2026/05/14 10:30:36.234,0.023,0.026,0.157
2026/05/14 10:30:36.253,-0.013,-0.047,0.976
2026/05/14 10:30:36.272,-0.014,-0.034,1.049
2026/05/14 10:30:36.290,-0.032,-0.052,1.075
2026/05/14 10:30:36.309,-0.021,-0.042,0.982
2026/05/14 10:30:36.328,-0.013,-0.031,0.965
2026/05/14 10:30:36.346,-0.006,-0.027,0.995
2026/05/14 10:30:36.365,-0.005,-0.034,1.021
2026/05/14 10:30:36.384,-0.021,-0.013,0.943
2026/05/14 10:30:36.403,-0.023,-0.016,0.97
2026/05/14 10:30:36.421,-0.023,-0.017,0.988
2026/05/14 10:30:36.440,-0.017,-0.02,1.001
2026/05/14 10:30:36.459,-0.012,-0.011,0.995
2026/05/14 10:30:36.477,-0.003,-0.022,0.992
2026/05/14 10:30:36.496,-0.001,-0.025,0.995
2026/05/14 10:30:36.515,-0.015,-0.047,1.032
2026/05/14 10:30:36.533,-0.013,-0.024,0.981
2026/05/14 10:30:36.552,-0.081,0.055,1.002
2026/05/14 10:30:36.571,-0.027,-0.003,0.929
2026/05/14 10:30:36.589,-0.025,-0.03,1.007
2026/05/14 10:30:36.608,-0.028,-0.049,1.062
2026/05/14 10:30:36.627,-0.016,-0.063,1.134
2026/05/14 10:30:36.645,-0.043,0.002,1.501
2026/05/14 10:30:36.664,-0.052,0.096,0.347
2026/05/14 10:30:36.683,-0.005,0.024,0.969
2026/05/14 10:30:36.701,-0.019,-0.098,1.193
2026/05/14 10:30:36.720,-0.085,0.105,0.378
2026/05/14 10:30:36.739,-0.003,0.074,0.757
2026/05/14 10:30:36.757,-0.044,-0.096,1.253
2026/05/14 10:30:36.776,-0.002,-0.067,1.033
2026/05/14 10:30:36.795,-0.015,-0.063,0.957
2026/05/14 10:30:36.813,-0.003,-0.038,1.008
2026/05/14 10:30:36.832,-0.034,-0.013,1.038
2026/05/14 10:30:36.851,-0.061,-0.054,1.175
2026/05/14 10:30:36.869,-0.019,-0.029,1.004
2026/05/14 10:30:36.888,-0.023,-0.023,0.989
2026/05/14 10:30:36.907,-0.021,-0.031,1.003
2026/05/14 10:30:36.925,-0.018,-0.018,0.995
2026/05/14 10:30:36.944,-0.008,-0.02,0.991
2026/05/14 10:30:36.963,-0.007,-0.027,1.01
2026/05/14 10:30:36.981,-0.008,-0.027,1.006
2026/05/14 10:30:37.000,-0.006,-0.026,0.999
2026/05/14 10:30:37.019,-0.017,-0.025,0.994
2026/05/14 10:30:37.037,-0.022,-0.03,0.991
2026/05/14 10:30:37.056,-0.019,-0.029,0.996
2026/05/14 10:30:37.075,-0.024,-0.033,1.004
2026/05/14 10:30:37.093,-0.018,-0.035,0.998
2026/05/14 10:30:37.112,-0.015,-0.036,0.995
2026/05/14 10:30:37.131,-0.019,-0.032,1.002
2026/05/14 10:30:37.149,-0.019,-0.027,0.999
2026/05/14 10:30:37.168,-0.011,-0.026,0.988
2026/05/14 10:30:37.187,-0.012,-0.026,1.002
2026/05/14 10:30:37.205,-0.011,-0.025,0.997
2026/05/14 10:30:37.224,-0.018,-0.027,1.001
2026/05/14 10:30:37.243,-0.018,-0.025,0.996
2026/05/14 10:30:37.262,-0.018,-0.026,0.994
2026/05/14 10:30:37.280,-0.016,-0.028,0.998
2026/05/14 10:30:37.299,-0.017,-0.029,0.995
2026/05/14 10:30:37.318,-0.015,-0.034,1.002
2026/05/14 10:30:37.336,-0.017,-0.032,1.001
2026/05/14 10:30:37.355,-0.015,-0.032,0.997
2026/05/14 10:30:37.374,-0.019,-0.029,1.001
2026/05/14 10:30:37.392,-0.019,-0.031,0.996
2026/05/14 10:30:37.411,-0.015,-0.028,0.997
2026/05/14 10:30:37.430,-0.013,-0.027,1.002
2026/05/14 10:30:37.448,-0.012,-0.031,1.004
2026/05/14 10:30:37.467,-0.015,-0.03,0.999
2026/05/14 10:30:37.486,-0.014,-0.025,0.997
2026/05/14 10:30:37.504,-0.015,-0.028,0.995
2026/05/14 10:30:37.523,-0.017,-0.031,0.997
2026/05/14 10:30:37.542,-0.014,-0.028,0.996
2026/05/14 10:30:37.560,-0.015,-0.029,1.0
2026/05/14 10:30:37.579,-0.017,-0.031,1.002
2026/05/14 10:30:37.598,-0.016,-0.031,0.997
2026/05/14 10:30:37.616,-0.019,-0.033,0.999
2026/05/14 10:30:37.635,-0.013,-0.031,0.998
2026/05/14 10:30:37.654,-0.011,-0.024,0.996
2026/05/14 10:30:37.672,-0.012,-0.03,0.996
2026/05/14 10:30:37.691,-0.014,-0.03,0.995
2026/05/14 10:30:37.710,-0.012,-0.028,0.994
2026/05/14 10:30:37.728,-0.016,-0.025,0.997
2026/05/14 10:30:37.747,-0.013,-0.028,0.999
2026/05/14 10:30:37.766,-0.015,-0.024,1.001
2026/05/14 10:30:37.784,-0.012,-0.027,0.999
2026/05/14 10:30:37.803,-0.019,-0.026,0.997
2026/05/14 10:30:37.822,-0.015,-0.026,0.998
2026/05/14 10:30:37.840,-0.014,-0.031,0.994
2026/05/14 10:30:37.859,-0.016,-0.028,0.999
2026/05/14 10:30:37.878,-0.015,-0.031,0.999
2026/05/14 10:30:37.896,-0.017,-0.032,1.001
2026/05/14 10:30:37.915,-0.015,-0.03,1.0
2026/05/14 10:30:37.934,-0.01,-0.028,0.997
2026/05/14 10:30:37.952,-0.013,-0.031,1.0
2026/05/14 10:30:37.971,-0.013,-0.031,0.999
2026/05/14 10:30:37.990,-0.012,-0.032,0.998
2026/05/14 10:30:38.008,-0.012,-0.027,0.994
2026/05/14 10:30:38.027,-0.016,-0.024,0.999
2026/05/14 10:30:38.046,-0.021,-0.027,1.001
2026/05/14 10:30:38.064,-0.016,-0.03,0.997
2026/05/14 10:30:38.083,-0.018,-0.03,0.994
2026/05/14 10:30:38.102,-0.019,-0.029,1.0
2026/05/14 10:30:38.120,-0.014,-0.035,0.999
2026/05/14 10:30:38.139,-0.012,-0.029,0.997
2026/05/14 10:30:38.158,-0.014,-0.031,0.996
2026/05/14 10:30:38.177,-0.014,-0.026,1.0
2026/05/14 10:30:38.195,-0.016,-0.03,0.994
2026/05/14 10:30:38.214,-0.014,-0.031,0.998
2026/05/14 10:30:38.233,-0.019,-0.028,1.002
2026/05/14 10:30:38.251,-0.012,-0.023,0.995
2026/05/14 10:30:38.270,-0.014,-0.029,0.995
2026/05/14 10:30:38.289,-0.018,-0.031,1.001
2026/05/14 10:30:38.307,-0.014,-0.033,0.995
2026/05/14 10:30:38.326,-0.016,-0.028,1.001
2026/05/14 10:30:38.345,-0.016,-0.028,0.997
2026/05/14 10:30:38.363,-0.014,-0.024,0.998
2026/05/14 10:30:38.382,-0.01,-0.027,1.0
2026/05/14 10:30:38.401,-0.015,-0.028,1.0
2026/05/14 10:30:38.419,-0.017,-0.032,1.001
2026/05/14 10:30:38.438,-0.012,-0.026,0.998
2026/05/14 10:30:38.457,-0.012,-0.026,0.998
2026/05/14 10:30:38.475,-0.016,-0.025,0.995
2026/05/14 10:30:38.494,-0.015,-0.028,1.0
2026/05/14 10:30:38.513,-0.012,-0.03,0.996
2026/05/14 10:30:38.531,-0.015,-0.025,0.998
2026/05/14 10:30:38.550,-0.018,-0.027,1.0
2026/05/14 10:30:38.569,-0.015,-0.034,0.997
2026/05/14 10:30:38.587,-0.016,-0.027,0.997
2026/05/14 10:30:38.606,-0.018,-0.028,1.001
2026/05/14 10:30:38.625,-0.014,-0.031,0.998
2026/05/14 10:30:38.643,-0.014,-0.034,1.002
2026/05/14 10:30:38.662,-0.015,-0.028,0.997
2026/05/14 10:30:38.681,-0.016,-0.024,0.995
2026/05/14 10:30:38.699,-0.016,-0.027,1.003
2026/05/14 10:30:38.718,-0.013,-0.025,1.001
2026/05/14 10:30:38.737,-0.015,-0.026,0.999
2026/05/14 10:30:38.755,-0.011,-0.032,0.998
2026/05/14 10:30:38.774,-0.011,-0.027,0.997
2026/05/14 10:30:38.793,-0.015,-0.028,1.0
2026/05/14 10:30:38.811,-0.012,-0.031,1.0
2026/05/14 10:30:38.830,-0.014,-0.029,0.995
2026/05/14 10:30:38.849,-0.015,-0.03,0.999
2026/05/14 10:30:38.867,-0.015,-0.03,0.996
2026/05/14 10:30:38.886,-0.018,-0.027,0.996
2026/05/14 10:30:38.905,-0.014,-0.032,0.998
2026/05/14 10:30:38.923,-0.013,-0.027,0.996
2026/05/14 10:30:38.942,-0.013,-0.029,0.995
2026/05/14 10:30:38.961,-0.014,-0.027,0.998
2026/05/14 10:30:38.979,-0.011,-0.025,0.999
2026/05/14 10:30:38.998,-0.016,-0.032,1.002
2026/05/14 10:30:39.017,-0.014,-0.025,0.998
2026/05/14 10:30:39.035,-0.011,-0.026,0.994
2026/05/14 10:30:39.054,-0.013,-0.034,0.999
2026/05/14 10:30:39.073,-0.017,-0.031,0.997
2026/05/14 10:30:39.092,-0.012,-0.03,1.0
2026/05/14 10:30:39.110,-0.018,-0.029,1.002
2026/05/14 10:30:39.129,-0.014,-0.028,0.993
2026/05/14 10:30:39.148,-0.015,-0.028,1.001
2026/05/14 10:30:39.166,-0.014,-0.03,0.996
2026/05/14 10:30:39.185,-0.015,-0.026,0.995
2026/05/14 10:30:39.204,-0.012,-0.03,0.997
2026/05/14 10:30:39.222,-0.016,-0.031,0.998
2026/05/14 10:30:39.241,-0.015,-0.031,1.0
2026/05/14 10:30:39.260,-0.015,-0.026,1.001
2026/05/14 10:30:39.278,-0.014,-0.027,0.998
2026/05/14 10:30:39.297,-0.013,-0.031,0.998
2026/05/14 10:30:39.316,-0.016,-0.032,0.994
2026/05/14 10:30:39.334,-0.016,-0.027,0.999
2026/05/14 10:30:39.353,-0.017,-0.028,1.001
2026/05/14 10:30:39.372,-0.014,-0.026,0.989
2026/05/14 10:30:39.390,-0.016,-0.031,0.994
2026/05/14 10:30:39.409,-0.021,-0.027,0.999
2026/05/14 10:30:39.428,-0.018,-0.027,0.995
2026/05/14 10:30:39.446,-0.015,-0.03,0.994
2026/05/14 10:30:39.465,-0.015,-0.027,0.993
2026/05/14 10:30:39.484,-0.014,-0.025,0.999
2026/05/14 10:30:39.502,-0.014,-0.031,0.996
2026/05/14 10:30:39.521,-0.015,-0.024,1.0
2026/05/14 10:30:39.540,-0.012,-0.026,0.998
2026/05/14 10:30:39.558,-0.018,-0.025,0.995
2026/05/14 10:30:39.577,-0.013,-0.031,0.994
2026/05/14 10:30:39.596,-0.013,-0.031,0.998
2026/05/14 10:30:39.614,-0.011,-0.032,0.998
2026/05/14 10:30:39.633,-0.016,-0.03,1.003
2026/05/14 10:30:39.652,-0.014,-0.032,0.998
2026/05/14 10:30:39.670,-0.017,-0.029,1.0
2026/05/14 10:30:39.689,-0.015,-0.033,0.999
2026/05/14 10:30:39.708,-0.014,-0.028,1.001
2026/05/14 10:30:39.726,-0.012,-0.029,0.996
2026/05/14 10:30:39.745,-0.014,-0.029,1.003
2026/05/14 10:30:39.764,-0.014,-0.027,0.998
2026/05/14 10:30:39.782,-0.017,-0.028,0.996
2026/05/14 10:30:39.801,-0.014,-0.028,1.003
2026/05/14 10:30:39.820,-0.015,-0.031,1.0
2026/05/14 10:30:39.838,-0.018,-0.03,0.997
2026/05/14 10:30:39.857,-0.016,-0.029,0.997
2026/05/14 10:30:39.876,-0.015,-0.031,0.998
2026/05/14 10:30:39.894,-0.012,-0.027,0.999
2026/05/14 10:30:39.913,-0.014,-0.029,1.0
2026/05/14 10:30:39.932,-0.016,-0.027,0.999
2026/05/14 10:30:39.950,-0.019,-0.03,0.994
2026/05/14 10:30:39.969,-0.014,-0.027,1.0
2026/05/14 10:30:39.988,-0.013,-0.029,1.001
2026/05/14 10:30:40.007,-0.015,-0.027,1.0
2026/05/14 10:30:40.025,-0.014,-0.03,1.003
2026/05/14 10:30:40.044,-0.016,-0.031,0.999
2026/05/14 10:30:40.063,-0.015,-0.023,0.999
2026/05/14 10:30:40.081,-0.019,-0.029,1.001
2026/05/14 10:30:40.100,-0.016,-0.026,0.999
2026/05/14 10:30:40.119,-0.015,-0.027,0.996
2026/05/14 10:30:40.137,-0.012,-0.032,0.993
2026/05/14 10:30:40.156,-0.012,-0.03,0.998
2026/05/14 10:30:40.175,-0.013,-0.026,0.996
2026/05/14 10:30:40.193,-0.012,-0.02,0.993
2026/05/14 10:30:40.212,-0.016,-0.026,0.995
2026/05/14 10:30:40.231,-0.015,-0.025,0.996
2026/05/14 10:30:40.249,-0.012,-0.028,0.991
2026/05/14 10:30:40.268,-0.018,-0.024,0.998
2026/05/14 10:30:40.287,-0.013,-0.025,0.999
2026/05/14 10:30:40.305,-0.017,-0.025,1.001
2026/05/14 10:30:40.324,-0.015,-0.029,1.0
2026/05/14 10:30:40.343,-0.016,-0.031,0.998
2026/05/14 10:30:40.361,-0.014,-0.028,0.999
2026/05/14 10:30:40.380,-0.015,-0.035,0.998
2026/05/14 10:30:40.399,-0.016,-0.035,1.001
2026/05/14 10:30:40.417,-0.012,-0.041,1.001
2026/05/14 10:30:40.436,-0.019,-0.039,0.997
2026/05/14 10:30:40.455,-0.019,-0.038,0.999
2026/05/14 10:30:40.473,-0.018,-0.039,1.003
2026/05/14 10:30:40.492,-0.022,-0.037,0.996
2026/05/14 10:30:40.511,-0.018,-0.031,0.995
2026/05/14 10:30:40.529,-0.017,-0.023,0.998
2026/05/14 10:30:40.548,-0.015,-0.021,1.0
2026/05/14 10:30:40.567,-0.011,-0.02,0.994
2026/05/14 10:30:40.585,-0.01,-0.02,0.998
2026/05/14 10:30:40.604,-0.004,-0.022,1.002
2026/05/14 10:30:40.623,-0.007,-0.025,0.996
2026/05/14 10:30:40.641,-0.01,-0.023,1.001
2026/05/14 10:30:40.660,-0.01,-0.027,0.998
2026/05/14 10:30:40.679,-0.016,-0.033,0.996
2026/05/14 10:30:40.697,-0.019,-0.035,0.999
2026/05/14 10:30:40.716,-0.019,-0.034,0.996
2026/05/14 10:30:40.735,-0.024,-0.035,1.0
2026/05/14 10:30:40.753,-0.023,-0.036,1.0
2026/05/14 10:30:40.772,-0.018,-0.033,1.0
2026/05/14 10:30:40.791,-0.013,-0.028,0.993
2026/05/14 10:30:40.809,-0.009,-0.027,1.004
2026/05/14 10:30:40.828,-0.01,-0.028,0.994
2026/05/14 10:30:40.847,-0.009,-0.023,0.999
2026/05/14 10:30:40.865,-0.012,-0.024,0.999
2026/05/14 10:30:40.884,-0.013,-0.023,0.993
2026/05/14 10:30:40.903,-0.017,-0.028,1.0
2026/05/14 10:30:40.922,-0.015,-0.022,0.996
2026/05/14 10:30:40.940,-0.018,-0.032,0.997
2026/05/14 10:30:40.959,-0.019,-0.034,0.996
2026/05/14 10:30:40.978,-0.018,-0.032,0.998
2026/05/14 10:30:40.996,-0.016,-0.034,0.997
2026/05/14 10:30:41.015,-0.017,-0.036,0.995
2026/05/14 10:30:41.034,-0.017,-0.033,0.999
2026/05/14 10:30:41.052,-0.015,-0.025,1.001
2026/05/14 10:30:41.071,-0.012,-0.025,0.997
2026/05/14 10:30:41.090,-0.015,-0.025,0.998
2026/05/14 10:30:41.108,-0.009,-0.03,0.999
2026/05/14 10:30:41.127,-0.009,-0.028,1.001
2026/05/14 10:30:41.146,-0.013,-0.032,1.0
2026/05/14 10:30:41.164,-0.015,-0.03,0.996
2026/05/14 10:30:41.183,-0.019,-0.031,0.997
2026/05/14 10:30:41.202,-0.022,-0.028,0.996
2026/05/14 10:30:41.220,-0.019,-0.03,0.997
2026/05/14 10:30:41.239,-0.02,-0.031,0.993
2026/05/14 10:30:41.258,-0.014,-0.032,1.0
2026/05/14 10:30:41.276,-0.015,-0.034,0.997
2026/05/14 10:30:41.295,-0.01,-0.034,0.998
2026/05/14 10:30:41.314,-0.015,-0.031,1.0
2026/05/14 10:30:41.332,-0.018,-0.032,0.999
2026/05/14 10:30:41.351,-0.019,-0.03,0.998
2026/05/14 10:30:41.370,-0.016,-0.035,0.996
2026/05/14 10:30:41.388,-0.009,-0.029,0.996
2026/05/14 10:30:41.407,-0.01,-0.024,1.002
2026/05/14 10:30:41.426,-0.006,-0.022,1.0
2026/05/14 10:30:41.444,-0.007,-0.022,1.0
2026/05/14 10:30:41.463,-0.01,-0.016,0.996
2026/05/14 10:30:41.482,-0.013,-0.028,0.998
2026/05/14 10:30:41.500,-0.017,-0.029,0.993
2026/05/14 10:30:41.519,-0.019,-0.03,1.001
2026/05/14 10:30:41.538,-0.022,-0.032,0.996
2026/05/14 10:30:41.556,-0.02,-0.039,0.996
2026/05/14 10:30:41.575,-0.021,-0.033,0.999
2026/05/14 10:30:41.594,-0.019,-0.032,0.994
2026/05/14 10:30:41.612,-0.022,-0.035,1.0
2026/05/14 10:30:41.631,-0.015,-0.03,1.001
2026/05/14 10:30:41.650,-0.012,-0.029,0.996
2026/05/14 10:30:41.668,-0.011,-0.023,0.995
2026/05/14 10:30:41.687,-0.005,-0.022,1.0
2026/05/14 10:30:41.706,-0.011,-0.026,0.996
2026/05/14 10:30:41.724,-0.017,-0.023,0.997
2026/05/14 10:30:41.743,-0.015,-0.03,1.0
2026/05/14 10:30:41.762,-0.016,-0.033,0.998
2026/05/14 10:30:41.780,-0.016,-0.031,0.999
2026/05/14 10:30:41.799,-0.015,-0.032,1.003
2026/05/14 10:30:41.818,-0.015,-0.034,1.001
2026/05/14 10:30:41.837,-0.014,-0.033,0.998
2026/05/14 10:30:41.855,-0.018,-0.038,0.997
2026/05/14 10:30:41.874,-0.015,-0.034,0.995
2026/05/14 10:30:41.893,-0.014,-0.03,0.996
2026/05/14 10:30:41.911,-0.016,-0.026,0.997
2026/05/14 10:30:41.930,-0.011,-0.023,1.0
2026/05/14 10:30:41.949,-0.011,-0.027,1.001
2026/05/14 10:30:41.967,-0.012,-0.024,0.997
2026/05/14 10:30:41.986,-0.013,-0.025,1.0
2026/05/14 10:30:42.005,-0.011,-0.034,0.995
2026/05/14 10:30:42.023,-0.01,-0.032,1.001
2026/05/14 10:30:42.042,-0.015,-0.029,0.998
2026/05/14 10:30:42.061,-0.016,-0.031,0.999
2026/05/14 10:30:42.079,-0.019,-0.029,0.997
2026/05/14 10:30:42.098,-0.017,-0.029,0.996
2026/05/14 10:30:42.117,-0.018,-0.032,0.997
2026/05/14 10:30:42.135,-0.016,-0.032,0.999
2026/05/14 10:30:42.154,-0.013,-0.029,1.0
2026/05/14 10:30:42.173,-0.013,-0.025,0.999
2026/05/14 10:30:42.191,-0.012,-0.024,0.999
2026/05/14 10:30:42.210,-0.011,-0.026,0.996
2026/05/14 10:30:42.229,-0.011,-0.03,0.998
2026/05/14 10:30:42.247,-0.015,-0.029,1.0
2026/05/14 10:30:42.266,-0.012,-0.027,0.994
2026/05/14 10:30:42.285,-0.017,-0.028,1.002
2026/05/14 10:30:42.303,-0.019,-0.028,1.0
2026/05/14 10:30:42.322,-0.017,-0.029,1.0
2026/05/14 10:30:42.341,-0.018,-0.033,1.002
2026/05/14 10:30:42.359,-0.019,-0.032,0.998
2026/05/14 10:30:42.378,-0.014,-0.034,1.0
2026/05/14 10:30:42.397,-0.017,-0.032,1.002
2026/05/14 10:30:42.415,-0.011,-0.029,0.997
2026/05/14 10:30:42.434,-0.016,-0.026,0.996
2026/05/14 10:30:42.453,-0.018,-0.026,0.993
2026/05/14 10:30:42.471,-0.017,-0.024,0.992
2026/05/14 10:30:42.490,-0.013,-0.027,0.999
2026/05/14 10:30:42.509,-0.01,-0.022,0.991
2026/05/14 10:30:42.527,-0.015,-0.026,1.002
2026/05/14 10:30:42.546,-0.017,-0.03,1.001
2026/05/14 10:30:42.565,-0.018,-0.029,0.999
2026/05/14 10:30:42.583,-0.014,-0.031,1.001
2026/05/14 10:30:42.602,-0.018,-0.031,1.004
2026/05/14 10:30:42.621,-0.016,-0.032,0.998
2026/05/14 10:30:42.639,-0.018,-0.035,0.993
2026/05/14 10:30:42.658,-0.013,-0.029,1.002
2026/05/14 10:30:42.677,-0.014,-0.027,0.996
2026/05/14 10:30:42.695,-0.012,-0.031,0.999
2026/05/14 10:30:42.714,-0.017,-0.028,0.997
2026/05/14 10:30:42.733,-0.013,-0.026,1.001
2026/05/14 10:30:42.751,-0.017,-0.027,0.999
2026/05/14 10:30:42.770,-0.011,-0.03,1.0
2026/05/14 10:30:42.789,-0.011,-0.029,0.999
2026/05/14 10:30:42.807,-0.015,-0.035,0.996
2026/05/14 10:30:42.826,-0.016,-0.031,0.995
2026/05/14 10:30:42.845,-0.015,-0.033,0.997
2026/05/14 10:30:42.864,-0.015,-0.031,0.997
2026/05/14 10:30:42.882,-0.016,-0.032,1.0
2026/05/14 10:30:42.901,-0.016,-0.029,0.998
2026/05/14 10:30:42.920,-0.015,-0.03,1.0
2026/05/14 10:30:42.938,-0.018,-0.027,0.997
2026/05/14 10:30:42.957,-0.012,-0.025,1.0
2026/05/14 10:30:42.976,-0.019,-0.028,0.998
2026/05/14 10:30:42.994,-0.015,-0.027,1.0
2026/05/14 10:30:43.013,-0.015,-0.025,0.999
2026/05/14 10:30:43.032,-0.014,-0.027,1.0
2026/05/14 10:30:43.050,-0.02,-0.028,0.997
2026/05/14 10:30:43.069,-0.019,-0.028,0.993
2026/05/14 10:30:43.088,-0.011,-0.033,1.002
2026/05/14 10:30:43.106,-0.01,-0.03,1.003
2026/05/14 10:30:43.125,-0.016,-0.029,1.0
2026/05/14 10:30:43.144,-0.018,-0.027,0.997
2026/05/14 10:30:43.162,-0.016,-0.027,0.998
2026/05/14 10:30:43.181,-0.019,-0.031,0.999
2026/05/14 10:30:43.200,-0.012,-0.033,1.0
2026/05/14 10:30:43.218,-0.012,-0.027,0.997
2026/05/14 10:30:43.237,-0.011,-0.028,1.0
2026/05/14 10:30:43.256,-0.01,-0.03,0.996
2026/05/14 10:30:43.274,-0.014,-0.024,0.997
2026/05/14 10:30:43.293,-0.014,-0.026,0.998
2026/05/14 10:30:43.312,-0.018,-0.028,0.999
2026/05/14 10:30:43.330,-0.012,-0.025,0.995
2026/05/14 10:30:43.349,-0.018,-0.033,1.002
2026/05/14 10:30:43.368,-0.012,-0.033,1.0
2026/05/14 10:30:43.386,-0.015,-0.032,1.002
2026/05/14 10:30:43.405,-0.019,-0.029,1.001
2026/05/14 10:30:43.424,-0.017,-0.03,0.994
2026/05/14 10:30:43.442,-0.013,-0.025,1.0
2026/05/14 10:30:43.461,-0.01,-0.025,1.0
2026/05/14 10:30:43.480,-0.013,-0.028,0.999
2026/05/14 10:30:43.498,-0.014,-0.026,0.994
2026/05/14 10:30:43.517,-0.013,-0.028,0.995
2026/05/14 10:30:43.536,-0.014,-0.029,1.001
2026/05/14 10:30:43.554,-0.014,-0.027,0.997
2026/05/14 10:30:43.573,-0.014,-0.027,1.001
2026/05/14 10:30:43.592,-0.018,-0.03,1.0
2026/05/14 10:30:43.610,-0.014,-0.028,0.994
2026/05/14 10:30:43.629,-0.019,-0.033,0.997
2026/05/14 10:30:43.648,-0.017,-0.026,0.991
2026/05/14 10:30:43.666,-0.016,-0.029,1.002
2026/05/14 10:30:43.685,-0.016,-0.03,0.995
2026/05/14 10:30:43.704,-0.013,-0.031,0.998
2026/05/14 10:30:43.722,-0.015,-0.03,0.997
2026/05/14 10:30:43.741,-0.015,-0.028,0.995
2026/05/14 10:30:43.760,-0.016,-0.026,0.996
2026/05/14 10:30:43.778,-0.009,-0.03,0.998
2026/05/14 10:30:43.797,-0.018,-0.029,0.995
2026/05/14 10:30:43.816,-0.015,-0.032,0.996
2026/05/14 10:30:43.834,-0.017,-0.033,0.999
2026/05/14 10:30:43.853,-0.017,-0.027,1.002
2026/05/14 10:30:43.872,-0.013,-0.026,0.999
2026/05/14 10:30:43.891,-0.016,-0.029,0.998
2026/05/14 10:30:43.909,-0.015,-0.032,0.997
2026/05/14 10:30:43.928,-0.017,-0.027,1.0
2026/05/14 10:30:43.947,-0.012,-0.024,0.996
2026/05/14 10:30:43.965,-0.016,-0.027,1.0
2026/05/14 10:30:43.984,-0.011,-0.031,0.997
2026/05/14 10:30:44.003,-0.011,-0.031,1.0
2026/05/14 10:30:44.021,-0.009,-0.029,1.0
2026/05/14 10:30:44.040,-0.014,-0.031,0.997
2026/05/14 10:30:44.059,-0.015,-0.032,0.997
2026/05/14 10:30:44.077,-0.015,-0.025,0.997
2026/05/14 10:30:44.096,-0.012,-0.03,1.0
2026/05/14 10:30:44.115,-0.014,-0.029,0.997
2026/05/14 10:30:44.133,-0.016,-0.033,0.999
2026/05/14 10:30:44.152,-0.015,-0.028,1.0
2026/05/14 10:30:44.171,-0.013,-0.032,0.999
2026/05/14 10:30:44.189,-0.014,-0.026,0.995
2026/05/14 10:30:44.208,-0.017,-0.023,0.998
2026/05/14 10:30:44.227,-0.017,-0.029,0.999
2026/05/14 10:30:44.245,-0.014,-0.024,1.0
2026/05/14 10:30:44.264,-0.014,-0.028,1.003
2026/05/14 10:30:44.283,-0.015,-0.031,0.999
2026/05/14 10:30:44.301,-0.011,-0.031,0.994
2026/05/14 10:30:44.320,-0.017,-0.028,1.002
2026/05/14 10:30:44.339,-0.015,-0.028,1.001
2026/05/14 10:30:44.357,-0.014,-0.029,1.001
2026/05/14 10:30:44.376,-0.014,-0.029,0.998
2026/05/14 10:30:44.395,-0.016,-0.033,1.001
2026/05/14 10:30:44.413,-0.014,-0.029,0.996
2026/05/14 10:30:44.432,-0.01,-0.012,1.02
2026/05/14 10:30:44.451,-0.021,-0.026,1.005
2026/05/14 10:30:44.469,0.046,0.017,1.007
2026/05/14 10:30:44.488,0.02,0.083,0.807
2026/05/14 10:30:44.507,0.023,-0.025,1.261
2026/05/14 10:30:44.525,0.133,0.083,0.577
2026/05/14 10:30:44.544,0.04,0.012,1.0
2026/05/14 10:30:44.563,0.012,-0.019,0.97
2026/05/14 10:30:44.581,-0.064,-0.096,1.091
2026/05/14 10:30:44.600,-0.039,-0.068,1.029
2026/05/14 10:30:44.619,-0.066,-0.043,0.995
2026/05/14 10:30:44.637,-0.077,-0.065,1.029
2026/05/14 10:30:44.656,-0.036,-0.053,1.056
2026/05/14 10:30:44.675,-0.037,-0.055,1.026
2026/05/14 10:30:44.693,-0.008,-0.033,0.983
2026/05/14 10:30:44.712,-0.01,-0.015,0.989
2026/05/14 10:30:44.731,0.004,-0.008,0.97
2026/05/14 10:30:44.749,0.013,-0.02,0.999
2026/05/14 10:30:44.768,0.009,-0.015,1.009
2026/05/14 10:30:44.787,0.011,0.004,0.959
2026/05/14 10:30:44.805,0.01,0.01,1.008
2026/05/14 10:30:44.824,-0.004,0.01,1.013
2026/05/14 10:30:44.843,-0.017,-0.01,0.994
2026/05/14 10:30:44.861,-0.036,-0.028,1.015
2026/05/14 10:30:44.880,-0.027,-0.047,1.006
2026/05/14 10:30:44.899,-0.024,-0.059,1.004
2026/05/14 10:30:44.918,-0.013,-0.058,1.007
2026/05/14 10:30:44.936,-0.018,-0.053,0.99
2026/05/14 10:30:44.955,-0.021,-0.044,1.003
2026/05/14 10:30:44.974,-0.028,-0.037,0.993
2026/05/14 10:30:44.992,-0.022,-0.027,0.99
2026/05/14 10:30:45.011,-0.014,-0.014,0.999
2026/05/14 10:30:45.030,0.0,-0.009,0.994
2026/05/14 10:30:45.048,0.007,-0.012,0.998
2026/05/14 10:30:45.067,0.009,-0.015,0.999
2026/05/14 10:30:45.086,0.003,-0.018,0.994
2026/05/14 10:30:45.104,-0.008,-0.017,0.995
2026/05/14 10:30:45.123,-0.017,-0.024,1.007
2026/05/14 10:30:45.142,-0.013,-0.023,0.993
2026/05/14 10:30:45.160,-0.019,-0.036,1.003
2026/05/14 10:30:45.179,-0.025,-0.041,0.999
2026/05/14 10:30:45.198,-0.032,-0.045,0.994
2026/05/14 10:30:45.216,-0.035,-0.048,1.0
2026/05/14 10:30:45.235,-0.024,-0.046,0.995
2026/05/14 10:30:45.254,-0.02,-0.033,0.999
2026/05/14 10:30:45.272,-0.007,-0.024,0.998
2026/05/14 10:30:45.291,-0.002,-0.015,0.999
2026/05/14 10:30:45.310,0.003,-0.016,1.001
2026/05/14 10:30:45.328,-0.003,-0.017,0.995
2026/05/14 10:30:45.347,-0.005,-0.014,0.991
2026/05/14 10:30:45.366,-0.012,-0.019,1.004
2026/05/14 10:30:45.384,-0.015,-0.02,0.991
2026/05/14 10:30:45.403,-0.011,-0.025,0.995
2026/05/14 10:30:45.422,-0.012,-0.034,1.002
2026/05/14 10:30:45.440,-0.018,-0.038,0.996
2026/05/14 10:30:45.459,-0.023,-0.047,0.993
2026/05/14 10:30:45.478,-0.028,-0.046,0.997
2026/05/14 10:30:45.496,-0.027,-0.04,1.0
2026/05/14 10:30:45.515,-0.019,-0.03,0.995
2026/05/14 10:30:45.534,-0.011,-0.019,0.995
2026/05/14 10:30:45.552,-0.007,-0.021,0.999
2026/05/14 10:30:45.571,-0.001,-0.025,0.996
2026/05/14 10:30:45.590,-0.004,-0.021,1.001
2026/05/14 10:30:45.608,-0.006,-0.021,0.998
2026/05/14 10:30:45.627,-0.006,-0.02,1.001
2026/05/14 10:30:45.646,-0.008,-0.024,0.997
2026/05/14 10:30:45.664,-0.014,-0.028,1.004
2026/05/14 10:30:45.683,-0.019,-0.031,0.998
2026/05/14 10:30:45.702,-0.023,-0.039,0.995
2026/05/14 10:30:45.720,-0.027,-0.037,0.996
2026/05/14 10:30:45.739,-0.027,-0.039,0.998
2026/05/14 10:30:45.758,-0.015,-0.035,1.001
2026/05/14 10:30:45.776,-0.012,-0.027,1.0
2026/05/14 10:30:45.795,-0.005,-0.024,0.997
2026/05/14 10:30:45.814,-0.01,-0.022,0.998
2026/05/14 10:30:45.832,-0.013,-0.019,0.994
2026/05/14 10:30:45.851,-0.01,-0.018,0.999
2026/05/14 10:30:45.870,-0.009,-0.023,0.999
2026/05/14 10:30:45.889,-0.009,-0.026,1.003
2026/05/14 10:30:45.907,-0.008,-0.031,1.002
2026/05/14 10:30:45.926,-0.017,-0.034,1.001
2026/05/14 10:30:45.945,-0.022,-0.039,1.0
2026/05/14 10:30:45.963,-0.023,-0.038,0.998
2026/05/14 10:30:45.982,-0.023,-0.035,0.998
2026/05/14 10:30:46.001,-0.017,-0.036,1.003
2026/05/14 10:30:46.019,-0.023,0.152,0.229
2026/05/14 10:30:46.038,-0.017,0.033,0.89
2026/05/14 10:30:46.057,-0.005,-0.024,1.009
2026/05/14 10:30:46.075,0.012,-0.017,0.997
2026/05/14 10:30:46.094,0.007,-0.015,1.046
2026/05/14 10:30:46.113,-0.018,-0.016,1.004
2026/05/14 10:30:46.131,-0.018,-0.035,1.021
2026/05/14 10:30:46.150,-0.029,-0.03,1.006
2026/05/14 10:30:46.169,-0.022,-0.035,1.015
2026/05/14 10:30:46.187,-0.01,-0.068,1.071
2026/05/14 10:30:46.206,-0.042,-0.061,1.016
2026/05/14 10:30:46.225,-0.018,-0.049,1.066
2026/05/14 10:30:46.243,-0.025,-0.028,0.998
2026/05/14 10:30:46.262,-0.022,-0.025,0.974
2026/05/14 10:30:46.281,-0.021,-0.027,1.057
2026/05/14 10:30:46.299,-0.041,0.022,0.924
2026/05/14 10:30:46.318,-0.003,-0.009,0.995
2026/05/14 10:30:46.337,-0.021,-0.003,0.963
2026/05/14 10:30:46.355,-0.014,-0.021,1.008
2026/05/14 10:30:46.374,-0.005,-0.03,1.0
2026/05/14 10:30:46.393,-0.015,-0.031,0.997
2026/05/14 10:30:46.411,-0.014,-0.032,1.012
2026/05/14 10:30:46.430,-0.019,-0.033,0.995
2026/05/14 10:30:46.449,-0.018,-0.037,0.996
2026/05/14 10:30:46.467,-0.027,-0.037,0.991
2026/05/14 10:30:46.486,-0.02,-0.038,1.003
2026/05/14 10:30:46.505,-0.018,-0.032,0.991
2026/05/14 10:30:46.523,-0.015,-0.024,0.989
2026/05/14 10:30:46.542,0.002,-0.021,1.007
2026/05/14 10:30:46.561,-0.008,-0.02,1.008
2026/05/14 10:30:46.579,-0.008,-0.025,1.0
2026/05/14 10:30:46.598,-0.011,-0.082,1.101
2026/05/14 10:30:46.617,-0.024,-0.023,1.028
2026/05/14 10:30:46.635,-0.019,-0.025,1.022
2026/05/14 10:30:46.654,-0.012,-0.024,0.972
2026/05/14 10:30:46.673,-0.006,-0.031,1.005
2026/05/14 10:30:46.691,-0.007,-0.033,1.01
2026/05/14 10:30:46.710,-0.022,-0.035,1.066
2026/05/14 10:30:46.729,-0.024,-0.04,1.006
2026/05/14 10:30:46.747,-0.022,-0.03,1.002
2026/05/14 10:30:46.766,-0.008,-0.03,0.987
2026/05/14 10:30:46.785,-0.017,-0.031,0.997
2026/05/14 10:30:46.804,-0.013,-0.023,1.004
2026/05/14 10:30:46.822,-0.016,-0.026,0.994
2026/05/14 10:30:46.841,-0.015,-0.03,0.998
2026/05/14 10:30:46.860,-0.008,-0.024,0.999
2026/05/14 10:30:46.878,-0.007,-0.02,0.995
2026/05/14 10:30:46.897,-0.005,-0.024,0.997
2026/05/14 10:30:46.916,-0.01,-0.028,0.996
2026/05/14 10:30:46.934,-0.017,-0.024,1.0
2026/05/14 10:30:46.953,-0.02,-0.03,0.995
2026/05/14 10:30:46.972,-0.019,-0.032,0.996
2026/05/14 10:30:46.990,-0.016,-0.034,1.002
2026/05/14 10:30:47.009,-0.012,-0.033,0.999
2026/05/14 10:30:47.028,-0.012,-0.035,0.995
2026/05/14 10:30:47.046,-0.012,-0.031,1.0
2026/05/14 10:30:47.065,-0.015,-0.027,0.995
2026/05/14 10:30:47.084,-0.012,-0.018,0.998
2026/05/14 10:30:47.102,-0.014,-0.023,1.0
2026/05/14 10:30:47.121,-0.014,-0.024,0.998
2026/05/14 10:30:47.140,-0.03,-0.026,1.045
2026/05/14 10:30:47.158,-0.014,-0.027,1.001
2026/05/14 10:30:47.177,-0.013,-0.032,1.014
2026/05/14 10:30:47.196,-0.016,-0.035,0.978
2026/05/14 10:30:47.214,-0.013,-0.034,1.002
2026/05/14 10:30:47.233,-0.016,-0.035,1.0
2026/05/14 10:30:47.252,-0.057,-0.023,0.972
2026/05/14 10:30:47.270,-0.035,-0.028,1.009
2026/05/14 10:30:47.289,-0.013,-0.036,0.997
2026/05/14 10:30:47.308,-0.001,-0.023,0.998
2026/05/14 10:30:47.326,-0.009,-0.036,0.886
2026/05/14 10:30:47.345,-0.008,-0.02,0.995
2026/05/14 10:30:47.364,-0.054,0.047,1.094
2026/05/14 10:30:47.382,-0.035,0.0,0.913
2026/05/14 10:30:47.401,-0.062,-0.035,1.02
2026/05/14 10:30:47.420,-0.033,-0.013,0.972
2026/05/14 10:30:47.438,-0.035,-0.022,1.018
2026/05/14 10:30:47.457,-0.011,-0.023,0.969
2026/05/14 10:30:47.476,0.039,-0.026,0.998
2026/05/14 10:30:47.494,-0.024,-0.039,1.042
2026/05/14 10:30:47.513,-0.015,-0.03,1.004
2026/05/14 10:30:47.532,-0.019,-0.03,1.007
2026/05/14 10:30:47.550,-0.012,-0.025,0.99
2026/05/14 10:30:47.569,-0.011,-0.026,1.0
2026/05/14 10:30:47.588,-0.014,-0.028,1.01
2026/05/14 10:30:47.606,-0.011,-0.027,0.989
2026/05/14 10:30:47.625,-0.043,-0.042,1.171
2026/05/14 10:30:47.644,-0.108,0.084,0.911
2026/05/14 10:30:47.662,0.0,-0.034,0.98
2026/05/14 10:30:47.681,-0.014,-0.031,0.989
2026/05/14 10:30:47.700,-0.014,-0.047,0.97
2026/05/14 10:30:47.718,-0.008,0.001,0.906
2026/05/14 10:30:47.737,-0.028,-0.03,1.01
2026/05/14 10:30:47.756,-0.029,0.109,1.132
2026/05/14 10:30:47.774,-0.01,-0.016,1.001
2026/05/14 10:30:47.793,-0.018,-0.013,1.001
2026/05/14 10:30:47.812,-0.006,-0.014,0.995
2026/05/14 10:30:47.831,-0.005,-0.037,0.996
2026/05/14 10:30:47.849,0.092,0.09,0.193
2026/05/14 10:30:47.868,-0.003,-0.052,1.168
2026/05/14 10:30:47.887,-0.018,-0.014,1.008
2026/05/14 10:30:47.905,-0.013,-0.006,0.937
2026/05/14 10:30:47.924,-0.026,-0.031,1.004
2026/05/14 10:30:47.943,-0.033,-0.013,0.969
2026/05/14 10:30:47.961,-0.014,-0.059,1.043
2026/05/14 10:30:47.980,-0.026,-0.049,1.008
2026/05/14 10:30:47.999,0.002,-0.057,1.003
2026/05/14 10:30:48.017,-0.015,-0.027,1.038
2026/05/14 10:30:48.036,-0.016,-0.031,1.014
2026/05/14 10:30:48.055,-0.008,-0.022,0.991
2026/05/14 10:30:48.073,-0.013,-0.018,0.998
2026/05/14 10:30:48.092,-0.01,-0.016,0.998
2026/05/14 10:30:48.111,-0.008,-0.022,1.003
2026/05/14 10:30:48.129,-0.004,-0.021,0.992
2026/05/14 10:30:48.148,-0.007,-0.03,0.997
2026/05/14 10:30:48.167,-0.016,-0.041,0.998
2026/05/14 10:30:48.185,-0.022,-0.04,0.998
2026/05/14 10:30:48.204,-0.027,-0.042,0.992
2026/05/14 10:30:48.223,-0.029,-0.036,0.993
2026/05/14 10:30:48.241,-0.029,-0.033,1.005
2026/05/14 10:30:48.260,-0.016,-0.025,0.994
2026/05/14 10:30:48.279,-0.015,-0.029,1.002
2026/05/14 10:30:48.297,-0.007,-0.029,1.002
2026/05/14 10:30:48.316,-0.006,-0.02,0.996
2026/05/14 10:30:48.335,-0.001,-0.017,0.995
2026/05/14 10:30:48.353,-0.004,-0.027,1.0
2026/05/14 10:30:48.372,-0.003,-0.023,1.005
2026/05/14 10:30:48.391,-0.013,-0.025,1.002
2026/05/14 10:30:48.409,-0.018,-0.027,0.998
2026/05/14 10:30:48.428,-0.021,-0.035,0.997
2026/05/14 10:30:48.447,-0.017,-0.035,0.997
2026/05/14 10:30:48.465,-0.006,-0.052,1.023
2026/05/14 10:30:48.484,-0.018,-0.038,1.005
2026/05/14 10:30:48.503,-0.041,-0.05,1.074
2026/05/14 10:30:48.521,-0.012,-0.038,1.018
2026/05/14 10:30:48.540,-0.01,-0.021,1.002
2026/05/14 10:30:48.559,0.001,-0.011,0.98
2026/05/14 10:30:48.577,-0.008,-0.018,1.0
2026/05/14 10:30:48.596,-0.006,-0.023,0.991
2026/05/14 10:30:48.615,-0.011,-0.03,0.995
2026/05/14 10:30:48.633,-0.006,-0.03,0.997
2026/05/14 10:30:48.652,-0.013,-0.03,1.0
2026/05/14 10:30:48.671,-0.018,-0.035,1.026
2026/05/14 10:30:48.689,-0.008,-0.049,1.039
2026/05/14 10:30:48.708,-0.022,-0.055,1.073
2026/05/14 10:30:48.727,-0.01,-0.037,1.011
2026/05/14 10:30:48.745,-0.007,0.031,0.815
2026/05/14 10:30:48.764,-0.09,0.114,0.579
2026/05/14 10:30:48.783,-0.012,-0.034,0.993
2026/05/14 10:30:48.801,-0.016,-0.063,1.051
2026/05/14 10:30:48.820,-0.038,0.043,0.98
2026/05/14 10:30:48.839,-0.028,-0.021,1.082
2026/05/14 10:30:48.857,-0.026,-0.075,1.067
2026/05/14 10:30:48.876,0.059,-0.066,0.767
2026/05/14 10:30:48.895,-0.018,-0.109,1.168
2026/05/14 10:30:48.914,-0.003,-0.002,0.951
2026/05/14 10:30:48.932,-0.066,-0.035,1.126
2026/05/14 10:30:48.951,-0.027,-0.124,1.298
2026/05/14 10:30:48.970,0.017,-0.024,0.871
2026/05/14 10:30:48.988,-0.066,-0.103,1.185
2026/05/14 10:30:49.007,-0.037,-0.05,1.075
2026/05/14 10:30:49.026,0.013,-0.051,1.061
2026/05/14 10:30:49.044,-0.032,-0.055,1.086
2026/05/14 10:30:49.063,-0.034,-0.022,0.974
2026/05/14 10:30:49.082,-0.004,-0.025,0.996
2026/05/14 10:30:49.100,-0.007,-0.02,0.981
2026/05/14 10:30:49.119,-0.013,-0.025,1.0
2026/05/14 10:30:49.138,-0.016,-0.026,0.992
2026/05/14 10:30:49.156,-0.016,-0.031,1.002
2026/05/14 10:30:49.175,-0.02,-0.032,0.998
2026/05/14 10:30:49.194,-0.014,-0.032,0.994
2026/05/14 10:30:49.212,-0.019,-0.03,0.999
2026/05/14 10:30:49.231,-0.013,-0.033,1.001
2026/05/14 10:30:49.250,-0.014,-0.027,1.0
2026/05/14 10:30:49.268,-0.014,-0.028,0.993
2026/05/14 10:30:49.287,-0.009,-0.026,0.996
2026/05/14 10:30:49.306,-0.012,-0.026,1.001
2026/05/14 10:30:49.324,-0.015,-0.025,0.997
2026/05/14 10:30:49.343,-0.011,-0.027,0.996
2026/05/14 10:30:49.362,-0.015,-0.025,1.004
2026/05/14 10:30:49.380,-0.02,-0.029,1.003
2026/05/14 10:30:49.399,-0.017,-0.031,1.002
2026/05/14 10:30:49.418,-0.014,-0.032,0.996
2026/05/14 10:30:49.436,-0.021,-0.025,1.008
2026/05/14 10:30:49.455,-0.032,-0.024,0.984
2026/05/14 10:30:49.474,0.046,-0.072,1.053
2026/05/14 10:30:49.492,-0.046,-0.032,0.949
2026/05/14 10:30:49.511,0.006,-0.052,1.059
2026/05/14 10:30:49.530,0.002,-0.055,0.986
2026/05/14 10:30:49.548,-0.01,-0.04,1.006
2026/05/14 10:30:49.567,-0.021,-0.034,1.011
2026/05/14 10:30:49.586,-0.028,-0.015,0.977
2026/05/14 10:30:49.604,-0.029,-0.019,0.999
2026/05/14 10:30:49.623,-0.028,-0.018,1.001
2026/05/14 10:30:49.642,-0.015,-0.024,0.984
2026/05/14 10:30:49.660,-0.001,-0.032,0.999
2026/05/14 10:30:49.679,0.008,-0.035,1.011
2026/05/14 10:30:49.698,-0.005,-0.034,1.005
2026/05/14 10:30:49.716,-0.009,-0.033,0.998
2026/05/14 10:30:49.735,-0.024,-0.028,0.997
2026/05/14 10:30:49.754,-0.042,-0.028,0.993
2026/05/14 10:30:49.772,-0.029,-0.019,0.969
2026/05/14 10:30:49.791,-0.019,-0.03,1.004
2026/05/14 10:30:49.810,-0.015,-0.031,1.007
2026/05/14 10:30:49.829,-0.005,-0.035,0.999
2026/05/14 10:30:49.847,-0.009,-0.036,1.001
2026/05/14 10:30:49.866,-0.008,-0.031,1.0
2026/05/14 10:30:49.885,-0.011,-0.028,1.004
2026/05/14 10:30:49.903,-0.011,-0.018,0.997
2026/05/14 10:30:49.922,-0.015,-0.016,0.991
2026/05/14 10:30:49.941,-0.012,-0.024,1.001
2026/05/14 10:30:49.959,-0.01,-0.053,1.093
2026/05/14 10:30:49.978,-0.011,-0.047,0.964
2026/05/14 10:30:49.997,-0.017,-0.044,0.987
2026/05/14 10:30:50.015,-0.017,-0.042,0.996
2026/05/14 10:30:50.034,-0.022,-0.057,0.976
2026/05/14 10:30:50.053,-0.024,-0.049,0.993
2026/05/14 10:30:50.071,-0.028,-0.019,0.985
2026/05/14 10:30:50.090,-0.019,-0.023,0.994
2026/05/14 10:30:50.109,-0.015,-0.032,0.995
2026/05/14 10:30:50.127,-0.007,-0.015,0.983
2026/05/14 10:30:50.146,-0.005,-0.017,1.006
2026/05/14 10:30:50.165,0.002,-0.024,1.007
2026/05/14 10:30:50.183,-0.004,-0.041,1.012
2026/05/14 10:30:50.202,-0.03,-0.034,0.953
2026/05/14 10:30:50.221,-0.01,-0.054,0.942
2026/05/14 10:30:50.239,-0.007,-0.054,1.102
2026/05/14 10:30:50.258,0.012,-0.028,0.947
2026/05/14 10:30:50.277,-0.027,-0.066,1.039
2026/05/14 10:30:50.295,-0.168,-0.258,0.95
2026/05/14 10:30:50.314,-0.043,0.002,1.036
2026/05/14 10:30:50.333,-0.004,-0.054,1.057
2026/05/14 10:30:50.351,-0.026,-0.023,0.949
2026/05/14 10:30:50.370,-0.1,0.018,1.179
2026/05/14 10:30:50.389,-0.056,0.083,1.241
2026/05/14 10:30:50.407,0.029,-0.011,1.234
2026/05/14 10:30:50.426,0.092,0.004,1.052
2026/05/14 10:30:50.445,0.074,0.018,0.812
2026/05/14 10:30:50.463,0.0,-0.029,0.876
2026/05/14 10:30:50.482,-0.006,0.076,0.742
2026/05/14 10:30:50.501,-0.057,0.008,0.779
2026/05/14 10:30:50.519,-0.017,-0.009,0.721
2026/05/14 10:30:50.538,-0.007,-0.141,0.742
2026/05/14 10:30:50.557,0.023,-0.04,0.896
2026/05/14 10:30:50.575,0.01,0.114,1.013
2026/05/14 10:30:50.594,-0.041,0.118,1.037
2026/05/14 10:30:50.613,-0.045,0.147,0.482
2026/05/14 10:30:50.631,-0.259,0.074,0.89
2026/05/14 10:30:50.650,0.313,-0.058,2.143
2026/05/14 10:30:50.669,0.02,-0.009,0.669
2026/05/14 10:30:50.687,-0.137,0.031,1.056
2026/05/14 10:30:50.706,0.026,-0.022,0.919
2026/05/14 10:30:50.725,0.023,-0.068,0.96
2026/05/14 10:30:50.744,-0.034,-0.086,1.524
2026/05/14 10:30:50.762,-0.059,-0.01,1.299
2026/05/14 10:30:50.781,-0.032,0.0,1.144
2026/05/14 10:30:50.800,0.033,-0.048,1.014
2026/05/14 10:30:50.818,0.09,0.039,0.618
2026/05/14 10:30:50.837,0.066,0.068,0.246
2026/05/14 10:30:50.856,-0.013,-0.061,0.461
2026/05/14 10:30:50.874,-0.126,0.011,0.588
2026/05/14 10:30:50.893,0.094,0.101,0.828
2026/05/14 10:30:50.912,-0.02,-0.084,0.99
2026/05/14 10:30:50.930,0.032,-0.035,1.266
2026/05/14 10:30:50.949,0.108,0.226,-0.121
2026/05/14 10:30:50.968,0.028,0.048,-0.06
2026/05/14 10:30:50.986,0.209,-0.393,1.383
2026/05/14 10:30:51.005,0.244,-0.122,1.141
2026/05/14 10:30:51.024,0.113,-0.439,1.882
2026/05/14 10:30:51.042,0.047,-0.017,1.677
2026/05/14 10:30:51.061,-0.132,-0.093,1.326
2026/05/14 10:30:51.080,0.061,-0.003,0.962
2026/05/14 10:30:51.098,0.045,0.009,0.532
2026/05/14 10:30:51.117,0.029,0.004,0.593
2026/05/14 10:30:51.136,0.038,0.115,0.519
2026/05/14 10:30:51.154,0.048,0.094,0.582
2026/05/14 10:30:51.173,0.131,-0.014,0.448
2026/05/14 10:30:51.192,0.06,-0.149,0.719
2026/05/14 10:30:51.210,-0.026,-0.094,0.99
2026/05/14 10:30:51.229,0.087,0.151,-0.134
2026/05/14 10:30:51.248,-0.356,-0.368,5.052
2026/05/14 10:30:51.266,0.732,-0.285,1.431
2026/05/14 10:30:51.285,-0.006,0.003,-0.106
2026/05/14 10:30:51.304,0.011,0.175,0.678
2026/05/14 10:30:51.322,0.009,-0.398,1.678
2026/05/14 10:30:51.341,-0.04,0.06,1.216
2026/05/14 10:30:51.360,0.109,-0.15,1.111
2026/05/14 10:30:51.378,0.09,0.052,0.678
2026/05/14 10:30:51.397,0.009,0.019,0.728
2026/05/14 10:30:51.416,0.043,0.127,0.372
2026/05/14 10:30:51.434,0.016,0.106,0.328
2026/05/14 10:30:51.453,0.092,-0.056,0.418
2026/05/14 10:30:51.472,0.069,-0.071,0.664
2026/05/14 10:30:51.490,0.378,0.136,1.001
2026/05/14 10:30:51.509,-0.229,0.175,1.305
2026/05/14 10:30:51.528,0.073,0.157,-0.111
2026/05/14 10:30:51.546,-0.005,-0.069,-0.029
2026/05/14 10:30:51.565,-0.007,-0.022,-0.069
2026/05/14 10:30:51.584,-0.005,-0.037,-0.192
2026/05/14 10:30:51.602,-0.787,-0.722,3.774
2026/05/14 10:30:51.621,0.169,0.002,1.236
2026/05/14 10:30:51.640,-0.157,-0.261,1.849
2026/05/14 10:30:51.658,-0.002,-0.061,0.805
2026/05/14 10:30:51.677,0.089,0.143,0.498
2026/05/14 10:30:51.696,0.005,-0.015,0.579
2026/05/14 10:30:51.714,-0.007,0.024,0.446
2026/05/14 10:30:51.733,0.015,0.062,0.383
2026/05/14 10:30:51.752,0.143,0.058,0.506
2026/05/14 10:30:51.770,0.127,-0.038,0.746
2026/05/14 10:30:51.789,0.08,-0.138,0.848
2026/05/14 10:30:51.808,0.013,0.042,-0.125
2026/05/14 10:30:51.827,0.029,0.066,-0.062
2026/05/14 10:30:51.845,0.27,-0.19,0.642
2026/05/14 10:30:51.864,-0.058,-0.115,1.32
2026/05/14 10:30:51.883,0.1,0.233,1.716
2026/05/14 10:30:51.901,-0.171,-0.225,1.822
2026/05/14 10:30:51.920,0.135,-0.051,1.202
2026/05/14 10:30:51.939,0.066,-0.269,1.547
2026/05/14 10:30:51.957,0.038,-0.021,0.576
2026/05/14 10:30:51.976,0.054,0.016,0.569
2026/05/14 10:30:51.995,0.018,0.094,0.588
2026/05/14 10:30:52.013,0.073,0.02,0.656
2026/05/14 10:30:52.032,0.14,0.015,0.652
2026/05/14 10:30:52.051,0.012,-0.057,0.592
2026/05/14 10:30:52.069,0.061,0.141,-0.081
2026/05/14 10:30:52.088,0.048,-0.001,-0.022
2026/05/14 10:30:52.107,0.002,0.006,-0.088
2026/05/14 10:30:52.125,0.046,0.129,0.399
2026/05/14 10:30:52.144,0.031,0.051,-0.075
2026/05/14 10:30:52.163,-0.058,-0.25,1.361
2026/05/14 10:30:52.181,-0.167,-0.096,1.209
2026/05/14 10:30:52.200,-0.017,0.031,0.669
2026/05/14 10:30:52.219,-0.076,-0.014,1.014
2026/05/14 10:30:52.237,-0.017,-0.001,1.015
2026/05/14 10:30:52.256,-0.034,-0.018,0.981
2026/05/14 10:30:52.275,0.019,0.031,1.001
2026/05/14 10:30:52.293,0.02,-0.015,1.021
2026/05/14 10:30:52.312,0.008,-0.015,1.003
2026/05/14 10:30:52.331,-0.011,-0.01,0.963
2026/05/14 10:30:52.349,-0.033,-0.042,1.022
2026/05/14 10:30:52.368,-0.037,-0.052,1.035
2026/05/14 10:30:52.387,-0.017,-0.031,1.024
2026/05/14 10:30:52.405,-0.023,-0.03,0.972
2026/05/14 10:30:52.424,-0.044,-0.062,0.995
2026/05/14 10:30:52.443,-0.065,-0.074,1.003
2026/05/14 10:30:52.461,-0.06,-0.084,1.007
2026/05/14 10:30:52.480,-0.039,-0.075,0.99
2026/05/14 10:30:52.499,-0.023,-0.051,1.002
2026/05/14 10:30:52.517,-0.016,-0.04,1.016
2026/05/14 10:30:52.536,-0.012,-0.014,1.008
2026/05/14 10:30:52.555,-0.013,-0.012,1.006
2026/05/14 10:30:52.573,-0.017,-0.012,1.012
2026/05/14 10:30:52.592,-0.023,-0.014,0.974
2026/05/14 10:30:52.611,-0.02,-0.025,1.003
2026/05/14 10:30:52.629,-0.015,-0.014,0.992
2026/05/14 10:30:52.648,-0.008,-0.019,1.006
2026/05/14 10:30:52.667,-0.013,-0.021,0.978
2026/05/14 10:30:52.685,-0.027,-0.051,0.998
2026/05/14 10:30:52.704,-0.037,-0.056,1.0
2026/05/14 10:30:52.723,-0.042,-0.063,0.991
2026/05/14 10:30:52.742,-0.044,-0.061,0.999
2026/05/14 10:30:52.760,-0.039,-0.048,0.997
2026/05/14 10:30:52.779,-0.03,-0.038,1.001
2026/05/14 10:30:52.798,-0.028,-0.031,0.998
2026/05/14 10:30:52.816,-0.022,-0.028,0.993
2026/05/14 10:30:52.835,-0.019,-0.03,0.999
2026/05/14 10:30:52.854,-0.011,-0.024,0.998
2026/05/14 10:30:52.872,-0.01,-0.018,1.003
2026/05/14 10:30:52.891,-0.011,-0.017,0.997
2026/05/14 10:30:52.910,-0.015,-0.021,0.999
2026/05/14 10:30:52.928,-0.03,-0.027,0.994
2026/05/14 10:30:52.947,-0.036,-0.035,1.004
2026/05/14 10:30:52.966,-0.036,-0.047,0.988
2026/05/14 10:30:52.984,-0.033,-0.053,1.001
2026/05/14 10:30:53.003,-0.034,-0.05,1.001
2026/05/14 10:30:53.022,-0.026,-0.052,0.998
2026/05/14 10:30:53.040,-0.03,-0.049,0.997
2026/05/14 10:30:53.059,-0.031,-0.041,0.995
2026/05/14 10:30:53.078,-0.029,-0.03,0.999
2026/05/14 10:30:53.096,-0.022,-0.024,0.999
2026/05/14 10:30:53.115,-0.019,-0.022,0.994
2026/05/14 10:30:53.134,-0.019,-0.02,0.991
2026/05/14 10:30:53.152,-0.017,-0.023,1.0
2026/05/14 10:30:53.171,-0.017,-0.023,0.999
2026/05/14 10:30:53.190,-0.026,-0.03,0.997
2026/05/14 10:30:53.208,-0.026,-0.038,1.005
2026/05/14 10:30:53.227,-0.026,-0.041,0.998
2026/05/14 10:30:53.246,-0.031,-0.036,1.0
2026/05/14 10:30:53.264,-0.036,-0.047,1.0
2026/05/14 10:30:53.283,-0.039,-0.049,0.991
2026/05/14 10:30:53.302,-0.039,-0.047,0.997
2026/05/14 10:30:53.320,-0.033,-0.045,0.999
2026/05/14 10:30:53.339,-0.025,-0.035,0.997
2026/05/14 10:30:53.358,-0.019,-0.031,1.001
2026/05/14 10:30:53.376,-0.017,-0.024,0.999
2026/05/14 10:30:53.395,-0.016,-0.026,1.0
2026/05/14 10:30:53.414,-0.022,-0.025,0.993
2026/05/14 10:30:53.432,-0.02,-0.03,1.001
2026/05/14 10:30:53.451,-0.024,-0.03,0.998
2026/05/14 10:30:53.470,-0.021,-0.032,0.996
2026/05/14 10:30:53.488,-0.027,-0.039,1.003
2026/05/14 10:30:53.507,-0.029,-0.044,0.998
2026/05/14 10:30:53.526,-0.035,-0.047,1.003
2026/05/14 10:30:53.544,-0.032,-0.045,1.0
2026/05/14 10:30:53.563,-0.031,-0.046,0.999
2026/05/14 10:30:53.582,-0.027,-0.036,0.999
2026/05/14 10:30:53.601,-0.025,-0.033,0.998
2026/05/14 10:30:53.619,-0.02,-0.026,0.999
2026/05/14 10:30:53.638,-0.022,-0.032,0.998
2026/05/14 10:30:53.657,-0.022,-0.028,0.995
2026/05/14 10:30:53.675,-0.017,-0.028,0.998
2026/05/14 10:30:53.694,-0.022,-0.031,0.997
2026/05/14 10:30:53.713,-0.022,-0.031,0.996
2026/05/14 10:30:53.731,-0.023,-0.032,0.999
2026/05/14 10:30:53.750,-0.032,-0.037,0.995
2026/05/14 10:30:53.769,-0.03,-0.039,1.001
2026/05/14 10:30:53.787,-0.03,-0.04,0.998
2026/05/14 10:30:53.806,-0.037,-0.046,1.002
2026/05/14 10:30:53.825,-0.03,-0.045,0.999
2026/05/14 10:30:53.843,-0.026,-0.038,0.999
2026/05/14 10:30:53.862,-0.022,-0.033,0.994
2026/05/14 10:30:53.881,-0.025,-0.029,1.0
2026/05/14 10:30:53.899,-0.022,-0.026,0.997
2026/05/14 10:30:53.918,-0.023,-0.028,0.997
2026/05/14 10:30:53.937,-0.02,-0.03,0.998
2026/05/14 10:30:53.955,-0.022,-0.028,0.998
2026/05/14 10:30:53.974,-0.025,-0.028,0.999
2026/05/14 10:30:53.993,-0.028,-0.033,1.0
2026/05/14 10:30:54.011,-0.03,-0.037,0.999
2026/05/14 10:30:54.030,-0.026,-0.04,0.997
2026/05/14 10:30:54.049,-0.026,-0.041,0.997
2026/05/14 10:30:54.067,-0.028,-0.035,0.994
2026/05/14 10:30:54.086,-0.026,-0.038,0.993
2026/05/14 10:30:54.105,-0.029,-0.04,0.994
2026/05/14 10:30:54.123,-0.022,-0.036,1.001
2026/05/14 10:30:54.142,-0.022,-0.032,0.996
2026/05/14 10:30:54.161,-0.025,-0.034,0.996
2026/05/14 10:30:54.179,-0.021,-0.035,0.994
2026/05/14 10:30:54.198,-0.025,-0.032,0.998
2026/05/14 10:30:54.217,-0.02,-0.032,0.999
2026/05/14 10:30:54.235,-0.024,-0.033,0.998
2026/05/14 10:30:54.254,-0.026,-0.035,0.999
2026/05/14 10:30:54.273,-0.031,-0.037,1.0
2026/05/14 10:30:54.291,-0.027,-0.039,0.998
2026/05/14 10:30:54.310,-0.033,-0.044,0.996
2026/05/14 10:30:54.329,-0.028,-0.037,1.002
2026/05/14 10:30:54.347,-0.023,-0.038,0.995
2026/05/14 10:30:54.366,-0.029,-0.035,1.002
2026/05/14 10:30:54.385,-0.027,-0.032,0.998
2026/05/14 10:30:54.403,-0.028,-0.033,0.995
2026/05/14 10:30:54.422,-0.023,-0.034,0.997
2026/05/14 10:30:54.441,-0.024,-0.033,0.999
2026/05/14 10:30:54.459,-0.025,-0.031,0.998
2026/05/14 10:30:54.478,-0.025,-0.033,0.996
2026/05/14 10:30:54.497,-0.03,-0.033,0.999
2026/05/14 10:30:54.515,-0.031,-0.039,0.995
2026/05/14 10:30:54.534,-0.033,-0.035,0.997
2026/05/14 10:30:54.553,-0.033,-0.038,0.994
2026/05/14 10:30:54.572,-0.027,-0.037,1.001
2026/05/14 10:30:54.590,-0.034,-0.033,0.999
2026/05/14 10:30:54.609,-0.033,-0.039,0.996
2026/05/14 10:30:54.628,-0.018,-0.029,0.984
2026/05/14 10:30:54.646,0.023,-0.045,1.009
2026/05/14 10:30:54.665,0.003,-0.045,1.008
2026/05/14 10:30:54.684,-0.02,-0.044,0.995
2026/05/14 10:30:54.702,-0.056,-0.04,0.998
2026/05/14 10:30:54.721,-0.052,-0.046,1.004
2026/05/14 10:30:54.740,-0.054,-0.037,0.968
2026/05/14 10:30:54.758,-0.039,-0.007,1.003
2026/05/14 10:30:54.777,-0.02,0.006,0.999
2026/05/14 10:30:54.796,-0.005,-0.008,0.988
2026/05/14 10:30:54.814,-0.004,-0.028,1.008
2026/05/14 10:30:54.833,-0.007,-0.029,1.0
2026/05/14 10:30:54.852,-0.013,-0.045,0.999
2026/05/14 10:30:54.870,-0.017,-0.042,1.002
2026/05/14 10:30:54.889,-0.028,-0.035,0.996
2026/05/14 10:30:54.908,-0.033,-0.029,0.988
2026/05/14 10:30:54.926,-0.043,-0.039,1.011
2026/05/14 10:30:54.945,-0.046,-0.043,0.987
2026/05/14 10:30:54.964,-0.038,-0.056,0.997
2026/05/14 10:30:54.982,-0.032,-0.064,1.006
2026/05/14 10:30:55.001,-0.023,-0.044,0.994
2026/05/14 10:30:55.020,-0.014,-0.035,1.006
2026/05/14 10:30:55.038,-0.009,-0.031,0.998
2026/05/14 10:30:55.057,-0.009,-0.02,1.0
2026/05/14 10:30:55.076,-0.022,-0.018,0.992
2026/05/14 10:30:55.094,-0.029,-0.024,0.993
2026/05/14 10:30:55.113,-0.035,-0.024,0.988
2026/05/14 10:30:55.132,-0.033,-0.027,1.005
2026/05/14 10:30:55.150,-0.024,-0.023,0.992
2026/05/14 10:30:55.169,-0.023,-0.03,0.998
2026/05/14 10:30:55.188,-0.019,-0.034,1.001
2026/05/14 10:30:55.206,-0.014,-0.047,1.003
2026/05/14 10:30:55.225,-0.023,-0.058,0.997
2026/05/14 10:30:55.244,-0.031,-0.055,0.998
2026/05/14 10:30:55.262,-0.034,-0.046,1.0
2026/05/14 10:30:55.281,-0.037,-0.038,1.001
2026/05/14 10:30:55.300,-0.033,-0.034,0.997
2026/05/14 10:30:55.318,-0.031,-0.031,0.987
2026/05/14 10:30:55.337,-0.028,-0.032,1.003
2026/05/14 10:30:55.356,-0.017,-0.032,1.005
2026/05/14 10:30:55.374,-0.013,-0.034,0.994
2026/05/14 10:30:55.393,-0.012,-0.027,1.001
2026/05/14 10:30:55.412,-0.016,-0.027,0.996
2026/05/14 10:30:55.430,-0.02,-0.026,0.997
2026/05/14 10:30:55.449,-0.028,-0.026,1.0
2026/05/14 10:30:55.468,-0.034,-0.032,0.992
2026/05/14 10:30:55.487,-0.041,-0.032,0.999
2026/05/14 10:30:55.505,-0.035,-0.042,1.001
2026/05/14 10:30:55.524,-0.027,-0.046,0.996
2026/05/14 10:30:55.543,-0.02,-0.043,0.992
2026/05/14 10:30:55.561,-0.022,-0.045,1.006
2026/05/14 10:30:55.580,-0.025,-0.043,0.995
2026/05/14 10:30:55.599,-0.03,-0.036,1.0
2026/05/14 10:30:55.617,-0.03,-0.038,1.0
2026/05/14 10:30:55.636,-0.03,-0.025,0.993
2026/05/14 10:30:55.655,-0.026,-0.028,0.996
2026/05/14 10:30:55.673,-0.022,-0.027,0.998
2026/05/14 10:30:55.692,-0.023,-0.024,0.993
2026/05/14 10:30:55.711,-0.02,-0.03,1.002
2026/05/14 10:30:55.729,-0.019,-0.029,1.003
2026/05/14 10:30:55.748,-0.023,-0.029,0.995
2026/05/14 10:30:55.767,-0.029,-0.035,1.0
2026/05/14 10:30:55.785,-0.029,-0.036,0.996
2026/05/14 10:30:55.804,-0.03,-0.033,1.0
2026/05/14 10:30:55.823,-0.031,-0.042,1.003
2026/05/14 10:30:55.841,-0.031,-0.04,0.993
2026/05/14 10:30:55.860,-0.03,-0.044,1.001
2026/05/14 10:30:55.879,-0.023,-0.041,0.998
2026/05/14 10:30:55.897,-0.028,-0.033,1.0
2026/05/14 10:30:55.916,-0.024,-0.032,0.997
2026/05/14 10:30:55.935,-0.026,-0.03,0.996
2026/05/14 10:30:55.953,-0.027,-0.035,0.999
2026/05/14 10:30:55.972,-0.026,-0.026,0.997
2026/05/14 10:30:55.991,-0.025,-0.027,0.992
2026/05/14 10:30:56.009,-0.028,-0.034,1.001
2026/05/14 10:30:56.028,-0.023,-0.03,0.997
2026/05/14 10:30:56.047,-0.023,-0.033,0.999
2026/05/14 10:30:56.065,-0.025,-0.038,0.996
2026/05/14 10:30:56.084,-0.028,-0.042,0.996
2026/05/14 10:30:56.103,-0.027,-0.039,1.002
2026/05/14 10:30:56.121,-0.029,-0.041,1.0
2026/05/14 10:30:56.140,-0.031,-0.039,1.001
2026/05/14 10:30:56.159,-0.029,-0.041,0.994
2026/05/14 10:30:56.177,-0.027,-0.035,1.002
2026/05/14 10:30:56.196,-0.026,-0.036,1.0
2026/05/14 10:30:56.215,-0.03,-0.032,0.995
2026/05/14 10:30:56.233,-0.026,-0.032,0.998
2026/05/14 10:30:56.252,-0.023,-0.027,0.997
2026/05/14 10:30:56.271,-0.024,-0.028,0.994
2026/05/14 10:30:56.289,-0.023,-0.029,1.004
2026/05/14 10:30:56.308,-0.025,-0.034,0.996
2026/05/14 10:30:56.327,-0.026,-0.032,0.996
2026/05/14 10:30:56.346,-0.03,-0.035,0.997
2026/05/14 10:30:56.364,-0.027,-0.032,0.996
2026/05/14 10:30:56.383,-0.034,-0.04,0.994
2026/05/14 10:30:56.402,-0.025,-0.04,1.005
2026/05/14 10:30:56.420,-0.029,-0.038,0.999
2026/05/14 10:30:56.439,-0.024,-0.037,1.0
2026/05/14 10:30:56.458,-0.026,-0.037,1.0
2026/05/14 10:30:56.476,-0.026,-0.036,0.996
2026/05/14 10:30:56.495,-0.028,-0.035,0.997
2026/05/14 10:30:56.514,-0.025,-0.031,0.992
2026/05/14 10:30:56.532,-0.026,-0.032,0.997
2026/05/14 10:30:56.551,-0.028,-0.029,0.997
2026/05/14 10:30:56.570,-0.02,-0.032,0.996
2026/05/14 10:30:56.588,-0.022,-0.029,0.998
2026/05/14 10:30:56.607,-0.021,-0.034,0.999
2026/05/14 10:30:56.626,-0.024,-0.032,0.997
2026/05/14 10:30:56.644,-0.026,-0.031,1.0
2026/05/14 10:30:56.663,-0.03,-0.034,0.997
2026/05/14 10:30:56.682,-0.028,-0.038,0.998
2026/05/14 10:30:56.700,-0.025,-0.033,1.0
2026/05/14 10:30:56.719,-0.026,-0.035,0.999
2026/05/14 10:30:56.738,-0.024,-0.04,0.996
2026/05/14 10:30:56.756,-0.025,-0.036,1.0
2026/05/14 10:30:56.775,-0.025,-0.03,0.999
2026/05/14 10:30:56.794,-0.027,-0.032,0.998
2026/05/14 10:30:56.812,-0.026,-0.035,0.995
2026/05/14 10:30:56.831,-0.025,-0.033,1.001
2026/05/14 10:30:56.850,-0.026,-0.037,1.0
2026/05/14 10:30:56.868,-0.021,-0.028,0.999
2026/05/14 10:30:56.887,-0.022,-0.032,0.99
2026/05/14 10:30:56.906,-0.023,-0.031,0.998
2026/05/14 10:30:56.924,-0.029,-0.033,0.996
2026/05/14 10:30:56.943,-0.026,-0.034,0.997
2026/05/14 10:30:56.962,-0.023,-0.035,1.0
2026/05/14 10:30:56.980,-0.025,-0.037,0.999
2026/05/14 10:30:56.999,-0.025,-0.034,1.0
2026/05/14 10:30:57.018,-0.028,-0.033,0.995
2026/05/14 10:30:57.036,-0.025,-0.038,1.001
2026/05/14 10:30:57.055,-0.026,-0.035,0.994
2026/05/14 10:30:57.074,-0.025,-0.034,0.997
2026/05/14 10:30:57.093,-0.027,-0.035,0.998
2026/05/14 10:30:57.111,-0.022,-0.034,0.998
2026/05/14 10:30:57.130,-0.021,-0.033,1.001
2026/05/14 10:30:57.149,-0.023,-0.034,0.998
2026/05/14 10:30:57.167,-0.024,-0.029,0.995
2026/05/14 10:30:57.186,-0.022,-0.033,0.997
2026/05/14 10:30:57.205,-0.026,-0.033,1.0
2026/05/14 10:30:57.223,-0.027,-0.036,0.998
2026/05/14 10:30:57.242,-0.026,-0.039,0.999
2026/05/14 10:30:57.261,-0.028,-0.036,1.002
2026/05/14 10:30:57.279,-0.023,-0.036,0.998
2026/05/14 10:30:57.298,-0.026,-0.04,1.0
2026/05/14 10:30:57.317,-0.029,-0.04,0.996
2026/05/14 10:30:57.335,-0.027,-0.038,0.999
2026/05/14 10:30:57.354,-0.028,-0.034,1.0
2026/05/14 10:30:57.373,-0.026,-0.034,1.005
2026/05/14 10:30:57.391,-0.027,-0.035,0.999
2026/05/14 10:30:57.410,-0.029,-0.031,0.997
2026/05/14 10:30:57.429,-0.027,-0.033,1.003
2026/05/14 10:30:57.447,-0.027,-0.033,0.998
2026/05/14 10:30:57.466,-0.025,-0.034,0.999
2026/05/14 10:30:57.485,-0.025,-0.037,0.997
2026/05/14 10:30:57.503,-0.026,-0.032,0.999
2026/05/14 10:30:57.522,-0.03,-0.037,0.998
2026/05/14 10:30:57.541,-0.024,-0.035,0.999
2026/05/14 10:30:57.559,-0.026,-0.032,1.004
2026/05/14 10:30:57.578,-0.025,-0.04,0.999
2026/05/14 10:30:57.597,-0.024,-0.035,1.0
2026/05/14 10:30:57.615,-0.026,-0.033,0.998
2026/05/14 10:30:57.634,-0.023,-0.036,0.999
2026/05/14 10:30:57.653,-0.022,-0.033,0.997
2026/05/14 10:30:57.671,-0.025,-0.033,0.999
2026/05/14 10:30:57.690,-0.025,-0.035,0.996
2026/05/14 10:30:57.709,-0.028,-0.033,1.0
2026/05/14 10:30:57.727,-0.023,-0.034,1.0
2026/05/14 10:30:57.746,-0.024,-0.028,0.998
2026/05/14 10:30:57.765,-0.027,-0.035,0.997
2026/05/14 10:30:57.784,-0.026,-0.037,0.999
2026/05/14 10:30:57.802,-0.027,-0.036,0.999
2026/05/14 10:30:57.821,-0.026,-0.036,1.002
2026/05/14 10:30:57.840,-0.028,-0.035,0.999
2026/05/14 10:30:57.858,-0.028,-0.035,0.996
2026/05/14 10:30:57.877,-0.027,-0.037,1.001
2026/05/14 10:30:57.896,-0.021,-0.034,1.003
2026/05/14 10:30:57.914,-0.028,-0.033,0.996
2026/05/14 10:30:57.933,-0.022,-0.037,0.998
2026/05/14 10:30:57.952,-0.026,-0.036,0.996
2026/05/14 10:30:57.970,-0.027,-0.036,0.997
2026/05/14 10:30:57.989,-0.029,-0.033,0.999
2026/05/14 10:30:58.008,-0.027,-0.034,0.998
2026/05/14 10:30:58.026,-0.027,-0.033,1.0
2026/05/14 10:30:58.045,-0.024,-0.032,1.0
2026/05/14 10:30:58.064,-0.024,-0.033,0.996
2026/05/14 10:30:58.082,-0.023,-0.035,0.997
2026/05/14 10:30:58.101,-0.026,-0.032,1.001
2026/05/14 10:30:58.120,-0.024,-0.034,1.0
2026/05/14 10:30:58.138,-0.025,-0.035,0.998
2026/05/14 10:30:58.157,-0.025,-0.037,0.998
2026/05/14 10:30:58.176,-0.025,-0.035,0.998
2026/05/14 10:30:58.194,-0.027,-0.031,0.999
2026/05/14 10:30:58.213,-0.026,-0.034,0.998
2026/05/14 10:30:58.232,-0.026,-0.032,0.997
2026/05/14 10:30:58.250,-0.022,-0.036,1.0
2026/05/14 10:30:58.269,-0.023,-0.031,1.002
2026/05/14 10:30:58.288,-0.025,-0.035,0.998
2026/05/14 10:30:58.306,-0.029,-0.036,0.995
2026/05/14 10:30:58.325,-0.026,-0.033,0.998
