Timestamp,ACC X,ACC Y,ACC Z
2026/05/14 10:31:15.985,-0.013,0.038,1.001
2026/05/14 10:31:16.004,-0.014,0.04,0.993
2026/05/14 10:31:16.024,-0.012,0.035,0.996
2026/05/14 10:31:16.043,-0.009,0.034,0.998
2026/05/14 10:31:16.062,-0.009,0.039,0.998
2026/05/14 10:31:16.081,-0.015,0.04,0.998
2026/05/14 10:31:16.101,-0.007,0.039,0.993
2026/05/14 10:31:16.120,-0.011,0.041,0.996
2026/05/14 10:31:16.139,-0.01,0.035,0.997
2026/05/14 10:31:16.158,-0.018,0.041,0.997
2026/05/14 10:31:16.178,-0.012,0.039,0.996
2026/05/14 10:31:16.197,-0.015,0.04,0.997
2026/05/14 10:31:16.216,-0.014,0.039,1.0
2026/05/14 10:31:16.235,-0.013,0.036,0.995
2026/05/14 10:31:16.254,-0.009,0.038,0.995
2026/05/14 10:31:16.274,-0.011,0.039,1.001
2026/05/14 10:31:16.293,-0.012,0.035,0.996
2026/05/14 10:31:16.312,-0.014,0.036,1.0
2026/05/14 10:31:16.331,-0.014,0.037,0.997
2026/05/14 10:31:16.351,-0.011,0.04,0.995
2026/05/14 10:31:16.370,-0.011,0.039,0.996
2026/05/14 10:31:16.389,-0.009,0.036,0.998
2026/05/14 10:31:16.408,-0.01,0.036,0.996
2026/05/14 10:31:16.428,-0.013,0.038,0.999
2026/05/14 10:31:16.447,-0.009,0.034,0.995
2026/05/14 10:31:16.466,-0.009,0.037,1.0
2026/05/14 10:31:16.485,-0.01,0.035,0.999
2026/05/14 10:31:16.504,-0.012,0.036,0.998
2026/05/14 10:31:16.524,-0.013,0.038,0.995
2026/05/14 10:31:16.543,-0.011,0.035,0.997
2026/05/14 10:31:16.562,-0.01,0.039,0.995
2026/05/14 10:31:16.581,-0.014,0.033,0.998
2026/05/14 10:31:16.601,-0.01,0.034,0.999
2026/05/14 10:31:16.620,-0.011,0.036,0.997
2026/05/14 10:31:16.639,-0.008,0.036,0.995
2026/05/14 10:31:16.658,-0.013,0.035,1.0
2026/05/14 10:31:16.678,-0.011,0.038,0.997
2026/05/14 10:31:16.697,-0.01,0.039,1.001
2026/05/14 10:31:16.716,-0.012,0.036,0.998
2026/05/14 10:31:16.735,-0.011,0.041,0.999
2026/05/14 10:31:16.754,-0.009,0.033,1.003
2026/05/14 10:31:16.774,-0.011,0.035,0.998
2026/05/14 10:31:16.793,-0.011,0.038,0.997
2026/05/14 10:31:16.812,-0.015,0.034,0.997
2026/05/14 10:31:16.831,-0.011,0.038,0.996
2026/05/14 10:31:16.851,-0.013,0.038,0.995
2026/05/14 10:31:16.870,-0.013,0.037,0.998
2026/05/14 10:31:16.889,-0.011,0.035,0.995
2026/05/14 10:31:16.908,-0.011,0.036,0.999
2026/05/14 10:31:16.928,-0.012,0.041,0.994
2026/05/14 10:31:16.947,-0.013,0.037,0.998
2026/05/14 10:31:16.966,-0.012,0.038,0.999
2026/05/14 10:31:16.985,-0.011,0.037,0.994
2026/05/14 10:31:17.004,-0.01,0.039,0.997
2026/05/14 10:31:17.024,-0.009,0.037,0.994
2026/05/14 10:31:17.043,-0.009,0.038,0.997
2026/05/14 10:31:17.062,-0.011,0.037,0.998
2026/05/14 10:31:17.081,-0.011,0.037,1.003
2026/05/14 10:31:17.101,-0.011,0.041,0.995
2026/05/14 10:31:17.120,-0.011,0.036,0.994
2026/05/14 10:31:17.139,-0.014,0.04,1.0
2026/05/14 10:31:17.158,-0.011,0.041,1.0
2026/05/14 10:31:17.178,-0.014,0.038,0.997
2026/05/14 10:31:17.197,-0.009,0.037,0.997
2026/05/14 10:31:17.216,-0.01,0.041,0.999
2026/05/14 10:31:17.235,-0.009,0.034,0.995
2026/05/14 10:31:17.254,-0.009,0.038,0.998
2026/05/14 10:31:17.274,-0.009,0.036,0.998
2026/05/14 10:31:17.293,-0.007,0.038,0.999
2026/05/14 10:31:17.312,-0.011,0.037,0.994
2026/05/14 10:31:17.331,-0.012,0.037,0.999
2026/05/14 10:31:17.351,-0.01,0.037,0.995
2026/05/14 10:31:17.370,-0.01,0.039,0.996
2026/05/14 10:31:17.389,-0.01,0.042,0.996
2026/05/14 10:31:17.408,-0.009,0.035,0.999
2026/05/14 10:31:17.428,-0.011,0.039,0.997
2026/05/14 10:31:17.447,-0.014,0.033,0.999
2026/05/14 10:31:17.466,-0.007,0.041,0.998
2026/05/14 10:31:17.485,-0.007,0.038,0.996
2026/05/14 10:31:17.504,-0.008,0.04,0.996
2026/05/14 10:31:17.524,-0.01,0.04,0.995
2026/05/14 10:31:17.543,-0.013,0.039,0.998
2026/05/14 10:31:17.562,-0.01,0.036,0.995
2026/05/14 10:31:17.581,-0.013,0.034,0.999
2026/05/14 10:31:17.601,-0.01,0.034,0.999
2026/05/14 10:31:17.620,-0.013,0.033,0.998
2026/05/14 10:31:17.639,-0.011,0.036,0.999
2026/05/14 10:31:17.658,-0.015,0.04,1.0
2026/05/14 10:31:17.678,-0.01,0.037,1.0
2026/05/14 10:31:17.697,-0.01,0.037,0.996
2026/05/14 10:31:17.716,-0.013,0.034,0.996
2026/05/14 10:31:17.735,-0.009,0.039,1.001
2026/05/14 10:31:17.754,-0.012,0.035,0.996
2026/05/14 10:31:17.774,-0.013,0.036,0.998
2026/05/14 10:31:17.793,-0.012,0.035,1.002
2026/05/14 10:31:17.812,-0.011,0.037,1.001
2026/05/14 10:31:17.831,-0.012,0.038,1.002
2026/05/14 10:31:17.851,-0.009,0.038,0.996
2026/05/14 10:31:17.870,-0.011,0.038,1.0
2026/05/14 10:31:17.889,-0.01,0.035,0.997
2026/05/14 10:31:17.908,-0.01,0.039,0.994
2026/05/14 10:31:17.928,-0.01,0.036,0.994
2026/05/14 10:31:17.947,-0.013,0.035,0.996
2026/05/14 10:31:17.966,-0.011,0.036,0.996
2026/05/14 10:31:17.985,-0.012,0.039,0.999
2026/05/14 10:31:18.004,-0.005,0.039,0.995
2026/05/14 10:31:18.024,-0.012,0.035,0.998
2026/05/14 10:31:18.043,-0.009,0.038,0.997
2026/05/14 10:31:18.062,-0.009,0.036,0.999
2026/05/14 10:31:18.081,-0.011,0.038,0.998
2026/05/14 10:31:18.101,-0.013,0.034,0.998
2026/05/14 10:31:18.120,-0.014,0.038,0.997
2026/05/14 10:31:18.139,-0.015,0.037,0.999
2026/05/14 10:31:18.158,-0.013,0.038,0.996
2026/05/14 10:31:18.178,-0.012,0.036,0.994
2026/05/14 10:31:18.197,-0.011,0.034,0.992
2026/05/14 10:31:18.216,-0.011,0.039,0.999
2026/05/14 10:31:18.235,-0.011,0.038,0.999
2026/05/14 10:31:18.254,-0.009,0.04,0.996
2026/05/14 10:31:18.274,-0.008,0.04,0.996
2026/05/14 10:31:18.293,-0.01,0.035,0.997
2026/05/14 10:31:18.312,-0.014,0.037,0.996
2026/05/14 10:31:18.331,-0.009,0.036,0.997
2026/05/14 10:31:18.351,-0.006,0.036,0.997
2026/05/14 10:31:18.370,-0.01,0.035,0.996
2026/05/14 10:31:18.389,-0.011,0.037,1.002
2026/05/14 10:31:18.408,-0.015,0.034,0.997
2026/05/14 10:31:18.428,-0.01,0.041,0.995
2026/05/14 10:31:18.447,-0.009,0.038,0.996
2026/05/14 10:31:18.466,-0.01,0.035,0.995
2026/05/14 10:31:18.485,-0.011,0.036,0.998
2026/05/14 10:31:18.504,-0.016,0.04,0.997
2026/05/14 10:31:18.524,-0.013,0.037,0.993
2026/05/14 10:31:18.543,-0.013,0.037,0.998
2026/05/14 10:31:18.562,-0.013,0.039,1.0
2026/05/14 10:31:18.581,-0.01,0.036,1.0
2026/05/14 10:31:18.601,-0.008,0.036,0.994
2026/05/14 10:31:18.620,-0.012,0.034,0.998
2026/05/14 10:31:18.639,-0.011,0.038,1.0
2026/05/14 10:31:18.658,-0.01,0.037,0.993
2026/05/14 10:31:18.678,-0.011,0.035,0.997
2026/05/14 10:31:18.697,-0.015,0.037,0.994
2026/05/14 10:31:18.716,-0.011,0.041,0.997
2026/05/14 10:31:18.735,-0.013,0.035,0.994
2026/05/14 10:31:18.754,-0.012,0.038,0.999
2026/05/14 10:31:18.773,-0.01,0.036,1.002
2026/05/14 10:31:18.792,-0.009,0.037,1.001
2026/05/14 10:31:18.811,-0.009,0.034,0.996
2026/05/14 10:31:18.830,-0.01,0.038,1.001
2026/05/14 10:31:18.849,-0.008,0.035,0.997
2026/05/14 10:31:18.868,-0.012,0.037,0.995
2026/05/14 10:31:18.888,-0.01,0.039,1.0
2026/05/14 10:31:18.907,-0.013,0.032,0.998
2026/05/14 10:31:18.926,-0.012,0.037,0.999
2026/05/14 10:31:18.945,-0.008,0.04,0.996
2026/05/14 10:31:18.964,-0.012,0.034,1.0
2026/05/14 10:31:18.983,-0.008,0.039,0.998
2026/05/14 10:31:19.002,-0.015,0.04,0.997
2026/05/14 10:31:19.021,-0.015,0.034,0.995
2026/05/14 10:31:19.040,-0.014,0.038,0.995
2026/05/14 10:31:19.059,-0.014,0.036,0.995
2026/05/14 10:31:19.078,-0.016,0.035,0.998
2026/05/14 10:31:19.097,-0.008,0.043,0.995
2026/05/14 10:31:19.116,-0.012,0.038,1.003
2026/05/14 10:31:19.135,-0.012,0.038,0.997
2026/05/14 10:31:19.154,-0.008,0.037,1.002
2026/05/14 10:31:19.173,-0.01,0.042,0.995
2026/05/14 10:31:19.193,-0.013,0.039,0.998
2026/05/14 10:31:19.212,-0.009,0.037,1.001
2026/05/14 10:31:19.231,-0.009,0.042,0.999
2026/05/14 10:31:19.250,-0.014,0.038,0.998
2026/05/14 10:31:19.269,-0.01,0.039,1.001
2026/05/14 10:31:19.288,-0.01,0.037,0.993
2026/05/14 10:31:19.307,-0.013,0.035,0.996
2026/05/14 10:31:19.326,-0.012,0.041,0.995
2026/05/14 10:31:19.345,-0.015,0.036,0.995
2026/05/14 10:31:19.364,-0.008,0.039,0.998
2026/05/14 10:31:19.383,-0.014,0.04,1.0
2026/05/14 10:31:19.402,-0.009,0.037,1.001
2026/05/14 10:31:19.421,-0.014,0.039,0.995
2026/05/14 10:31:19.440,-0.013,0.035,0.997
2026/05/14 10:31:19.459,-0.012,0.038,0.999
2026/05/14 10:31:19.478,-0.013,0.04,1.0
2026/05/14 10:31:19.498,-0.01,0.036,0.994
2026/05/14 10:31:19.517,-0.007,0.037,0.996
2026/05/14 10:31:19.536,-0.008,0.035,0.996
2026/05/14 10:31:19.555,-0.007,0.037,0.995
2026/05/14 10:31:19.574,-0.01,0.037,0.996
2026/05/14 10:31:19.593,-0.01,0.038,0.999
2026/05/14 10:31:19.612,-0.012,0.035,1.0
2026/05/14 10:31:19.631,-0.012,0.037,1.001
2026/05/14 10:31:19.650,-0.011,0.041,0.999
2026/05/14 10:31:19.669,-0.01,0.035,1.001
2026/05/14 10:31:19.688,-0.013,0.039,0.992
2026/05/14 10:31:19.707,-0.014,0.04,0.999
2026/05/14 10:31:19.726,-0.009,0.039,0.998
2026/05/14 10:31:19.745,-0.012,0.036,1.0
2026/05/14 10:31:19.764,-0.011,0.035,1.001
2026/05/14 10:31:19.783,-0.011,0.033,0.995
2026/05/14 10:31:19.803,-0.012,0.037,0.995
2026/05/14 10:31:19.822,-0.007,0.032,0.994
2026/05/14 10:31:19.841,-0.009,0.036,0.999
2026/05/14 10:31:19.860,-0.01,0.038,1.0
2026/05/14 10:31:19.879,-0.01,0.037,0.995
2026/05/14 10:31:19.898,-0.011,0.038,0.997
2026/05/14 10:31:19.917,-0.01,0.037,0.998
2026/05/14 10:31:19.936,-0.014,0.034,0.996
2026/05/14 10:31:19.955,-0.011,0.038,0.994
2026/05/14 10:31:19.974,-0.009,0.037,1.0
2026/05/14 10:31:19.993,-0.014,0.036,0.999
2026/05/14 10:31:20.012,-0.011,0.036,0.997
2026/05/14 10:31:20.031,-0.01,0.04,1.001
2026/05/14 10:31:20.050,-0.009,0.035,0.994
2026/05/14 10:31:20.069,-0.013,0.037,0.999
2026/05/14 10:31:20.088,-0.011,0.034,0.997
2026/05/14 10:31:20.108,-0.014,0.038,1.001
2026/05/14 10:31:20.127,-0.008,0.04,0.999
2026/05/14 10:31:20.146,-0.014,0.038,0.999
2026/05/14 10:31:20.165,-0.013,0.038,0.997
2026/05/14 10:31:20.184,-0.013,0.037,0.997
2026/05/14 10:31:20.203,-0.011,0.036,0.999
2026/05/14 10:31:20.222,-0.009,0.036,0.998
2026/05/14 10:31:20.241,-0.015,0.037,0.999
2026/05/14 10:31:20.260,-0.01,0.032,1.002
2026/05/14 10:31:20.279,-0.011,0.037,1.0
2026/05/14 10:31:20.298,-0.01,0.039,0.996
2026/05/14 10:31:20.317,-0.012,0.038,0.994
2026/05/14 10:31:20.336,-0.009,0.037,0.995
2026/05/14 10:31:20.355,-0.006,0.037,0.998
2026/05/14 10:31:20.374,-0.012,0.037,0.995
2026/05/14 10:31:20.393,-0.01,0.039,0.999
2026/05/14 10:31:20.413,-0.011,0.036,0.996
2026/05/14 10:31:20.432,-0.01,0.036,1.0
2026/05/14 10:31:20.451,-0.012,0.039,0.995
2026/05/14 10:31:20.470,-0.01,0.038,0.997
2026/05/14 10:31:20.489,-0.012,0.038,0.993
2026/05/14 10:31:20.508,-0.013,0.037,0.995
2026/05/14 10:31:20.527,-0.011,0.04,0.999
2026/05/14 10:31:20.546,-0.012,0.038,0.995
2026/05/14 10:31:20.565,-0.01,0.04,0.997
2026/05/14 10:31:20.584,-0.008,0.035,1.0
2026/05/14 10:31:20.603,-0.009,0.035,1.0
2026/05/14 10:31:20.622,-0.008,0.037,0.993
2026/05/14 10:31:20.641,-0.011,0.035,0.998
2026/05/14 10:31:20.660,-0.013,0.039,0.995
2026/05/14 10:31:20.679,-0.009,0.037,0.999
2026/05/14 10:31:20.698,-0.011,0.039,1.001
2026/05/14 10:31:20.718,-0.01,0.035,0.997
2026/05/14 10:31:20.737,-0.015,0.036,0.996
2026/05/14 10:31:20.756,-0.009,0.037,1.002
2026/05/14 10:31:20.775,-0.01,0.041,0.996
2026/05/14 10:31:20.794,-0.009,0.037,1.001
2026/05/14 10:31:20.813,-0.009,0.035,0.998
2026/05/14 10:31:20.832,-0.01,0.041,0.995
2026/05/14 10:31:20.851,-0.01,0.037,0.994
2026/05/14 10:31:20.870,-0.011,0.033,0.998
2026/05/14 10:31:20.889,-0.01,0.039,0.998
2026/05/14 10:31:20.908,-0.011,0.04,0.999
2026/05/14 10:31:20.927,-0.008,0.034,0.997
2026/05/14 10:31:20.946,-0.01,0.04,0.997
2026/05/14 10:31:20.965,-0.012,0.037,1.001
2026/05/14 10:31:20.984,-0.012,0.032,0.992
2026/05/14 10:31:21.003,-0.01,0.036,0.998
2026/05/14 10:31:21.023,-0.009,0.039,0.995
2026/05/14 10:31:21.042,-0.009,0.037,0.997
2026/05/14 10:31:21.061,-0.01,0.035,0.996
2026/05/14 10:31:21.080,-0.013,0.04,0.997
2026/05/14 10:31:21.099,-0.009,0.036,0.998
2026/05/14 10:31:21.118,-0.011,0.041,0.999
2026/05/14 10:31:21.137,-0.01,0.034,1.001
2026/05/14 10:31:21.156,-0.009,0.039,0.995
2026/05/14 10:31:21.175,-0.011,0.04,0.997
2026/05/14 10:31:21.194,-0.013,0.039,0.999
2026/05/14 10:31:21.213,-0.011,0.034,0.999
2026/05/14 10:31:21.232,-0.014,0.039,0.994
2026/05/14 10:31:21.251,-0.008,0.037,0.994
2026/05/14 10:31:21.270,-0.011,0.037,0.996
2026/05/14 10:31:21.289,-0.009,0.038,0.996
2026/05/14 10:31:21.308,-0.012,0.038,0.995
2026/05/14 10:31:21.328,-0.012,0.04,1.0
2026/05/14 10:31:21.347,-0.012,0.038,0.996
2026/05/14 10:31:21.366,-0.009,0.034,0.999
2026/05/14 10:31:21.385,-0.008,0.035,0.995
2026/05/14 10:31:21.404,-0.01,0.035,0.999
2026/05/14 10:31:21.423,-0.014,0.037,0.996
2026/05/14 10:31:21.442,-0.016,0.04,0.995
2026/05/14 10:31:21.461,-0.012,0.036,1.0
2026/05/14 10:31:21.480,-0.013,0.035,1.002
2026/05/14 10:31:21.499,-0.01,0.036,0.998
2026/05/14 10:31:21.518,-0.015,0.04,0.999
2026/05/14 10:31:21.537,-0.009,0.036,0.998
2026/05/14 10:31:21.556,-0.013,0.037,0.995
2026/05/14 10:31:21.575,-0.012,0.036,0.997
2026/05/14 10:31:21.594,-0.011,0.036,0.998
2026/05/14 10:31:21.613,-0.015,0.04,0.996
2026/05/14 10:31:21.632,-0.012,0.037,0.997
2026/05/14 10:31:21.652,-0.011,0.036,0.997
2026/05/14 10:31:21.671,-0.008,0.037,0.997
2026/05/14 10:31:21.690,-0.009,0.038,0.997
2026/05/14 10:31:21.709,-0.011,0.033,0.995
2026/05/14 10:31:21.728,-0.014,0.038,0.999
2026/05/14 10:31:21.747,-0.01,0.039,1.0
2026/05/14 10:31:21.766,-0.015,0.035,0.999
2026/05/14 10:31:21.785,-0.011,0.036,0.996
2026/05/14 10:31:21.804,-0.012,0.038,0.993
2026/05/14 10:31:21.823,-0.01,0.035,0.997
2026/05/14 10:31:21.842,-0.01,0.036,0.995
2026/05/14 10:31:21.861,-0.01,0.037,0.999
2026/05/14 10:31:21.880,-0.014,0.038,0.996
2026/05/14 10:31:21.899,-0.013,0.036,0.993
2026/05/14 10:31:21.918,-0.012,0.037,0.998
2026/05/14 10:31:21.937,-0.009,0.038,0.998
2026/05/14 10:31:21.957,-0.011,0.04,0.999
2026/05/14 10:31:21.976,-0.009,0.035,0.996
2026/05/14 10:31:21.995,-0.013,0.033,0.999
2026/05/14 10:31:22.014,-0.008,0.039,0.995
2026/05/14 10:31:22.033,-0.011,0.037,0.998
2026/05/14 10:31:22.052,-0.01,0.038,0.995
2026/05/14 10:31:22.071,-0.014,0.036,1.0
2026/05/14 10:31:22.090,-0.007,0.039,0.998
2026/05/14 10:31:22.109,-0.012,0.038,0.998
2026/05/14 10:31:22.128,-0.008,0.038,0.999
2026/05/14 10:31:22.147,-0.016,0.034,0.997
2026/05/14 10:31:22.166,-0.01,0.035,0.999
2026/05/14 10:31:22.185,-0.008,0.043,1.002
2026/05/14 10:31:22.204,-0.011,0.035,0.999
2026/05/14 10:31:22.223,-0.008,0.036,0.996
2026/05/14 10:31:22.242,-0.009,0.036,0.997
2026/05/14 10:31:22.262,-0.011,0.037,0.999
2026/05/14 10:31:22.281,-0.014,0.038,1.0
2026/05/14 10:31:22.300,-0.008,0.038,0.997
2026/05/14 10:31:22.319,-0.018,0.037,0.994
2026/05/14 10:31:22.338,-0.013,0.037,0.998
2026/05/14 10:31:22.357,-0.012,0.041,0.998
2026/05/14 10:31:22.376,-0.01,0.036,1.001
2026/05/14 10:31:22.395,-0.008,0.036,0.998
2026/05/14 10:31:22.414,-0.012,0.038,0.996
2026/05/14 10:31:22.433,-0.009,0.038,0.998
2026/05/14 10:31:22.452,-0.012,0.04,0.996
2026/05/14 10:31:22.471,-0.012,0.039,0.999
2026/05/14 10:31:22.490,-0.011,0.037,0.999
2026/05/14 10:31:22.509,-0.012,0.036,0.999
2026/05/14 10:31:22.528,-0.008,0.038,1.002
2026/05/14 10:31:22.547,-0.011,0.036,0.995
2026/05/14 10:31:22.566,-0.009,0.038,0.998
2026/05/14 10:31:22.586,-0.014,0.038,0.999
2026/05/14 10:31:22.605,-0.011,0.04,0.995
2026/05/14 10:31:22.624,-0.011,0.037,0.995
2026/05/14 10:31:22.643,-0.01,0.039,0.996
2026/05/14 10:31:22.662,-0.009,0.033,1.001
2026/05/14 10:31:22.681,-0.013,0.037,0.999
2026/05/14 10:31:22.700,-0.014,0.035,0.999
2026/05/14 10:31:22.719,-0.013,0.038,0.994
2026/05/14 10:31:22.738,-0.011,0.035,0.998
2026/05/14 10:31:22.757,-0.009,0.038,0.994
2026/05/14 10:31:22.776,-0.012,0.038,0.992
2026/05/14 10:31:22.795,-0.01,0.034,0.996
2026/05/14 10:31:22.814,-0.012,0.036,1.001
2026/05/14 10:31:22.833,-0.01,0.038,0.996
2026/05/14 10:31:22.852,-0.013,0.04,0.997
2026/05/14 10:31:22.871,-0.012,0.034,0.994
2026/05/14 10:31:22.891,-0.015,0.04,0.994
2026/05/14 10:31:22.910,-0.009,0.037,0.998
2026/05/14 10:31:22.929,-0.014,0.035,0.992
2026/05/14 10:31:22.948,-0.012,0.036,0.997
2026/05/14 10:31:22.967,-0.013,0.039,0.997
2026/05/14 10:31:22.986,-0.008,0.037,0.996
2026/05/14 10:31:23.005,-0.01,0.036,0.998
2026/05/14 10:31:23.024,-0.013,0.04,0.996
2026/05/14 10:31:23.043,-0.012,0.036,1.0
2026/05/14 10:31:23.062,-0.009,0.034,0.995
2026/05/14 10:31:23.081,-0.01,0.037,1.0
2026/05/14 10:31:23.100,-0.013,0.036,1.001
2026/05/14 10:31:23.119,-0.011,0.041,0.998
2026/05/14 10:31:23.138,-0.011,0.035,0.994
2026/05/14 10:31:23.157,-0.012,0.039,1.0
2026/05/14 10:31:23.176,-0.012,0.04,0.999
2026/05/14 10:31:23.195,-0.013,0.035,0.998
2026/05/14 10:31:23.215,-0.012,0.037,0.996
2026/05/14 10:31:23.234,-0.01,0.04,1.001
2026/05/14 10:31:23.253,-0.013,0.037,0.997
2026/05/14 10:31:23.272,-0.014,0.038,0.998
2026/05/14 10:31:23.291,-0.012,0.036,0.999
2026/05/14 10:31:23.310,-0.015,0.036,0.993
2026/05/14 10:31:23.329,-0.01,0.034,0.998
2026/05/14 10:31:23.348,-0.01,0.041,0.997
2026/05/14 10:31:23.367,-0.012,0.033,0.996
2026/05/14 10:31:23.386,-0.011,0.038,0.995
2026/05/14 10:31:23.405,-0.01,0.038,0.998
2026/05/14 10:31:23.424,-0.011,0.038,0.997
2026/05/14 10:31:23.443,-0.007,0.038,0.994
2026/05/14 10:31:23.462,-0.009,0.036,0.996
2026/05/14 10:31:23.481,-0.011,0.039,0.996
2026/05/14 10:31:23.500,-0.013,0.041,0.995
2026/05/14 10:31:23.520,-0.009,0.037,0.998
2026/05/14 10:31:23.539,-0.012,0.034,0.995
2026/05/14 10:31:23.558,-0.011,0.035,0.996
2026/05/14 10:31:23.577,-0.011,0.035,1.0
2026/05/14 10:31:23.596,-0.015,0.034,0.995
2026/05/14 10:31:23.615,-0.014,0.038,0.997
2026/05/14 10:31:23.634,-0.013,0.036,0.999
2026/05/14 10:31:23.653,-0.012,0.038,0.997
2026/05/14 10:31:23.672,-0.011,0.039,0.998
2026/05/14 10:31:23.691,-0.009,0.04,0.999
2026/05/14 10:31:23.710,-0.01,0.04,0.995
2026/05/14 10:31:23.729,-0.015,0.041,0.995
2026/05/14 10:31:23.748,-0.01,0.037,0.998
2026/05/14 10:31:23.767,-0.008,0.039,0.997
2026/05/14 10:31:23.786,-0.01,0.04,0.994
2026/05/14 10:31:23.805,-0.013,0.036,0.997
2026/05/14 10:31:23.825,-0.012,0.037,0.999
2026/05/14 10:31:23.844,-0.014,0.034,0.996
2026/05/14 10:31:23.863,-0.009,0.038,0.996
2026/05/14 10:31:23.882,-0.012,0.041,1.001
2026/05/14 10:31:23.901,-0.009,0.037,0.996
2026/05/14 10:31:23.920,-0.014,0.038,0.995
2026/05/14 10:31:23.939,-0.012,0.039,0.999
2026/05/14 10:31:23.958,-0.008,0.039,0.999
2026/05/14 10:31:23.977,-0.01,0.039,0.995
2026/05/14 10:31:23.996,-0.012,0.038,0.995
2026/05/14 10:31:24.015,-0.009,0.037,0.996
2026/05/14 10:31:24.034,-0.013,0.037,0.999
2026/05/14 10:31:24.053,-0.011,0.036,0.996
2026/05/14 10:31:24.072,-0.012,0.038,0.997
2026/05/14 10:31:24.091,-0.014,0.034,0.995
2026/05/14 10:31:24.110,-0.013,0.04,0.996
2026/05/14 10:31:24.129,-0.011,0.035,0.995
2026/05/14 10:31:24.149,-0.013,0.04,0.999
2026/05/14 10:31:24.168,-0.013,0.04,0.997
2026/05/14 10:31:24.187,-0.009,0.034,0.997
2026/05/14 10:31:24.206,-0.006,0.036,0.994
2026/05/14 10:31:24.225,-0.008,0.038,0.994
2026/05/14 10:31:24.244,-0.011,0.039,1.0
2026/05/14 10:31:24.263,-0.011,0.039,0.999
2026/05/14 10:31:24.282,-0.016,0.034,0.997
2026/05/14 10:31:24.301,-0.011,0.036,0.993
2026/05/14 10:31:24.320,-0.015,0.036,0.997
2026/05/14 10:31:24.339,-0.011,0.039,0.997
2026/05/14 10:31:24.358,-0.012,0.033,1.001
2026/05/14 10:31:24.377,-0.012,0.036,0.994
2026/05/14 10:31:24.396,-0.014,0.037,0.995
2026/05/14 10:31:24.415,-0.011,0.035,0.996
2026/05/14 10:31:24.434,-0.01,0.035,0.995
2026/05/14 10:31:24.454,-0.012,0.035,0.998
2026/05/14 10:31:24.473,-0.013,0.039,0.996
2026/05/14 10:31:24.492,-0.015,0.036,0.996
2026/05/14 10:31:24.511,-0.009,0.036,0.999
2026/05/14 10:31:24.530,-0.011,0.04,1.001
2026/05/14 10:31:24.549,-0.013,0.041,0.996
2026/05/14 10:31:24.568,-0.013,0.035,0.999
2026/05/14 10:31:24.587,-0.013,0.04,1.0
2026/05/14 10:31:24.606,-0.013,0.043,0.998
2026/05/14 10:31:24.625,-0.011,0.035,0.998
2026/05/14 10:31:24.644,-0.012,0.036,0.995
2026/05/14 10:31:24.663,-0.011,0.037,0.996
2026/05/14 10:31:24.682,-0.008,0.036,0.997
2026/05/14 10:31:24.701,-0.009,0.035,0.998
2026/05/14 10:31:24.720,-0.014,0.035,0.998
2026/05/14 10:31:24.739,-0.013,0.039,0.997
2026/05/14 10:31:24.758,-0.01,0.037,0.993
2026/05/14 10:31:24.778,-0.01,0.037,1.001
2026/05/14 10:31:24.797,-0.014,0.037,0.995
2026/05/14 10:31:24.816,-0.011,0.037,0.994
2026/05/14 10:31:24.835,-0.011,0.037,0.997
2026/05/14 10:31:24.854,-0.011,0.035,0.996
2026/05/14 10:31:24.873,-0.015,0.04,0.996
2026/05/14 10:31:24.892,-0.012,0.038,0.999
2026/05/14 10:31:24.911,-0.008,0.035,1.001
2026/05/14 10:31:24.930,-0.014,0.036,0.995
2026/05/14 10:31:24.949,-0.008,0.035,0.993
2026/05/14 10:31:24.968,-0.013,0.035,0.996
2026/05/14 10:31:24.987,-0.009,0.04,1.0
2026/05/14 10:31:25.006,-0.011,0.034,0.998
2026/05/14 10:31:25.025,-0.01,0.038,0.996
2026/05/14 10:31:25.044,-0.009,0.038,1.001
2026/05/14 10:31:25.063,-0.013,0.037,0.994
2026/05/14 10:31:25.082,-0.013,0.041,0.997
2026/05/14 10:31:25.102,-0.01,0.038,0.997
2026/05/14 10:31:25.121,-0.014,0.04,0.999
2026/05/14 10:31:25.140,-0.008,0.039,0.994
2026/05/14 10:31:25.159,-0.007,0.038,0.997
2026/05/14 10:31:25.178,-0.014,0.04,0.999
2026/05/14 10:31:25.197,-0.011,0.04,0.995
2026/05/14 10:31:25.216,-0.015,0.035,0.997
2026/05/14 10:31:25.235,-0.007,0.035,0.995
2026/05/14 10:31:25.254,-0.012,0.035,0.999
2026/05/14 10:31:25.273,-0.012,0.036,0.997
2026/05/14 10:31:25.292,-0.007,0.039,0.999
2026/05/14 10:31:25.311,-0.011,0.039,0.993
2026/05/14 10:31:25.330,-0.014,0.038,0.997
2026/05/14 10:31:25.349,-0.012,0.036,0.994
2026/05/14 10:31:25.368,-0.011,0.035,0.997
2026/05/14 10:31:25.387,-0.011,0.043,0.998
2026/05/14 10:31:25.407,-0.011,0.039,0.999
2026/05/14 10:31:25.426,-0.014,0.038,1.0
2026/05/14 10:31:25.445,-0.01,0.037,0.995
2026/05/14 10:31:25.464,-0.01,0.035,0.996
2026/05/14 10:31:25.483,-0.011,0.038,0.996
2026/05/14 10:31:25.502,-0.01,0.039,0.997
2026/05/14 10:31:25.521,-0.013,0.041,1.0
2026/05/14 10:31:25.540,-0.011,0.039,0.996
2026/05/14 10:31:25.559,-0.012,0.035,0.993
2026/05/14 10:31:25.578,-0.013,0.036,0.999
2026/05/14 10:31:25.597,-0.012,0.038,0.999
2026/05/14 10:31:25.616,-0.012,0.034,0.993
2026/05/14 10:31:25.635,-0.014,0.033,0.999
2026/05/14 10:31:25.654,-0.015,0.037,0.996
2026/05/14 10:31:25.673,-0.014,0.038,0.998
2026/05/14 10:31:25.692,-0.011,0.039,0.997
2026/05/14 10:31:25.711,-0.012,0.039,0.999
2026/05/14 10:31:25.731,-0.01,0.035,0.996
2026/05/14 10:31:25.750,-0.009,0.039,0.991
2026/05/14 10:31:25.769,-0.007,0.036,0.998
2026/05/14 10:31:25.788,-0.011,0.043,0.998
2026/05/14 10:31:25.807,-0.01,0.036,0.997
2026/05/14 10:31:25.826,-0.016,0.037,1.005
2026/05/14 10:31:25.845,-0.015,0.033,0.999
2026/05/14 10:31:25.864,-0.013,0.036,0.994
2026/05/14 10:31:25.883,-0.011,0.036,0.997
2026/05/14 10:31:25.902,-0.014,0.037,0.994
2026/05/14 10:31:25.921,-0.015,0.035,0.995
2026/05/14 10:31:25.940,-0.015,0.039,1.002
2026/05/14 10:31:25.959,-0.007,0.036,0.995
2026/05/14 10:31:25.978,-0.009,0.038,0.996
2026/05/14 10:31:25.997,-0.013,0.04,1.002
2026/05/14 10:31:26.016,-0.008,0.034,0.997
2026/05/14 10:31:26.036,-0.011,0.038,0.999
2026/05/14 10:31:26.055,-0.008,0.037,0.998
2026/05/14 10:31:26.074,-0.013,0.033,0.999
2026/05/14 10:31:26.093,-0.009,0.036,0.999
2026/05/14 10:31:26.112,-0.011,0.035,0.996
2026/05/14 10:31:26.131,-0.009,0.038,0.993
2026/05/14 10:31:26.150,-0.009,0.04,0.998
2026/05/14 10:31:26.169,-0.014,0.038,0.994
2026/05/14 10:31:26.188,-0.013,0.037,0.999
2026/05/14 10:31:26.207,-0.011,0.036,0.994
2026/05/14 10:31:26.226,-0.011,0.042,1.001
2026/05/14 10:31:26.245,-0.017,0.036,0.995
2026/05/14 10:31:26.264,-0.01,0.036,0.994
2026/05/14 10:31:26.283,-0.013,0.035,0.993
2026/05/14 10:31:26.302,-0.012,0.038,0.998
2026/05/14 10:31:26.321,-0.006,0.038,0.997
2026/05/14 10:31:26.340,-0.012,0.037,0.998
2026/05/14 10:31:26.360,-0.013,0.036,0.993
2026/05/14 10:31:26.379,-0.009,0.042,0.996
2026/05/14 10:31:26.398,-0.008,0.035,0.996
2026/05/14 10:31:26.417,-0.008,0.036,1.001
2026/05/14 10:31:26.436,-0.013,0.038,0.996
2026/05/14 10:31:26.455,-0.012,0.036,0.997
2026/05/14 10:31:26.474,-0.012,0.037,0.996
2026/05/14 10:31:26.493,-0.009,0.033,0.997
2026/05/14 10:31:26.512,-0.009,0.04,0.998
2026/05/14 10:31:26.531,-0.012,0.042,0.996
2026/05/14 10:31:26.550,-0.009,0.038,0.997
2026/05/14 10:31:26.569,-0.012,0.036,0.999
2026/05/14 10:31:26.588,-0.011,0.04,0.999
2026/05/14 10:31:26.607,-0.009,0.038,0.996
2026/05/14 10:31:26.626,-0.011,0.039,1.001
2026/05/14 10:31:26.645,-0.011,0.038,0.998
2026/05/14 10:31:26.664,-0.013,0.035,0.992
2026/05/14 10:31:26.684,-0.01,0.042,0.997
2026/05/14 10:31:26.703,-0.011,0.041,0.996
2026/05/14 10:31:26.722,-0.011,0.036,0.996
2026/05/14 10:31:26.741,-0.009,0.038,0.998
2026/05/14 10:31:26.760,-0.015,0.039,1.001
2026/05/14 10:31:26.779,-0.009,0.038,0.994
2026/05/14 10:31:26.798,-0.01,0.037,0.993
2026/05/14 10:31:26.817,-0.014,0.038,0.995
2026/05/14 10:31:26.836,-0.013,0.043,0.997
2026/05/14 10:31:26.855,-0.015,0.038,0.998
2026/05/14 10:31:26.874,-0.013,0.038,0.995
2026/05/14 10:31:26.893,-0.009,0.036,0.995
2026/05/14 10:31:26.912,-0.012,0.036,1.001
2026/05/14 10:31:26.931,-0.004,0.037,0.998
2026/05/14 10:31:26.950,-0.011,0.036,0.999
2026/05/14 10:31:26.969,-0.011,0.033,0.995
2026/05/14 10:31:26.989,-0.013,0.039,0.996
2026/05/14 10:31:27.008,-0.01,0.038,1.002
2026/05/14 10:31:27.027,-0.011,0.039,0.998
2026/05/14 10:31:27.046,-0.011,0.036,0.996
2026/05/14 10:31:27.065,-0.01,0.034,0.994
2026/05/14 10:31:27.084,-0.013,0.035,0.996
2026/05/14 10:31:27.103,-0.015,0.037,0.997
2026/05/14 10:31:27.122,-0.009,0.035,0.994
2026/05/14 10:31:27.141,-0.008,0.034,0.995
2026/05/14 10:31:27.160,-0.014,0.038,0.999
2026/05/14 10:31:27.179,-0.014,0.036,0.994
2026/05/14 10:31:27.198,-0.012,0.037,0.995
2026/05/14 10:31:27.217,-0.014,0.042,0.997
2026/05/14 10:31:27.236,-0.009,0.035,1.0
2026/05/14 10:31:27.255,-0.008,0.032,0.994
2026/05/14 10:31:27.274,-0.013,0.036,0.998
2026/05/14 10:31:27.293,-0.011,0.037,1.001
2026/05/14 10:31:27.313,-0.012,0.039,0.999
2026/05/14 10:31:27.332,-0.01,0.038,0.996
2026/05/14 10:31:27.351,-0.012,0.038,0.994
2026/05/14 10:31:27.370,-0.011,0.036,0.997
2026/05/14 10:31:27.389,-0.011,0.037,0.998
2026/05/14 10:31:27.408,-0.011,0.04,0.995
2026/05/14 10:31:27.427,-0.007,0.038,0.993
2026/05/14 10:31:27.446,-0.01,0.035,0.994
2026/05/14 10:31:27.465,-0.011,0.039,0.998
2026/05/14 10:31:27.484,-0.013,0.04,0.994
2026/05/14 10:31:27.503,-0.007,0.042,0.997
2026/05/14 10:31:27.522,-0.01,0.033,0.996
2026/05/14 10:31:27.541,-0.012,0.037,0.997
2026/05/14 10:31:27.560,-0.011,0.042,0.998
2026/05/14 10:31:27.579,-0.011,0.038,0.995
2026/05/14 10:31:27.598,-0.01,0.04,0.997
2026/05/14 10:31:27.618,-0.012,0.037,0.999
2026/05/14 10:31:27.637,-0.01,0.039,1.0
2026/05/14 10:31:27.656,-0.004,0.035,0.994
2026/05/14 10:31:27.675,-0.009,0.039,0.997
2026/05/14 10:31:27.694,-0.012,0.036,0.994
2026/05/14 10:31:27.713,-0.011,0.037,0.998
2026/05/14 10:31:27.732,-0.014,0.033,0.996
2026/05/14 10:31:27.751,-0.011,0.035,0.994
2026/05/14 10:31:27.770,-0.012,0.038,1.001
2026/05/14 10:31:27.789,-0.008,0.041,0.993
2026/05/14 10:31:27.808,-0.014,0.037,0.995
2026/05/14 10:31:27.827,-0.012,0.037,0.999
2026/05/14 10:31:27.846,-0.009,0.037,0.997
2026/05/14 10:31:27.865,-0.012,0.037,0.996
2026/05/14 10:31:27.884,-0.01,0.033,0.993
2026/05/14 10:31:27.903,-0.016,0.035,1.001
2026/05/14 10:31:27.922,-0.016,0.035,0.995
2026/05/14 10:31:27.942,-0.013,0.038,0.998
2026/05/14 10:31:27.961,-0.011,0.038,1.002
2026/05/14 10:31:27.980,-0.014,0.04,0.997
2026/05/14 10:31:27.999,-0.011,0.038,1.002
2026/05/14 10:31:28.018,-0.015,0.038,1.003
2026/05/14 10:31:28.037,-0.013,0.04,1.003
2026/05/14 10:31:28.056,-0.01,0.038,0.996
2026/05/14 10:31:28.075,-0.009,0.036,0.997
2026/05/14 10:31:28.094,-0.009,0.038,0.996
2026/05/14 10:31:28.113,-0.009,0.039,0.999
2026/05/14 10:31:28.132,-0.011,0.035,0.995
2026/05/14 10:31:28.151,-0.009,0.038,0.999
2026/05/14 10:31:28.170,-0.01,0.037,0.999
2026/05/14 10:31:28.189,-0.012,0.036,0.997
2026/05/14 10:31:28.208,-0.01,0.036,1.002
2026/05/14 10:31:28.227,-0.009,0.038,1.0
2026/05/14 10:31:28.246,-0.014,0.035,0.996
2026/05/14 10:31:28.266,-0.01,0.039,1.002
2026/05/14 10:31:28.285,-0.012,0.039,0.994
2026/05/14 10:31:28.304,-0.009,0.038,0.996
2026/05/14 10:31:28.323,-0.011,0.035,0.994
2026/05/14 10:31:28.342,-0.01,0.034,1.001
2026/05/14 10:31:28.361,-0.011,0.04,0.995
2026/05/14 10:31:28.380,-0.014,0.034,0.995
2026/05/14 10:31:28.399,-0.012,0.034,0.995
2026/05/14 10:31:28.418,-0.011,0.038,0.998
2026/05/14 10:31:28.437,-0.012,0.038,0.993
2026/05/14 10:31:28.456,-0.01,0.038,0.996
2026/05/14 10:31:28.475,-0.01,0.036,0.997
2026/05/14 10:31:28.494,-0.012,0.038,0.997
2026/05/14 10:31:28.513,-0.009,0.041,0.998
2026/05/14 10:31:28.532,-0.011,0.04,0.998
2026/05/14 10:31:28.551,-0.012,0.042,0.998
2026/05/14 10:31:28.571,-0.014,0.036,0.996
2026/05/14 10:31:28.590,-0.009,0.035,0.993
2026/05/14 10:31:28.609,-0.012,0.039,0.991
2026/05/14 10:31:28.628,-0.008,0.039,0.997
2026/05/14 10:31:28.647,-0.011,0.04,0.997
2026/05/14 10:31:28.666,-0.014,0.035,1.0
2026/05/14 10:31:28.685,-0.012,0.04,0.998
2026/05/14 10:31:28.704,-0.012,0.04,0.997
2026/05/14 10:31:28.723,-0.011,0.036,0.998
2026/05/14 10:31:28.742,-0.011,0.04,0.997
2026/05/14 10:31:28.761,-0.011,0.039,1.003
2026/05/14 10:31:28.780,-0.013,0.036,0.997
2026/05/14 10:31:28.799,-0.009,0.04,0.997
2026/05/14 10:31:28.818,-0.011,0.038,0.994
2026/05/14 10:31:28.837,-0.01,0.041,0.999
2026/05/14 10:31:28.856,-0.014,0.04,0.999
2026/05/14 10:31:28.875,-0.011,0.039,0.994
2026/05/14 10:31:28.895,-0.012,0.034,0.998
2026/05/14 10:31:28.914,-0.012,0.036,1.001
2026/05/14 10:31:28.933,-0.014,0.04,1.0
2026/05/14 10:31:28.952,-0.011,0.041,0.998
2026/05/14 10:31:28.971,-0.011,0.038,0.999
2026/05/14 10:31:28.990,-0.011,0.037,0.996
2026/05/14 10:31:29.009,-0.013,0.036,1.001
2026/05/14 10:31:29.028,-0.01,0.037,0.999
2026/05/14 10:31:29.047,-0.006,0.039,0.995
2026/05/14 10:31:29.066,-0.011,0.037,0.998
2026/05/14 10:31:29.085,-0.01,0.039,1.001
2026/05/14 10:31:29.104,-0.012,0.035,0.997
2026/05/14 10:31:29.123,-0.01,0.035,0.999
2026/05/14 10:31:29.142,-0.013,0.038,0.997
2026/05/14 10:31:29.161,-0.011,0.036,1.0
2026/05/14 10:31:29.180,-0.009,0.041,0.997
2026/05/14 10:31:29.200,-0.011,0.039,0.994
2026/05/14 10:31:29.219,-0.013,0.041,0.993
2026/05/14 10:31:29.238,-0.009,0.038,1.001
2026/05/14 10:31:29.257,-0.013,0.032,0.999
2026/05/14 10:31:29.276,-0.009,0.039,0.999
2026/05/14 10:31:29.295,-0.016,0.038,0.996
2026/05/14 10:31:29.314,-0.012,0.04,0.997
2026/05/14 10:31:29.333,-0.01,0.038,0.999
2026/05/14 10:31:29.352,-0.009,0.037,0.996
2026/05/14 10:31:29.371,-0.011,0.043,0.997
2026/05/14 10:31:29.390,-0.009,0.034,1.001
2026/05/14 10:31:29.409,-0.01,0.038,0.997
2026/05/14 10:31:29.428,-0.012,0.039,1.002
2026/05/14 10:31:29.447,-0.013,0.035,0.995
2026/05/14 10:31:29.466,-0.013,0.039,0.996
2026/05/14 10:31:29.485,-0.013,0.035,0.997
2026/05/14 10:31:29.504,-0.012,0.039,0.998
2026/05/14 10:31:29.524,-0.008,0.039,0.999
2026/05/14 10:31:29.543,-0.011,0.035,0.998
2026/05/14 10:31:29.562,-0.013,0.036,0.999
2026/05/14 10:31:29.581,-0.011,0.044,0.999
2026/05/14 10:31:29.600,-0.011,0.038,0.998
2026/05/14 10:31:29.619,-0.01,0.036,0.997
2026/05/14 10:31:29.638,-0.015,0.04,0.995
2026/05/14 10:31:29.657,-0.013,0.039,1.001
2026/05/14 10:31:29.676,-0.012,0.04,0.997
2026/05/14 10:31:29.695,-0.011,0.038,0.997
2026/05/14 10:31:29.714,-0.009,0.039,0.995
2026/05/14 10:31:29.733,-0.01,0.038,0.996
2026/05/14 10:31:29.752,-0.009,0.037,0.996
2026/05/14 10:31:29.771,-0.01,0.041,0.999
2026/05/14 10:31:29.790,-0.01,0.034,1.0
2026/05/14 10:31:29.809,-0.011,0.038,0.997
2026/05/14 10:31:29.828,-0.009,0.038,0.994
2026/05/14 10:31:29.848,-0.009,0.034,0.998
2026/05/14 10:31:29.867,-0.009,0.04,0.995
2026/05/14 10:31:29.886,-0.011,0.038,0.996
2026/05/14 10:31:29.905,-0.012,0.039,0.998
2026/05/14 10:31:29.924,-0.011,0.037,0.996
2026/05/14 10:31:29.943,-0.015,0.036,0.996
2026/05/14 10:31:29.962,-0.008,0.036,0.998
2026/05/14 10:31:29.981,-0.012,0.037,0.994
2026/05/14 10:31:30.000,-0.012,0.037,0.995
2026/05/14 10:31:30.019,-0.015,0.039,1.0
2026/05/14 10:31:30.038,-0.011,0.039,1.002
2026/05/14 10:31:30.057,-0.012,0.035,0.995
2026/05/14 10:31:30.076,-0.009,0.034,0.998
2026/05/14 10:31:30.095,-0.009,0.039,0.995
2026/05/14 10:31:30.114,-0.012,0.04,0.998
2026/05/14 10:31:30.133,-0.011,0.04,0.998
2026/05/14 10:31:30.152,-0.012,0.039,0.997
2026/05/14 10:31:30.172,-0.011,0.038,0.997
2026/05/14 10:31:30.191,-0.009,0.037,0.994
2026/05/14 10:31:30.210,-0.01,0.037,0.999
2026/05/14 10:31:30.229,-0.011,0.035,0.995
2026/05/14 10:31:30.248,-0.01,0.037,0.998
2026/05/14 10:31:30.267,-0.013,0.038,1.0
2026/05/14 10:31:30.286,-0.01,0.035,1.002
2026/05/14 10:31:30.305,-0.01,0.033,0.998
2026/05/14 10:31:30.324,-0.011,0.036,0.998
2026/05/14 10:31:30.343,-0.012,0.036,0.996
2026/05/14 10:31:30.362,-0.009,0.038,1.002
2026/05/14 10:31:30.381,-0.015,0.041,1.001
2026/05/14 10:31:30.400,-0.008,0.037,0.996
2026/05/14 10:31:30.419,-0.007,0.036,0.996
2026/05/14 10:31:30.438,-0.01,0.036,0.994
2026/05/14 10:31:30.457,-0.011,0.037,0.999
2026/05/14 10:31:30.476,-0.014,0.039,0.996
2026/05/14 10:31:30.496,-0.011,0.038,0.996
2026/05/14 10:31:30.515,-0.015,0.038,0.997
2026/05/14 10:31:30.534,-0.013,0.036,0.997
2026/05/14 10:31:30.553,-0.01,0.039,0.995
2026/05/14 10:31:30.572,-0.01,0.041,0.992
2026/05/14 10:31:30.591,-0.012,0.042,0.997
2026/05/14 10:31:30.610,-0.013,0.038,1.001
2026/05/14 10:31:30.629,-0.01,0.038,0.997
2026/05/14 10:31:30.648,-0.008,0.041,0.995
2026/05/14 10:31:30.667,-0.014,0.036,0.999
2026/05/14 10:31:30.686,-0.013,0.038,0.994
2026/05/14 10:31:30.705,-0.013,0.035,1.002
2026/05/14 10:31:30.724,-0.01,0.036,1.0
2026/05/14 10:31:30.743,-0.012,0.037,0.999
2026/05/14 10:31:30.762,-0.012,0.037,0.997
2026/05/14 10:31:30.781,-0.01,0.035,0.995
2026/05/14 10:31:30.800,-0.012,0.036,0.998
2026/05/14 10:31:30.820,-0.011,0.035,0.994
2026/05/14 10:31:30.839,-0.008,0.039,1.002
2026/05/14 10:31:30.858,-0.01,0.034,0.997
2026/05/14 10:31:30.877,-0.014,0.037,0.998
2026/05/14 10:31:30.896,-0.011,0.041,0.996
2026/05/14 10:31:30.915,-0.013,0.042,1.001
2026/05/14 10:31:30.934,-0.013,0.041,0.998
2026/05/14 10:31:30.953,-0.009,0.035,0.998
2026/05/14 10:31:30.972,-0.012,0.039,0.997
2026/05/14 10:31:30.991,-0.009,0.034,0.997
2026/05/14 10:31:31.010,-0.009,0.033,0.994
2026/05/14 10:31:31.029,-0.012,0.037,0.996
2026/05/14 10:31:31.048,-0.015,0.042,0.994
2026/05/14 10:31:31.067,-0.017,0.037,1.0
2026/05/14 10:31:31.086,-0.007,0.036,0.992
2026/05/14 10:31:31.105,-0.01,0.038,0.994
2026/05/14 10:31:31.124,-0.009,0.04,0.993
2026/05/14 10:31:31.144,-0.008,0.035,0.99
2026/05/14 10:31:31.163,-0.014,0.041,1.0
2026/05/14 10:31:31.182,-0.009,0.039,0.993
2026/05/14 10:31:31.201,-0.011,0.042,0.998
2026/05/14 10:31:31.220,-0.011,0.034,0.995
2026/05/14 10:31:31.239,-0.011,0.037,0.996
2026/05/14 10:31:31.258,-0.01,0.035,0.997
2026/05/14 10:31:31.277,-0.01,0.035,0.998
2026/05/14 10:31:31.296,-0.008,0.039,0.997
2026/05/14 10:31:31.315,-0.01,0.037,0.995
2026/05/14 10:31:31.334,-0.012,0.035,0.992
2026/05/14 10:31:31.353,-0.011,0.036,0.996
2026/05/14 10:31:31.372,-0.017,0.037,1.0
2026/05/14 10:31:31.391,-0.013,0.038,0.998
2026/05/14 10:31:31.410,-0.011,0.038,1.0
2026/05/14 10:31:31.429,-0.01,0.037,1.003
2026/05/14 10:31:31.448,-0.013,0.034,0.996
2026/05/14 10:31:31.468,-0.011,0.037,1.0
2026/05/14 10:31:31.487,-0.01,0.036,0.994
2026/05/14 10:31:31.506,-0.012,0.037,0.994
2026/05/14 10:31:31.525,-0.009,0.035,0.998
2026/05/14 10:31:31.544,-0.014,0.038,0.999
2026/05/14 10:31:31.563,-0.008,0.04,0.997
2026/05/14 10:31:31.582,-0.011,0.033,0.998
2026/05/14 10:31:31.601,-0.01,0.036,0.992
2026/05/14 10:31:31.620,-0.013,0.037,0.998
2026/05/14 10:31:31.639,-0.015,0.037,0.997
2026/05/14 10:31:31.658,-0.009,0.038,0.994
2026/05/14 10:31:31.677,-0.011,0.04,0.998
2026/05/14 10:31:31.696,-0.01,0.037,0.998
2026/05/14 10:31:31.715,-0.009,0.034,0.996
2026/05/14 10:31:31.734,-0.01,0.036,0.996
2026/05/14 10:31:31.753,-0.013,0.04,0.998
2026/05/14 10:31:31.772,-0.011,0.035,0.994
2026/05/14 10:31:31.792,-0.012,0.035,0.998
2026/05/14 10:31:31.811,-0.008,0.043,0.993
2026/05/14 10:31:31.830,-0.011,0.034,0.996
2026/05/14 10:31:31.849,-0.012,0.037,0.998
2026/05/14 10:31:31.868,-0.011,0.038,0.997
2026/05/14 10:31:31.887,-0.007,0.04,0.999
2026/05/14 10:31:31.906,-0.011,0.038,0.994
2026/05/14 10:31:31.925,-0.009,0.04,0.996
2026/05/14 10:31:31.944,-0.01,0.036,0.996
2026/05/14 10:31:31.963,-0.008,0.033,0.998
2026/05/14 10:31:31.982,-0.011,0.039,0.997
2026/05/14 10:31:32.001,-0.01,0.036,0.993
2026/05/14 10:31:32.020,-0.012,0.038,0.996
2026/05/14 10:31:32.039,-0.006,0.037,0.994
2026/05/14 10:31:32.058,-0.013,0.04,1.004
2026/05/14 10:31:32.077,-0.01,0.037,0.997
2026/05/14 10:31:32.097,-0.008,0.035,0.994
2026/05/14 10:31:32.116,-0.009,0.034,0.992
2026/05/14 10:31:32.135,-0.013,0.039,0.999
2026/05/14 10:31:32.154,-0.008,0.038,0.997
2026/05/14 10:31:32.173,-0.011,0.039,0.999
2026/05/14 10:31:32.192,-0.011,0.038,0.997
2026/05/14 10:31:32.211,-0.008,0.037,0.995
2026/05/14 10:31:32.230,-0.013,0.035,0.997
2026/05/14 10:31:32.249,-0.011,0.036,1.0
2026/05/14 10:31:32.268,-0.008,0.04,0.996
2026/05/14 10:31:32.287,-0.008,0.034,0.996
2026/05/14 10:31:32.306,-0.011,0.037,0.998
2026/05/14 10:31:32.325,-0.01,0.036,0.995
2026/05/14 10:31:32.344,-0.011,0.04,0.996
2026/05/14 10:31:32.363,-0.013,0.036,1.0
2026/05/14 10:31:32.382,-0.008,0.035,0.992
2026/05/14 10:31:32.401,-0.01,0.039,0.994
2026/05/14 10:31:32.421,-0.011,0.04,0.999
2026/05/14 10:31:32.440,-0.011,0.036,0.995
2026/05/14 10:31:32.459,-0.01,0.039,0.996
2026/05/14 10:31:32.478,-0.013,0.036,0.999
2026/05/14 10:31:32.497,-0.01,0.039,0.997
2026/05/14 10:31:32.516,-0.011,0.038,0.998
2026/05/14 10:31:32.535,-0.007,0.041,0.997
2026/05/14 10:31:32.554,-0.01,0.037,0.992
2026/05/14 10:31:32.573,-0.011,0.038,0.995
2026/05/14 10:31:32.592,-0.013,0.038,0.998
2026/05/14 10:31:32.611,-0.012,0.036,1.001
2026/05/14 10:31:32.630,-0.007,0.039,0.995
2026/05/14 10:31:32.649,-0.01,0.039,0.995
2026/05/14 10:31:32.668,-0.009,0.037,0.996
2026/05/14 10:31:32.687,-0.013,0.038,1.001
2026/05/14 10:31:32.706,-0.01,0.039,1.0
2026/05/14 10:31:32.726,-0.011,0.037,0.996
2026/05/14 10:31:32.745,-0.014,0.037,0.998
2026/05/14 10:31:32.764,-0.011,0.039,0.997
2026/05/14 10:31:32.783,-0.012,0.037,0.999
2026/05/14 10:31:32.802,-0.012,0.035,0.996
2026/05/14 10:31:32.821,-0.012,0.04,0.999
2026/05/14 10:31:32.840,-0.012,0.038,0.996
2026/05/14 10:31:32.859,-0.009,0.036,0.994
2026/05/14 10:31:32.878,-0.011,0.034,0.999
2026/05/14 10:31:32.897,-0.01,0.037,0.998
2026/05/14 10:31:32.916,-0.01,0.039,0.996
2026/05/14 10:31:32.935,-0.014,0.039,0.997
2026/05/14 10:31:32.954,-0.009,0.038,0.995
2026/05/14 10:31:32.973,-0.009,0.036,0.996
2026/05/14 10:31:32.992,-0.012,0.039,0.997
2026/05/14 10:31:33.011,-0.013,0.038,0.996
2026/05/14 10:31:33.030,-0.014,0.037,0.995
2026/05/14 10:31:33.050,-0.013,0.037,1.0
2026/05/14 10:31:33.069,-0.009,0.038,0.991
2026/05/14 10:31:33.088,-0.011,0.038,0.999
2026/05/14 10:31:33.107,-0.014,0.037,0.996
2026/05/14 10:31:33.126,-0.008,0.039,0.996
2026/05/14 10:31:33.145,-0.012,0.035,0.997
2026/05/14 10:31:33.164,-0.009,0.038,0.995
2026/05/14 10:31:33.183,-0.017,0.039,0.999
2026/05/14 10:31:33.202,-0.013,0.041,0.992
2026/05/14 10:31:33.221,-0.011,0.038,0.999
2026/05/14 10:31:33.240,-0.012,0.039,0.995
2026/05/14 10:31:33.259,-0.011,0.038,0.991
2026/05/14 10:31:33.278,-0.011,0.036,0.994
2026/05/14 10:31:33.297,-0.012,0.039,0.996
2026/05/14 10:31:33.316,-0.01,0.041,0.996
2026/05/14 10:31:33.335,-0.01,0.037,1.0
2026/05/14 10:31:33.355,-0.011,0.035,1.002
2026/05/14 10:31:33.374,-0.015,0.037,0.998
2026/05/14 10:31:33.393,-0.01,0.04,0.998
2026/05/14 10:31:33.412,-0.01,0.033,0.997
2026/05/14 10:31:33.431,-0.011,0.039,0.996
2026/05/14 10:31:33.450,-0.01,0.038,0.996
2026/05/14 10:31:33.469,-0.008,0.038,0.994
2026/05/14 10:31:33.488,-0.013,0.039,0.993
2026/05/14 10:31:33.507,-0.012,0.036,0.998
2026/05/14 10:31:33.526,-0.011,0.039,0.997
2026/05/14 10:31:33.545,-0.009,0.036,0.997
2026/05/14 10:31:33.564,-0.01,0.037,0.999
2026/05/14 10:31:33.583,-0.014,0.038,0.997
2026/05/14 10:31:33.602,-0.008,0.037,0.995
2026/05/14 10:31:33.621,-0.014,0.038,1.001
2026/05/14 10:31:33.640,-0.01,0.038,0.996
2026/05/14 10:31:33.660,-0.01,0.037,0.994
2026/05/14 10:31:33.679,-0.008,0.037,0.994
2026/05/14 10:31:33.698,-0.014,0.036,0.994
2026/05/14 10:31:33.717,-0.008,0.034,0.999
2026/05/14 10:31:33.736,-0.011,0.039,0.995
2026/05/14 10:31:33.755,-0.008,0.036,0.999
2026/05/14 10:31:33.774,-0.013,0.039,0.998
2026/05/14 10:31:33.793,-0.013,0.041,0.998
2026/05/14 10:31:33.812,-0.011,0.041,0.996
2026/05/14 10:31:33.831,-0.011,0.035,1.001
2026/05/14 10:31:33.850,-0.012,0.039,0.999
2026/05/14 10:31:33.869,-0.014,0.037,0.997
2026/05/14 10:31:33.888,-0.01,0.033,0.993
2026/05/14 10:31:33.907,-0.01,0.039,0.999
2026/05/14 10:31:33.926,-0.012,0.035,0.997
2026/05/14 10:31:33.945,-0.013,0.037,0.997
2026/05/14 10:31:33.964,-0.012,0.037,0.997
2026/05/14 10:31:33.984,-0.008,0.037,1.001
2026/05/14 10:31:34.003,-0.011,0.039,0.995
2026/05/14 10:31:34.022,-0.011,0.033,1.0
2026/05/14 10:31:34.041,-0.007,0.038,1.001
2026/05/14 10:31:34.060,-0.011,0.037,0.996
2026/05/14 10:31:34.079,-0.009,0.033,0.996
2026/05/14 10:31:34.098,-0.011,0.04,0.995
2026/05/14 10:31:34.117,-0.01,0.039,0.999
2026/05/14 10:31:34.136,-0.011,0.037,0.996
2026/05/14 10:31:34.155,-0.012,0.039,0.997
2026/05/14 10:31:34.174,-0.009,0.036,0.997
2026/05/14 10:31:34.193,-0.008,0.036,0.997
2026/05/14 10:31:34.212,-0.012,0.038,0.998
2026/05/14 10:31:34.231,-0.012,0.039,0.995
2026/05/14 10:31:34.250,-0.013,0.038,0.999
2026/05/14 10:31:34.269,-0.011,0.042,0.997
2026/05/14 10:31:34.289,-0.012,0.036,0.996
2026/05/14 10:31:34.308,-0.014,0.035,0.998
2026/05/14 10:31:34.327,-0.011,0.036,0.995
2026/05/14 10:31:34.346,-0.01,0.037,0.995
2026/05/14 10:31:34.365,-0.012,0.037,0.997
2026/05/14 10:31:34.384,-0.011,0.04,0.998
2026/05/14 10:31:34.403,-0.011,0.034,0.995
2026/05/14 10:31:34.422,-0.009,0.04,0.998
2026/05/14 10:31:34.441,-0.011,0.034,0.999
2026/05/14 10:31:34.460,-0.011,0.039,0.996
2026/05/14 10:31:34.479,-0.012,0.033,0.994
2026/05/14 10:31:34.498,-0.01,0.035,1.002
2026/05/14 10:31:34.517,-0.011,0.037,0.998
2026/05/14 10:31:34.536,-0.011,0.036,0.999
2026/05/14 10:31:34.555,-0.01,0.039,0.995
2026/05/14 10:31:34.574,-0.01,0.039,0.993
2026/05/14 10:31:34.594,-0.011,0.037,1.0
2026/05/14 10:31:34.613,-0.013,0.038,0.999
2026/05/14 10:31:34.632,-0.008,0.036,0.998
2026/05/14 10:31:34.651,-0.015,0.04,0.995
2026/05/14 10:31:34.670,-0.005,0.036,0.998
2026/05/14 10:31:34.689,-0.011,0.035,0.997
2026/05/14 10:31:34.708,-0.014,0.038,0.994
2026/05/14 10:31:34.727,-0.011,0.037,0.997
2026/05/14 10:31:34.746,-0.013,0.037,0.997
2026/05/14 10:31:34.765,-0.012,0.035,0.995
2026/05/14 10:31:34.784,-0.012,0.035,0.998
2026/05/14 10:31:34.803,-0.014,0.039,0.994
2026/05/14 10:31:34.822,-0.012,0.035,0.998
2026/05/14 10:31:34.841,-0.01,0.04,0.997
2026/05/14 10:31:34.860,-0.013,0.037,0.994
2026/05/14 10:31:34.879,-0.01,0.04,1.0
2026/05/14 10:31:34.898,-0.011,0.036,0.997
2026/05/14 10:31:34.918,-0.014,0.034,0.993
2026/05/14 10:31:34.937,-0.011,0.038,0.998
2026/05/14 10:31:34.956,-0.008,0.032,1.002
2026/05/14 10:31:34.975,-0.012,0.035,0.999
2026/05/14 10:31:34.994,-0.008,0.036,0.998
2026/05/14 10:31:35.013,-0.007,0.034,0.995
2026/05/14 10:31:35.032,-0.01,0.037,0.992
2026/05/14 10:31:35.051,-0.009,0.039,0.999
2026/05/14 10:31:35.070,-0.01,0.037,0.997
2026/05/14 10:31:35.089,-0.015,0.038,0.994
2026/05/14 10:31:35.108,-0.009,0.036,0.998
2026/05/14 10:31:35.127,-0.011,0.037,0.999
2026/05/14 10:31:35.146,-0.011,0.037,1.0
2026/05/14 10:31:35.165,-0.01,0.04,0.994
2026/05/14 10:31:35.184,-0.011,0.036,0.996
2026/05/14 10:31:35.203,-0.01,0.037,0.998
2026/05/14 10:31:35.223,-0.009,0.037,0.996
2026/05/14 10:31:35.242,-0.011,0.039,0.996
2026/05/14 10:31:35.261,-0.009,0.035,0.989
2026/05/14 10:31:35.280,-0.008,0.038,0.996
2026/05/14 10:31:35.299,-0.015,0.034,1.0
2026/05/14 10:31:35.318,-0.011,0.04,0.999
2026/05/14 10:31:35.337,-0.01,0.035,0.993
2026/05/14 10:31:35.356,-0.012,0.039,1.002
2026/05/14 10:31:35.375,-0.007,0.039,0.997
2026/05/14 10:31:35.394,-0.011,0.041,0.994
2026/05/14 10:31:35.413,-0.01,0.041,0.994
2026/05/14 10:31:35.432,-0.01,0.037,0.999
2026/05/14 10:31:35.451,-0.009,0.037,0.999
2026/05/14 10:31:35.470,-0.01,0.035,0.998
2026/05/14 10:31:35.489,-0.013,0.041,1.005
2026/05/14 10:31:35.508,-0.008,0.037,0.999
2026/05/14 10:31:35.527,-0.013,0.038,1.0
2026/05/14 10:31:35.547,-0.012,0.035,0.996
2026/05/14 10:31:35.566,-0.012,0.038,0.996
2026/05/14 10:31:35.585,-0.01,0.037,0.994
2026/05/14 10:31:35.604,-0.009,0.037,0.989
2026/05/14 10:31:35.623,-0.013,0.035,0.995
2026/05/14 10:31:35.642,-0.009,0.041,1.0
2026/05/14 10:31:35.661,-0.011,0.043,0.997
2026/05/14 10:31:35.680,-0.009,0.038,0.997
2026/05/14 10:31:35.699,-0.012,0.034,0.998
2026/05/14 10:31:35.718,-0.009,0.04,0.996
2026/05/14 10:31:35.737,-0.008,0.035,0.992
2026/05/14 10:31:35.756,-0.012,0.037,1.0
2026/05/14 10:31:35.775,-0.009,0.035,0.996
2026/05/14 10:31:35.794,-0.011,0.038,0.995
2026/05/14 10:31:35.813,-0.01,0.04,0.999
2026/05/14 10:31:35.832,-0.01,0.038,0.995
2026/05/14 10:31:35.852,-0.012,0.039,0.99
2026/05/14 10:31:35.871,-0.011,0.033,0.993
2026/05/14 10:31:35.890,-0.013,0.038,0.998
2026/05/14 10:31:35.909,-0.011,0.036,0.995
2026/05/14 10:31:35.928,-0.013,0.041,0.997
2026/05/14 10:31:35.947,-0.01,0.036,0.996
2026/05/14 10:31:35.966,-0.014,0.037,0.997
2026/05/14 10:31:35.985,-0.009,0.035,0.999
2026/05/14 10:31:36.004,-0.01,0.036,0.994
2026/05/14 10:31:36.023,-0.013,0.036,0.997
2026/05/14 10:31:36.042,-0.011,0.038,0.998
2026/05/14 10:31:36.061,-0.011,0.041,0.998
2026/05/14 10:31:36.080,-0.008,0.035,0.998
2026/05/14 10:31:36.099,-0.011,0.038,0.998
2026/05/14 10:31:36.118,-0.008,0.039,0.996
2026/05/14 10:31:36.137,-0.01,0.041,0.998
2026/05/14 10:31:36.156,-0.01,0.038,0.991
2026/05/14 10:31:36.176,-0.014,0.038,0.997
2026/05/14 10:31:36.195,-0.015,0.039,0.998
2026/05/14 10:31:36.214,-0.012,0.035,0.996
2026/05/14 10:31:36.233,-0.012,0.041,1.002
2026/05/14 10:31:36.252,-0.01,0.037,0.995
2026/05/14 10:31:36.271,-0.01,0.041,1.0
2026/05/14 10:31:36.290,-0.011,0.039,0.996
2026/05/14 10:31:36.309,-0.012,0.041,0.997
2026/05/14 10:31:36.328,-0.01,0.037,0.998
2026/05/14 10:31:36.347,-0.009,0.037,0.995
2026/05/14 10:31:36.366,-0.015,0.041,0.998
2026/05/14 10:31:36.385,-0.014,0.034,0.998
2026/05/14 10:31:36.404,-0.012,0.034,0.998
2026/05/14 10:31:36.423,-0.012,0.038,0.997
2026/05/14 10:31:36.442,-0.009,0.037,0.999
2026/05/14 10:31:36.461,-0.01,0.039,1.0
2026/05/14 10:31:36.481,-0.008,0.036,0.995
2026/05/14 10:31:36.500,-0.009,0.035,0.997
2026/05/14 10:31:36.519,-0.008,0.036,0.996
2026/05/14 10:31:36.538,-0.009,0.038,0.995
2026/05/14 10:31:36.557,-0.014,0.037,0.996
2026/05/14 10:31:36.576,-0.013,0.036,0.997
2026/05/14 10:31:36.595,-0.01,0.036,0.997
2026/05/14 10:31:36.614,-0.008,0.035,0.994
2026/05/14 10:31:36.633,-0.011,0.037,0.997
2026/05/14 10:31:36.652,-0.006,0.035,0.997
2026/05/14 10:31:36.671,-0.011,0.039,0.999
2026/05/14 10:31:36.690,-0.009,0.036,0.999
2026/05/14 10:31:36.709,-0.009,0.039,0.997
2026/05/14 10:31:36.728,-0.01,0.037,1.001
2026/05/14 10:31:36.747,-0.01,0.037,0.995
2026/05/14 10:31:36.766,-0.011,0.037,0.994
2026/05/14 10:31:36.785,-0.01,0.036,0.999
2026/05/14 10:31:36.805,-0.01,0.037,0.996
2026/05/14 10:31:36.824,-0.011,0.039,0.995
2026/05/14 10:31:36.843,-0.009,0.038,0.993
2026/05/14 10:31:36.862,-0.01,0.041,0.997
2026/05/14 10:31:36.881,-0.011,0.039,0.995
2026/05/14 10:31:36.900,-0.012,0.036,0.999
2026/05/14 10:31:36.919,-0.012,0.039,0.997
2026/05/14 10:31:36.938,-0.006,0.034,0.996
2026/05/14 10:31:36.957,-0.016,0.037,0.999
2026/05/14 10:31:36.976,-0.007,0.038,0.995
2026/05/14 10:31:36.995,-0.013,0.045,1.0
2026/05/14 10:31:37.014,-0.015,0.037,0.995
2026/05/14 10:31:37.033,-0.011,0.035,0.996
2026/05/14 10:31:37.052,-0.013,0.04,0.997
2026/05/14 10:31:37.071,-0.01,0.037,0.997
2026/05/14 10:31:37.090,-0.013,0.037,1.002
2026/05/14 10:31:37.110,-0.011,0.036,0.994
2026/05/14 10:31:37.129,-0.011,0.039,0.998
2026/05/14 10:31:37.148,-0.01,0.038,0.994
2026/05/14 10:31:37.167,-0.013,0.037,0.999
2026/05/14 10:31:37.186,-0.01,0.038,0.996
2026/05/14 10:31:37.205,-0.01,0.038,0.992
2026/05/14 10:31:37.224,-0.008,0.037,0.999
2026/05/14 10:31:37.243,-0.009,0.04,0.992
2026/05/14 10:31:37.262,-0.013,0.039,0.995
2026/05/14 10:31:37.281,-0.011,0.037,1.0
2026/05/14 10:31:37.300,-0.011,0.036,0.999
2026/05/14 10:31:37.319,-0.015,0.031,0.994
2026/05/14 10:31:37.338,-0.01,0.035,0.997
2026/05/14 10:31:37.357,-0.008,0.038,0.998
2026/05/14 10:31:37.376,-0.009,0.035,0.997
2026/05/14 10:31:37.395,-0.01,0.039,0.996
2026/05/14 10:31:37.414,-0.008,0.036,0.997
2026/05/14 10:31:37.434,-0.011,0.034,0.999
2026/05/14 10:31:37.453,-0.012,0.038,0.996
2026/05/14 10:31:37.472,-0.012,0.037,0.999
2026/05/14 10:31:37.491,-0.012,0.039,0.999
2026/05/14 10:31:37.510,-0.011,0.036,0.995
2026/05/14 10:31:37.529,-0.013,0.034,0.995
2026/05/14 10:31:37.548,-0.011,0.037,0.996
2026/05/14 10:31:37.567,-0.008,0.035,0.998
2026/05/14 10:31:37.586,-0.011,0.037,1.0
2026/05/14 10:31:37.605,-0.01,0.036,0.994
2026/05/14 10:31:37.624,-0.015,0.035,0.998
2026/05/14 10:31:37.643,-0.011,0.039,0.996
2026/05/14 10:31:37.662,-0.008,0.038,0.996
2026/05/14 10:31:37.681,-0.01,0.038,0.995
2026/05/14 10:31:37.700,-0.016,0.038,0.991
2026/05/14 10:31:37.719,-0.01,0.038,0.993
2026/05/14 10:31:37.739,-0.014,0.037,1.004
2026/05/14 10:31:37.758,-0.011,0.039,0.999
2026/05/14 10:31:37.777,-0.011,0.034,0.997
2026/05/14 10:31:37.796,-0.01,0.041,0.996
2026/05/14 10:31:37.815,-0.009,0.033,0.998
2026/05/14 10:31:37.834,-0.01,0.038,0.999
2026/05/14 10:31:37.853,-0.011,0.042,0.995
2026/05/14 10:31:37.872,-0.012,0.037,1.001
2026/05/14 10:31:37.891,-0.011,0.039,0.997
2026/05/14 10:31:37.910,-0.011,0.038,0.994
2026/05/14 10:31:37.929,-0.011,0.042,1.001
2026/05/14 10:31:37.948,-0.015,0.04,0.994
2026/05/14 10:31:37.967,-0.009,0.037,0.994
2026/05/14 10:31:37.986,-0.012,0.038,1.0
2026/05/14 10:31:38.005,-0.014,0.038,0.996
2026/05/14 10:31:38.024,-0.017,0.034,0.998
2026/05/14 10:31:38.044,-0.01,0.039,0.999
2026/05/14 10:31:38.063,-0.01,0.038,0.994
2026/05/14 10:31:38.082,-0.012,0.041,0.996
2026/05/14 10:31:38.101,-0.011,0.036,0.996
2026/05/14 10:31:38.120,-0.012,0.038,1.0
2026/05/14 10:31:38.139,-0.009,0.035,0.997
2026/05/14 10:31:38.158,-0.014,0.04,0.994
2026/05/14 10:31:38.177,-0.014,0.036,0.998
2026/05/14 10:31:38.196,-0.012,0.04,0.996
2026/05/14 10:31:38.215,-0.009,0.037,0.997
2026/05/14 10:31:38.234,-0.012,0.034,0.998
2026/05/14 10:31:38.253,-0.008,0.036,0.992
2026/05/14 10:31:38.272,-0.008,0.041,0.998
2026/05/14 10:31:38.291,-0.015,0.04,0.996
2026/05/14 10:31:38.310,-0.011,0.039,0.993
2026/05/14 10:31:38.329,-0.01,0.038,0.995
2026/05/14 10:31:38.348,-0.014,0.039,0.994
2026/05/14 10:31:38.368,-0.01,0.038,1.0
2026/05/14 10:31:38.387,-0.014,0.035,0.995
2026/05/14 10:31:38.406,-0.01,0.035,1.0
2026/05/14 10:31:38.425,-0.01,0.038,0.997
2026/05/14 10:31:38.444,-0.011,0.041,1.0
2026/05/14 10:31:38.463,-0.009,0.036,0.996
2026/05/14 10:31:38.482,-0.011,0.039,0.996
2026/05/14 10:31:38.501,-0.006,0.035,0.994
2026/05/14 10:31:38.520,-0.007,0.036,0.995
2026/05/14 10:31:38.539,-0.012,0.039,0.996
2026/05/14 10:31:38.558,-0.011,0.04,0.998
2026/05/14 10:31:38.577,-0.008,0.038,0.992
2026/05/14 10:31:38.596,-0.013,0.037,0.997
2026/05/14 10:31:38.615,-0.007,0.039,0.999
2026/05/14 10:31:38.634,-0.009,0.035,0.996
2026/05/14 10:31:38.653,-0.008,0.037,0.997
2026/05/14 10:31:38.673,-0.01,0.035,0.993
2026/05/14 10:31:38.692,-0.013,0.04,0.997
2026/05/14 10:31:38.711,-0.009,0.039,1.002
2026/05/14 10:31:38.730,-0.012,0.041,0.999
2026/05/14 10:31:38.749,-0.015,0.038,0.996
2026/05/14 10:31:38.768,-0.009,0.036,0.993
2026/05/14 10:31:38.787,-0.012,0.037,0.998
2026/05/14 10:31:38.806,-0.015,0.037,0.998
2026/05/14 10:31:38.825,-0.011,0.038,0.998
2026/05/14 10:31:38.844,-0.011,0.039,0.998
2026/05/14 10:31:38.863,-0.01,0.039,0.999
2026/05/14 10:31:38.882,-0.014,0.037,0.997
2026/05/14 10:31:38.901,-0.01,0.037,0.994
2026/05/14 10:31:38.920,-0.007,0.04,0.997
2026/05/14 10:31:38.939,-0.01,0.039,0.995
2026/05/14 10:31:38.958,-0.012,0.039,1.0
2026/05/14 10:31:38.978,-0.011,0.037,0.996
2026/05/14 10:31:38.997,-0.011,0.039,0.994
2026/05/14 10:31:39.016,-0.008,0.035,0.999
2026/05/14 10:31:39.035,-0.012,0.041,0.995
2026/05/14 10:31:39.054,-0.011,0.038,0.993
2026/05/14 10:31:39.073,-0.008,0.038,1.002
2026/05/14 10:31:39.092,-0.01,0.034,0.997
2026/05/14 10:31:39.111,-0.012,0.038,0.996
2026/05/14 10:31:39.130,-0.013,0.04,0.994
2026/05/14 10:31:39.149,-0.011,0.039,0.996
2026/05/14 10:31:39.168,-0.009,0.037,0.996
2026/05/14 10:31:39.187,-0.011,0.038,0.997
2026/05/14 10:31:39.206,-0.012,0.041,0.998
2026/05/14 10:31:39.225,-0.011,0.036,0.995
2026/05/14 10:31:39.244,-0.012,0.038,0.998
2026/05/14 10:31:39.263,-0.012,0.038,0.995
2026/05/14 10:31:39.283,-0.009,0.035,0.996
2026/05/14 10:31:39.302,-0.011,0.038,0.996
2026/05/14 10:31:39.321,-0.009,0.037,0.999
2026/05/14 10:31:39.340,-0.007,0.035,0.997
2026/05/14 10:31:39.359,-0.012,0.038,0.995
2026/05/14 10:31:39.378,-0.008,0.033,0.998
2026/05/14 10:31:39.397,-0.011,0.041,0.995
2026/05/14 10:31:39.416,-0.009,0.042,0.998
2026/05/14 10:31:39.435,-0.011,0.037,0.991
2026/05/14 10:31:39.454,-0.013,0.036,0.995
2026/05/14 10:31:39.473,-0.008,0.038,0.997
2026/05/14 10:31:39.492,-0.009,0.037,0.996
2026/05/14 10:31:39.511,-0.01,0.036,0.999
2026/05/14 10:31:39.530,-0.012,0.038,0.999
2026/05/14 10:31:39.549,-0.008,0.037,1.002
2026/05/14 10:31:39.568,-0.009,0.035,0.994
2026/05/14 10:31:39.587,-0.014,0.036,0.994
2026/05/14 10:31:39.607,-0.011,0.034,0.995
2026/05/14 10:31:39.626,-0.009,0.035,0.992
2026/05/14 10:31:39.645,-0.009,0.033,0.997
2026/05/14 10:31:39.664,-0.01,0.037,0.993
2026/05/14 10:31:39.683,-0.01,0.035,0.992
2026/05/14 10:31:39.702,-0.011,0.038,0.996
2026/05/14 10:31:39.721,-0.01,0.04,0.998
2026/05/14 10:31:39.740,-0.011,0.035,0.997
2026/05/14 10:31:39.759,-0.01,0.034,0.995
2026/05/14 10:31:39.778,-0.008,0.036,0.995
2026/05/14 10:31:39.797,-0.01,0.033,0.999
2026/05/14 10:31:39.816,-0.011,0.037,1.001
2026/05/14 10:31:39.835,-0.016,0.041,0.998
2026/05/14 10:31:39.854,-0.012,0.039,0.998
2026/05/14 10:31:39.873,-0.012,0.036,0.996
2026/05/14 10:31:39.892,-0.016,0.035,0.995
2026/05/14 10:31:39.912,-0.013,0.035,1.001
2026/05/14 10:31:39.931,-0.009,0.038,0.995
2026/05/14 10:31:39.950,-0.013,0.039,0.994
2026/05/14 10:31:39.969,-0.013,0.038,0.999
2026/05/14 10:31:39.988,-0.013,0.036,0.998
2026/05/14 10:31:40.007,-0.009,0.037,0.997
2026/05/14 10:31:40.026,-0.014,0.036,0.999
2026/05/14 10:31:40.045,-0.011,0.04,1.001
2026/05/14 10:31:40.064,-0.012,0.036,0.998
2026/05/14 10:31:40.083,-0.008,0.034,0.999
2026/05/14 10:31:40.102,-0.01,0.04,1.002
2026/05/14 10:31:40.121,-0.015,0.034,0.997
2026/05/14 10:31:40.140,-0.011,0.036,0.997
2026/05/14 10:31:40.159,-0.008,0.035,0.998
2026/05/14 10:31:40.178,-0.008,0.04,0.998
2026/05/14 10:31:40.197,-0.011,0.038,0.999
2026/05/14 10:31:40.217,-0.014,0.035,0.998
2026/05/14 10:31:40.236,-0.012,0.037,0.999
2026/05/14 10:31:40.255,-0.012,0.037,0.998
2026/05/14 10:31:40.274,-0.014,0.037,0.997
2026/05/14 10:31:40.293,-0.01,0.036,0.994
2026/05/14 10:31:40.312,-0.012,0.034,0.996
2026/05/14 10:31:40.331,-0.012,0.041,0.994
2026/05/14 10:31:40.350,-0.011,0.04,1.0
2026/05/14 10:31:40.369,-0.011,0.037,0.998
2026/05/14 10:31:40.388,-0.01,0.032,0.992
2026/05/14 10:31:40.407,-0.011,0.036,0.998
2026/05/14 10:31:40.426,-0.011,0.036,0.996
2026/05/14 10:31:40.445,-0.011,0.037,0.996
2026/05/14 10:31:40.464,-0.012,0.039,1.0
2026/05/14 10:31:40.483,-0.014,0.037,0.994
2026/05/14 10:31:40.502,-0.011,0.035,1.002
2026/05/14 10:31:40.521,-0.01,0.037,0.998
2026/05/14 10:31:40.541,-0.011,0.038,0.996
2026/05/14 10:31:40.560,-0.013,0.038,0.996
2026/05/14 10:31:40.579,-0.008,0.039,0.996
2026/05/14 10:31:40.598,-0.014,0.039,0.996
2026/05/14 10:31:40.617,-0.007,0.033,0.999
2026/05/14 10:31:40.636,-0.011,0.036,0.999
2026/05/14 10:31:40.655,-0.012,0.039,0.999
2026/05/14 10:31:40.674,-0.008,0.036,0.995
2026/05/14 10:31:40.693,-0.01,0.037,0.993
2026/05/14 10:31:40.712,-0.011,0.039,0.993
2026/05/14 10:31:40.731,-0.01,0.038,0.998
2026/05/14 10:31:40.750,-0.011,0.04,0.998
2026/05/14 10:31:40.769,-0.01,0.036,0.997
2026/05/14 10:31:40.788,-0.011,0.038,0.996
2026/05/14 10:31:40.807,-0.01,0.038,0.996
2026/05/14 10:31:40.826,-0.009,0.035,0.996
2026/05/14 10:31:40.846,-0.011,0.036,0.996
2026/05/14 10:31:40.865,-0.01,0.037,0.993
2026/05/14 10:31:40.884,-0.01,0.042,0.997
2026/05/14 10:31:40.903,-0.012,0.04,0.998
2026/05/14 10:31:40.922,-0.01,0.037,0.994
2026/05/14 10:31:40.941,-0.01,0.037,0.997
2026/05/14 10:31:40.960,-0.008,0.036,0.998
2026/05/14 10:31:40.979,-0.012,0.039,0.999
2026/05/14 10:31:40.998,-0.013,0.037,0.998
2026/05/14 10:31:41.017,-0.011,0.038,0.998
2026/05/14 10:31:41.036,-0.009,0.036,0.999
2026/05/14 10:31:41.055,-0.01,0.039,0.994
2026/05/14 10:31:41.074,-0.012,0.038,0.998
2026/05/14 10:31:41.093,-0.015,0.04,0.993
2026/05/14 10:31:41.112,-0.012,0.035,0.997
2026/05/14 10:31:41.131,-0.008,0.039,0.997
2026/05/14 10:31:41.150,-0.014,0.036,0.995
2026/05/14 10:31:41.170,-0.013,0.037,0.994
2026/05/14 10:31:41.189,-0.013,0.04,0.996
2026/05/14 10:31:41.208,-0.01,0.04,0.999
2026/05/14 10:31:41.227,-0.01,0.041,0.994
2026/05/14 10:31:41.246,-0.006,0.037,0.998
2026/05/14 10:31:41.265,-0.014,0.037,0.999
2026/05/14 10:31:41.284,-0.01,0.036,0.999
2026/05/14 10:31:41.303,-0.01,0.034,0.997
2026/05/14 10:31:41.322,-0.01,0.038,0.992
2026/05/14 10:31:41.341,-0.014,0.038,0.995
2026/05/14 10:31:41.360,-0.007,0.04,0.999
2026/05/14 10:31:41.379,-0.01,0.033,0.994
2026/05/14 10:31:41.398,-0.012,0.035,0.993
2026/05/14 10:31:41.417,-0.012,0.04,0.999
2026/05/14 10:31:41.436,-0.014,0.038,1.0
2026/05/14 10:31:41.455,-0.011,0.037,0.998
2026/05/14 10:31:41.475,-0.01,0.034,0.992
2026/05/14 10:31:41.494,-0.008,0.036,0.997
2026/05/14 10:31:41.513,-0.007,0.035,0.995
2026/05/14 10:31:41.532,-0.009,0.036,0.994
2026/05/14 10:31:41.551,-0.009,0.035,0.995
2026/05/14 10:31:41.570,-0.01,0.041,0.999
2026/05/14 10:31:41.589,-0.013,0.037,0.998
2026/05/14 10:31:41.608,-0.013,0.035,0.995
2026/05/14 10:31:41.627,-0.009,0.035,0.996
2026/05/14 10:31:41.646,-0.014,0.041,0.996
2026/05/14 10:31:41.665,-0.01,0.038,0.992
2026/05/14 10:31:41.684,-0.008,0.037,0.994
2026/05/14 10:31:41.703,-0.012,0.038,1.0
2026/05/14 10:31:41.722,-0.012,0.035,0.993
2026/05/14 10:31:41.741,-0.01,0.036,0.995
2026/05/14 10:31:41.760,-0.009,0.033,0.994
2026/05/14 10:31:41.779,-0.015,0.036,0.999
2026/05/14 10:31:41.799,-0.009,0.037,0.995
2026/05/14 10:31:41.818,-0.014,0.038,0.998
2026/05/14 10:31:41.837,-0.013,0.038,1.0
2026/05/14 10:31:41.856,-0.014,0.04,0.994
2026/05/14 10:31:41.875,-0.014,0.035,0.999
2026/05/14 10:31:41.894,-0.009,0.037,1.001
2026/05/14 10:31:41.913,-0.013,0.039,1.0
2026/05/14 10:31:41.932,-0.013,0.037,0.999
2026/05/14 10:31:41.951,-0.015,0.036,0.995
2026/05/14 10:31:41.970,-0.013,0.041,0.993
2026/05/14 10:31:41.989,-0.011,0.038,1.0
2026/05/14 10:31:42.008,-0.012,0.038,0.998
2026/05/14 10:31:42.027,-0.01,0.036,0.997
2026/05/14 10:31:42.046,-0.013,0.035,0.997
2026/05/14 10:31:42.065,-0.014,0.036,0.994
2026/05/14 10:31:42.084,-0.008,0.038,0.994
2026/05/14 10:31:42.104,-0.012,0.038,0.995
2026/05/14 10:31:42.123,-0.012,0.033,0.993
2026/05/14 10:31:42.142,-0.011,0.04,0.998
2026/05/14 10:31:42.161,-0.01,0.039,0.997
2026/05/14 10:31:42.180,-0.009,0.034,0.994
2026/05/14 10:31:42.199,-0.012,0.039,0.996
2026/05/14 10:31:42.218,-0.01,0.035,0.998
2026/05/14 10:31:42.237,-0.012,0.036,0.999
2026/05/14 10:31:42.256,-0.009,0.038,0.998
2026/05/14 10:31:42.275,-0.009,0.037,0.997
2026/05/14 10:31:42.294,-0.01,0.036,0.999
2026/05/14 10:31:42.313,-0.016,0.036,0.996
2026/05/14 10:31:42.332,-0.008,0.037,0.996
2026/05/14 10:31:42.351,-0.011,0.038,0.995
2026/05/14 10:31:42.370,-0.011,0.035,0.994
2026/05/14 10:31:42.389,-0.015,0.039,1.0
2026/05/14 10:31:42.408,-0.01,0.036,0.992
2026/05/14 10:31:42.428,-0.01,0.037,0.998
2026/05/14 10:31:42.447,-0.015,0.036,0.996
2026/05/14 10:31:42.466,-0.009,0.04,0.995
2026/05/14 10:31:42.485,-0.013,0.036,0.997
2026/05/14 10:31:42.504,-0.012,0.036,0.991
2026/05/14 10:31:42.523,-0.009,0.039,0.993
2026/05/14 10:31:42.542,-0.012,0.039,0.994
2026/05/14 10:31:42.561,-0.012,0.035,0.995
2026/05/14 10:31:42.580,-0.011,0.038,0.994
2026/05/14 10:31:42.599,-0.008,0.035,0.995
2026/05/14 10:31:42.618,-0.012,0.038,0.995
2026/05/14 10:31:42.637,-0.01,0.038,0.996
2026/05/14 10:31:42.656,-0.012,0.036,0.993
2026/05/14 10:31:42.675,-0.015,0.04,0.994
2026/05/14 10:31:42.694,-0.009,0.039,0.998
2026/05/14 10:31:42.713,-0.013,0.039,0.997
2026/05/14 10:31:42.733,-0.01,0.035,0.996
2026/05/14 10:31:42.752,-0.011,0.042,0.997
2026/05/14 10:31:42.771,-0.014,0.039,0.997
2026/05/14 10:31:42.790,-0.009,0.037,0.997
2026/05/14 10:31:42.809,-0.007,0.037,0.996
2026/05/14 10:31:42.828,-0.01,0.039,0.997
2026/05/14 10:31:42.847,-0.01,0.041,0.996
2026/05/14 10:31:42.866,-0.007,0.039,0.994
2026/05/14 10:31:42.885,-0.011,0.037,0.997
2026/05/14 10:31:42.904,-0.009,0.038,0.999
2026/05/14 10:31:42.923,-0.012,0.034,0.995
2026/05/14 10:31:42.942,-0.014,0.038,0.992
2026/05/14 10:31:42.961,-0.013,0.033,0.997
2026/05/14 10:31:42.980,-0.01,0.035,0.998
2026/05/14 10:31:42.999,-0.007,0.038,0.995
2026/05/14 10:31:43.018,-0.008,0.038,0.998
2026/05/14 10:31:43.037,-0.012,0.036,0.995
2026/05/14 10:31:43.057,-0.008,0.038,1.0
2026/05/14 10:31:43.076,-0.011,0.04,0.995
2026/05/14 10:31:43.095,-0.012,0.036,0.996
2026/05/14 10:31:43.114,-0.016,0.036,0.994
2026/05/14 10:31:43.133,-0.011,0.033,0.997
2026/05/14 10:31:43.152,-0.011,0.039,1.001
2026/05/14 10:31:43.171,-0.008,0.042,0.997
2026/05/14 10:31:43.190,-0.01,0.036,0.997
2026/05/14 10:31:43.209,-0.014,0.036,1.001
2026/05/14 10:31:43.228,-0.013,0.038,0.996
2026/05/14 10:31:43.247,-0.008,0.041,0.994
2026/05/14 10:31:43.266,-0.013,0.034,0.999
2026/05/14 10:31:43.285,-0.01,0.041,0.996
2026/05/14 10:31:43.304,-0.01,0.037,0.994
2026/05/14 10:31:43.323,-0.011,0.035,0.995
2026/05/14 10:31:43.342,-0.01,0.038,0.999
2026/05/14 10:31:43.361,-0.013,0.036,0.997
2026/05/14 10:31:43.381,-0.011,0.04,0.997
2026/05/14 10:31:43.400,-0.012,0.035,0.998
2026/05/14 10:31:43.419,-0.01,0.043,0.997
2026/05/14 10:31:43.438,-0.013,0.038,0.997
2026/05/14 10:31:43.457,-0.01,0.037,1.0
2026/05/14 10:31:43.476,-0.013,0.037,0.994
2026/05/14 10:31:43.495,-0.007,0.035,0.997
2026/05/14 10:31:43.514,-0.008,0.037,0.993
2026/05/14 10:31:43.533,-0.011,0.035,1.0
2026/05/14 10:31:43.552,-0.014,0.035,0.998
2026/05/14 10:31:43.571,-0.012,0.037,0.999
2026/05/14 10:31:43.590,-0.013,0.042,0.995
2026/05/14 10:31:43.609,-0.012,0.037,0.999
2026/05/14 10:31:43.628,-0.013,0.037,0.999
2026/05/14 10:31:43.647,-0.009,0.035,0.995
2026/05/14 10:31:43.666,-0.013,0.037,0.996
2026/05/14 10:31:43.685,-0.011,0.039,1.0
2026/05/14 10:31:43.705,-0.013,0.04,0.996
2026/05/14 10:31:43.724,-0.011,0.039,1.0
2026/05/14 10:31:43.743,-0.008,0.039,1.001
2026/05/14 10:31:43.762,-0.009,0.039,0.998
2026/05/14 10:31:43.781,-0.014,0.039,0.994
2026/05/14 10:31:43.800,-0.006,0.037,0.997
2026/05/14 10:31:43.819,-0.009,0.037,0.997
2026/05/14 10:31:43.838,-0.012,0.035,0.995
2026/05/14 10:31:43.857,-0.009,0.036,0.993
2026/05/14 10:31:43.876,-0.01,0.037,0.994
2026/05/14 10:31:43.895,-0.011,0.038,0.996
2026/05/14 10:31:43.914,-0.013,0.037,0.994
2026/05/14 10:31:43.933,-0.011,0.037,0.993
2026/05/14 10:31:43.952,-0.008,0.038,0.997
2026/05/14 10:31:43.971,-0.007,0.039,0.994
2026/05/14 10:31:43.990,-0.008,0.04,0.999
2026/05/14 10:31:44.009,-0.015,0.035,0.995
2026/05/14 10:31:44.029,-0.012,0.042,1.0
2026/05/14 10:31:44.048,-0.01,0.041,0.996
2026/05/14 10:31:44.067,-0.012,0.041,0.995
2026/05/14 10:31:44.086,-0.01,0.037,1.001
2026/05/14 10:31:44.105,-0.013,0.038,0.996
2026/05/14 10:31:44.124,-0.012,0.04,0.997
2026/05/14 10:31:44.143,-0.013,0.038,0.997
2026/05/14 10:31:44.162,-0.009,0.033,0.996
2026/05/14 10:31:44.181,-0.008,0.037,0.998
2026/05/14 10:31:44.200,-0.013,0.035,0.998
2026/05/14 10:31:44.219,-0.008,0.037,0.995
2026/05/14 10:31:44.238,-0.012,0.042,0.998
2026/05/14 10:31:44.257,-0.015,0.037,0.997
2026/05/14 10:31:44.276,-0.008,0.036,0.994
2026/05/14 10:31:44.295,-0.011,0.038,0.998
2026/05/14 10:31:44.314,-0.009,0.041,0.995
2026/05/14 10:31:44.333,-0.011,0.041,0.997
2026/05/14 10:31:44.353,-0.01,0.037,0.998
2026/05/14 10:31:44.372,-0.013,0.036,0.996
2026/05/14 10:31:44.391,-0.009,0.037,0.997
2026/05/14 10:31:44.410,-0.008,0.04,0.996
2026/05/14 10:31:44.429,-0.014,0.035,0.995
2026/05/14 10:31:44.448,-0.009,0.036,0.998
2026/05/14 10:31:44.467,-0.012,0.036,0.998
2026/05/14 10:31:44.486,-0.008,0.036,0.998
2026/05/14 10:31:44.505,-0.013,0.036,0.999
2026/05/14 10:31:44.524,-0.009,0.036,0.997
2026/05/14 10:31:44.543,-0.009,0.037,1.005
2026/05/14 10:31:44.562,-0.01,0.038,0.994
2026/05/14 10:31:44.581,-0.011,0.036,0.999
2026/05/14 10:31:44.600,-0.011,0.035,0.996
2026/05/14 10:31:44.619,-0.009,0.032,0.993
2026/05/14 10:31:44.638,-0.01,0.032,0.999
2026/05/14 10:31:44.657,-0.011,0.041,0.993
2026/05/14 10:31:44.677,-0.01,0.035,0.997
2026/05/14 10:31:44.696,-0.01,0.037,0.997
2026/05/14 10:31:44.715,-0.011,0.043,0.996
2026/05/14 10:31:44.734,-0.011,0.042,0.995
2026/05/14 10:31:44.753,-0.014,0.04,0.996
2026/05/14 10:31:44.772,-0.01,0.038,0.997
2026/05/14 10:31:44.791,-0.012,0.036,1.001
2026/05/14 10:31:44.810,-0.008,0.038,0.998
2026/05/14 10:31:44.829,-0.016,0.036,0.998
2026/05/14 10:31:44.848,-0.014,0.035,0.998
2026/05/14 10:31:44.867,-0.011,0.039,0.995
2026/05/14 10:31:44.886,-0.015,0.037,1.002
2026/05/14 10:31:44.905,-0.013,0.037,0.997
2026/05/14 10:31:44.924,-0.011,0.039,0.996
2026/05/14 10:31:44.943,-0.012,0.039,1.0
2026/05/14 10:31:44.962,-0.008,0.039,0.995
2026/05/14 10:31:44.981,-0.012,0.036,0.995
2026/05/14 10:31:45.001,-0.012,0.037,0.999
2026/05/14 10:31:45.020,-0.011,0.037,0.999
2026/05/14 10:31:45.039,-0.014,0.038,0.995
2026/05/14 10:31:45.058,-0.012,0.039,0.996
2026/05/14 10:31:45.077,-0.015,0.035,0.996
2026/05/14 10:31:45.096,-0.007,0.033,0.997
2026/05/14 10:31:45.115,-0.011,0.037,0.998
2026/05/14 10:31:45.134,-0.011,0.034,0.994
2026/05/14 10:31:45.153,-0.012,0.04,0.998
2026/05/14 10:31:45.172,-0.01,0.04,1.001
2026/05/14 10:31:45.191,-0.008,0.035,0.996
2026/05/14 10:31:45.210,-0.016,0.041,0.996
2026/05/14 10:31:45.229,-0.011,0.037,0.994
2026/05/14 10:31:45.248,-0.012,0.034,0.997
2026/05/14 10:31:45.267,-0.01,0.035,0.995
2026/05/14 10:31:45.286,-0.012,0.039,0.994
2026/05/14 10:31:45.306,-0.009,0.042,0.997
2026/05/14 10:31:45.325,-0.008,0.037,0.999
2026/05/14 10:31:45.344,-0.007,0.037,0.995
2026/05/14 10:31:45.363,-0.01,0.038,0.996
2026/05/14 10:31:45.382,-0.016,0.039,1.0
2026/05/14 10:31:45.401,-0.01,0.039,0.998
2026/05/14 10:31:45.420,-0.014,0.04,0.999
2026/05/14 10:31:45.439,-0.013,0.036,0.998
2026/05/14 10:31:45.458,-0.013,0.037,0.994
2026/05/14 10:31:45.477,-0.011,0.037,1.0
2026/05/14 10:31:45.496,-0.011,0.039,0.997
2026/05/14 10:31:45.515,-0.013,0.034,1.001
2026/05/14 10:31:45.534,-0.01,0.036,0.999
2026/05/14 10:31:45.553,-0.01,0.04,0.998
2026/05/14 10:31:45.572,-0.013,0.039,1.0
2026/05/14 10:31:45.591,-0.01,0.034,1.002
2026/05/14 10:31:45.610,-0.016,0.041,0.998
2026/05/14 10:31:45.629,-0.012,0.039,0.995
2026/05/14 10:31:45.649,-0.01,0.042,1.002
2026/05/14 10:31:45.668,-0.012,0.038,0.993
2026/05/14 10:31:45.687,-0.009,0.037,0.996
2026/05/14 10:31:45.706,-0.012,0.039,0.997
2026/05/14 10:31:45.725,-0.009,0.038,0.998
2026/05/14 10:31:45.744,-0.008,0.036,0.998
2026/05/14 10:31:45.763,-0.014,0.041,0.997
2026/05/14 10:31:45.782,-0.012,0.04,1.0
2026/05/14 10:31:45.801,-0.015,0.035,0.998
2026/05/14 10:31:45.820,-0.01,0.039,1.0
2026/05/14 10:31:45.839,-0.01,0.038,0.996
2026/05/14 10:31:45.858,-0.012,0.034,0.996
2026/05/14 10:31:45.877,-0.008,0.034,0.998
2026/05/14 10:31:45.896,-0.013,0.033,0.997
2026/05/14 10:31:45.915,-0.01,0.036,0.997
2026/05/14 10:31:45.934,-0.01,0.038,1.002
2026/05/14 10:31:45.953,-0.011,0.034,0.999
2026/05/14 10:31:45.973,-0.009,0.04,0.999
2026/05/14 10:31:45.992,-0.01,0.039,0.998
2026/05/14 10:31:46.011,-0.008,0.039,0.997
2026/05/14 10:31:46.030,-0.01,0.039,1.003
2026/05/14 10:31:46.049,-0.012,0.035,0.999
2026/05/14 10:31:46.068,-0.014,0.039,0.996
2026/05/14 10:31:46.087,-0.013,0.037,0.998
2026/05/14 10:31:46.106,-0.012,0.037,0.997
2026/05/14 10:31:46.125,-0.012,0.037,0.994
2026/05/14 10:31:46.144,-0.013,0.037,0.997
2026/05/14 10:31:46.163,-0.007,0.035,0.998
2026/05/14 10:31:46.182,-0.011,0.039,0.997
2026/05/14 10:31:46.201,-0.011,0.037,0.995
2026/05/14 10:31:46.220,-0.01,0.036,0.998
2026/05/14 10:31:46.239,-0.016,0.034,0.994
2026/05/14 10:31:46.258,-0.012,0.034,0.995
2026/05/14 10:31:46.277,-0.011,0.04,0.997
2026/05/14 10:31:46.297,-0.012,0.038,1.0
2026/05/14 10:31:46.316,-0.013,0.039,0.998
2026/05/14 10:31:46.335,-0.012,0.038,0.997
2026/05/14 10:31:46.354,-0.012,0.042,0.995
2026/05/14 10:31:46.373,-0.013,0.036,0.996
2026/05/14 10:31:46.392,-0.008,0.04,0.998
2026/05/14 10:31:46.411,-0.014,0.038,0.995
2026/05/14 10:31:46.430,-0.01,0.034,0.994
2026/05/14 10:31:46.449,-0.011,0.034,0.997
2026/05/14 10:31:46.468,-0.011,0.037,0.995
2026/05/14 10:31:46.487,-0.01,0.036,0.992
2026/05/14 10:31:46.506,-0.013,0.036,0.997
2026/05/14 10:31:46.525,-0.009,0.037,0.994
2026/05/14 10:31:46.544,-0.009,0.037,0.995
2026/05/14 10:31:46.563,-0.012,0.037,0.997
2026/05/14 10:31:46.582,-0.012,0.036,0.999
2026/05/14 10:31:46.601,-0.008,0.039,0.998
2026/05/14 10:31:46.621,-0.01,0.036,0.996
2026/05/14 10:31:46.640,-0.009,0.037,0.994
2026/05/14 10:31:46.659,-0.008,0.037,0.994
2026/05/14 10:31:46.678,-0.01,0.036,0.999
2026/05/14 10:31:46.697,-0.009,0.033,0.994
2026/05/14 10:31:46.716,-0.011,0.036,0.996
2026/05/14 10:31:46.735,-0.014,0.041,1.0
2026/05/14 10:31:46.754,-0.009,0.039,0.998
2026/05/14 10:31:46.773,-0.01,0.037,0.997
2026/05/14 10:31:46.792,-0.014,0.038,1.0
2026/05/14 10:31:46.811,-0.018,0.035,0.999
2026/05/14 10:31:46.830,-0.012,0.035,0.996
2026/05/14 10:31:46.849,-0.012,0.035,0.997
2026/05/14 10:31:46.868,-0.013,0.038,0.997
2026/05/14 10:31:46.887,-0.012,0.041,0.996
2026/05/14 10:31:46.906,-0.011,0.039,0.996
2026/05/14 10:31:46.925,-0.011,0.035,0.996
2026/05/14 10:31:46.945,-0.01,0.038,0.997
2026/05/14 10:31:46.964,-0.011,0.039,0.997
2026/05/14 10:31:46.983,-0.009,0.034,0.998
2026/05/14 10:31:47.002,-0.011,0.035,0.998
2026/05/14 10:31:47.021,-0.01,0.039,0.998
2026/05/14 10:31:47.040,-0.011,0.039,0.995
2026/05/14 10:31:47.059,-0.014,0.038,0.997
2026/05/14 10:31:47.078,-0.011,0.037,0.997
2026/05/14 10:31:47.097,-0.008,0.037,0.999
2026/05/14 10:31:47.116,-0.012,0.033,0.997
2026/05/14 10:31:47.135,-0.008,0.037,1.001
2026/05/14 10:31:47.154,-0.01,0.035,1.0
2026/05/14 10:31:47.173,-0.011,0.035,1.0
2026/05/14 10:31:47.192,-0.01,0.04,0.998
2026/05/14 10:31:47.211,-0.012,0.037,0.994
2026/05/14 10:31:47.230,-0.009,0.034,0.994
2026/05/14 10:31:47.249,-0.014,0.039,0.997
2026/05/14 10:31:47.269,-0.01,0.036,0.998
2026/05/14 10:31:47.288,-0.009,0.037,0.996
2026/05/14 10:31:47.307,-0.013,0.038,0.997
2026/05/14 10:31:47.326,-0.011,0.038,0.995
2026/05/14 10:31:47.345,-0.012,0.042,0.995
2026/05/14 10:31:47.364,-0.011,0.036,0.996
2026/05/14 10:31:47.383,-0.013,0.038,0.999
2026/05/14 10:31:47.402,-0.011,0.037,0.995
2026/05/14 10:31:47.421,-0.013,0.036,0.995
2026/05/14 10:31:47.440,-0.01,0.038,1.0
2026/05/14 10:31:47.459,-0.012,0.033,0.996
2026/05/14 10:31:47.478,-0.013,0.035,0.998
2026/05/14 10:31:47.497,-0.009,0.04,0.996
2026/05/14 10:31:47.516,-0.013,0.035,0.996
2026/05/14 10:31:47.535,-0.011,0.037,0.999
2026/05/14 10:31:47.554,-0.011,0.037,0.998
2026/05/14 10:31:47.573,-0.012,0.038,0.995
2026/05/14 10:31:47.593,-0.013,0.039,1.002
2026/05/14 10:31:47.612,-0.012,0.039,0.999
2026/05/14 10:31:47.631,-0.009,0.035,0.994
2026/05/14 10:31:47.650,-0.01,0.04,0.994
2026/05/14 10:31:47.669,-0.011,0.038,0.998
2026/05/14 10:31:47.688,-0.009,0.04,0.996
2026/05/14 10:31:47.707,-0.01,0.036,0.994
2026/05/14 10:31:47.726,-0.012,0.038,0.998
2026/05/14 10:31:47.745,-0.008,0.041,0.995
2026/05/14 10:31:47.764,-0.006,0.038,0.996
2026/05/14 10:31:47.783,-0.015,0.037,0.994
2026/05/14 10:31:47.802,-0.013,0.035,0.997
2026/05/14 10:31:47.821,-0.012,0.04,0.998
2026/05/14 10:31:47.840,-0.011,0.037,0.996
2026/05/14 10:31:47.859,-0.01,0.04,0.992
2026/05/14 10:31:47.878,-0.01,0.037,1.0
2026/05/14 10:31:47.897,-0.006,0.038,0.995
2026/05/14 10:31:47.917,-0.009,0.035,1.0
2026/05/14 10:31:47.936,-0.014,0.036,0.999
2026/05/14 10:31:47.955,-0.009,0.038,0.999
2026/05/14 10:31:47.974,-0.012,0.036,0.995
2026/05/14 10:31:47.993,-0.013,0.037,0.995
2026/05/14 10:31:48.012,-0.009,0.04,1.001
2026/05/14 10:31:48.031,-0.01,0.039,0.997
2026/05/14 10:31:48.050,-0.01,0.037,0.999
2026/05/14 10:31:48.069,-0.011,0.039,0.996
2026/05/14 10:31:48.088,-0.008,0.04,0.997
2026/05/14 10:31:48.107,-0.012,0.039,1.0
2026/05/14 10:31:48.126,-0.009,0.039,0.998
2026/05/14 10:31:48.145,-0.014,0.036,0.994
2026/05/14 10:31:48.164,-0.011,0.034,0.998
2026/05/14 10:31:48.183,-0.01,0.036,0.997
2026/05/14 10:31:48.202,-0.012,0.037,0.997
2026/05/14 10:31:48.221,-0.014,0.038,0.995
2026/05/14 10:31:48.241,-0.01,0.035,0.999
2026/05/14 10:31:48.260,-0.012,0.04,0.996
2026/05/14 10:31:48.279,-0.011,0.035,0.995
2026/05/14 10:31:48.298,-0.013,0.039,0.997
2026/05/14 10:31:48.317,-0.011,0.036,0.998
2026/05/14 10:31:48.336,-0.009,0.039,0.994
2026/05/14 10:31:48.355,-0.011,0.039,0.995
2026/05/14 10:31:48.374,-0.013,0.035,0.995
2026/05/14 10:31:48.393,-0.009,0.04,0.997
2026/05/14 10:31:48.412,-0.014,0.036,0.998
2026/05/14 10:31:48.431,-0.013,0.037,0.998
2026/05/14 10:31:48.450,-0.011,0.033,1.0
2026/05/14 10:31:48.469,-0.009,0.04,0.997
2026/05/14 10:31:48.488,-0.01,0.034,0.998
2026/05/14 10:31:48.507,-0.008,0.037,0.994
2026/05/14 10:31:48.526,-0.012,0.036,0.996
2026/05/14 10:31:48.545,-0.01,0.043,0.997
2026/05/14 10:31:48.565,-0.009,0.038,0.998
2026/05/14 10:31:48.584,-0.011,0.039,0.995
2026/05/14 10:31:48.603,-0.008,0.037,0.996
2026/05/14 10:31:48.622,-0.012,0.035,0.995
2026/05/14 10:31:48.641,-0.011,0.035,0.996
2026/05/14 10:31:48.660,-0.01,0.035,0.998
2026/05/14 10:31:48.679,-0.01,0.04,0.994
2026/05/14 10:31:48.698,-0.011,0.039,0.999
2026/05/14 10:31:48.717,-0.01,0.039,0.992
2026/05/14 10:31:48.736,-0.011,0.036,0.996
2026/05/14 10:31:48.755,-0.012,0.037,0.997
2026/05/14 10:31:48.774,-0.014,0.039,0.997
2026/05/14 10:31:48.793,-0.013,0.041,0.997
2026/05/14 10:31:48.812,-0.011,0.034,0.994
2026/05/14 10:31:48.831,-0.005,0.037,0.993
2026/05/14 10:31:48.850,-0.011,0.037,0.995
2026/05/14 10:31:48.869,-0.011,0.038,0.994
2026/05/14 10:31:48.889,-0.013,0.038,0.995
2026/05/14 10:31:48.908,-0.011,0.039,0.999
2026/05/14 10:31:48.927,-0.011,0.038,0.997
2026/05/14 10:31:48.946,-0.008,0.036,0.998
2026/05/14 10:31:48.965,-0.009,0.035,0.995
2026/05/14 10:31:48.984,-0.016,0.038,0.994
2026/05/14 10:31:49.003,-0.009,0.039,1.0
2026/05/14 10:31:49.022,-0.011,0.041,0.997
2026/05/14 10:31:49.041,-0.014,0.039,1.001
2026/05/14 10:31:49.060,-0.01,0.039,0.997
2026/05/14 10:31:49.079,-0.011,0.042,0.996
2026/05/14 10:31:49.098,-0.012,0.042,1.001
2026/05/14 10:31:49.117,-0.011,0.037,0.994
2026/05/14 10:31:49.136,-0.01,0.039,0.998
2026/05/14 10:31:49.155,-0.009,0.037,0.994
2026/05/14 10:31:49.174,-0.013,0.036,0.995
2026/05/14 10:31:49.193,-0.013,0.036,0.997
2026/05/14 10:31:49.212,-0.008,0.037,0.997
2026/05/14 10:31:49.232,-0.01,0.039,0.997
2026/05/14 10:31:49.251,-0.009,0.039,0.994
2026/05/14 10:31:49.270,-0.012,0.037,0.996
2026/05/14 10:31:49.289,-0.013,0.033,0.995
2026/05/14 10:31:49.308,-0.008,0.04,0.996
2026/05/14 10:31:49.327,-0.011,0.04,0.996
2026/05/14 10:31:49.346,-0.011,0.039,0.999
2026/05/14 10:31:49.365,-0.014,0.036,0.995
2026/05/14 10:31:49.384,-0.011,0.038,0.993
2026/05/14 10:31:49.403,-0.009,0.037,0.994
2026/05/14 10:31:49.422,-0.014,0.039,0.997
2026/05/14 10:31:49.441,-0.01,0.039,0.999
2026/05/14 10:31:49.460,-0.01,0.038,0.997
2026/05/14 10:31:49.479,-0.009,0.035,0.994
2026/05/14 10:31:49.498,-0.012,0.035,1.002
2026/05/14 10:31:49.517,-0.009,0.04,1.0
2026/05/14 10:31:49.536,-0.013,0.035,0.996
2026/05/14 10:31:49.556,-0.013,0.035,0.996
2026/05/14 10:31:49.575,-0.01,0.039,0.999
2026/05/14 10:31:49.594,-0.01,0.04,0.995
2026/05/14 10:31:49.613,-0.014,0.032,0.997
2026/05/14 10:31:49.632,-0.01,0.035,0.997
2026/05/14 10:31:49.651,-0.012,0.037,0.996
2026/05/14 10:31:49.670,-0.009,0.035,1.0
2026/05/14 10:31:49.689,-0.009,0.036,0.995
2026/05/14 10:31:49.708,-0.011,0.039,0.999
2026/05/14 10:31:49.727,-0.009,0.037,0.998
2026/05/14 10:31:49.746,-0.008,0.041,0.999
2026/05/14 10:31:49.765,-0.013,0.04,0.997
2026/05/14 10:31:49.784,-0.011,0.038,0.997
2026/05/14 10:31:49.803,-0.012,0.039,0.997
2026/05/14 10:31:49.822,-0.006,0.038,0.996
2026/05/14 10:31:49.841,-0.012,0.035,0.994
2026/05/14 10:31:49.860,-0.013,0.035,0.998
2026/05/14 10:31:49.880,-0.011,0.038,0.999
2026/05/14 10:31:49.899,-0.012,0.036,0.997
2026/05/14 10:31:49.918,-0.011,0.035,0.997
2026/05/14 10:31:49.937,-0.012,0.033,0.995
2026/05/14 10:31:49.956,-0.012,0.037,0.996
2026/05/14 10:31:49.975,-0.012,0.034,0.998
2026/05/14 10:31:49.994,-0.007,0.036,0.999
2026/05/14 10:31:50.013,-0.012,0.043,0.998
2026/05/14 10:31:50.032,-0.012,0.039,0.997
2026/05/14 10:31:50.051,-0.011,0.037,0.996
2026/05/14 10:31:50.070,-0.013,0.036,0.996
2026/05/14 10:31:50.089,-0.013,0.039,0.997
2026/05/14 10:31:50.108,-0.008,0.036,0.994
2026/05/14 10:31:50.127,-0.01,0.041,0.998
2026/05/14 10:31:50.146,-0.011,0.031,0.996
2026/05/14 10:31:50.165,-0.009,0.039,0.995
2026/05/14 10:31:50.184,-0.011,0.041,0.998
2026/05/14 10:31:50.204,-0.012,0.038,1.0
2026/05/14 10:31:50.223,-0.014,0.039,0.997
2026/05/14 10:31:50.242,-0.013,0.038,0.996
2026/05/14 10:31:50.261,-0.016,0.037,0.997
2026/05/14 10:31:50.280,-0.009,0.037,0.989
2026/05/14 10:31:50.299,-0.013,0.042,0.998
2026/05/14 10:31:50.318,-0.013,0.043,0.995
2026/05/14 10:31:50.337,-0.012,0.037,0.998
2026/05/14 10:31:50.356,-0.01,0.038,0.996
2026/05/14 10:31:50.375,-0.012,0.037,0.998
2026/05/14 10:31:50.394,-0.013,0.037,0.995
2026/05/14 10:31:50.413,-0.007,0.034,0.997
2026/05/14 10:31:50.432,-0.013,0.041,0.997
2026/05/14 10:31:50.451,-0.012,0.037,0.994
2026/05/14 10:31:50.470,-0.011,0.038,0.995
2026/05/14 10:31:50.489,-0.011,0.037,0.995
2026/05/14 10:31:50.508,-0.015,0.034,0.997
2026/05/14 10:31:50.528,-0.008,0.033,0.994
2026/05/14 10:31:50.547,-0.013,0.041,0.996
2026/05/14 10:31:50.566,-0.009,0.035,0.996
2026/05/14 10:31:50.585,-0.013,0.039,0.996
2026/05/14 10:31:50.604,-0.01,0.04,0.993
2026/05/14 10:31:50.623,-0.012,0.035,0.997
2026/05/14 10:31:50.642,-0.012,0.04,0.997
2026/05/14 10:31:50.661,-0.01,0.037,0.995
2026/05/14 10:31:50.680,-0.011,0.036,0.996
2026/05/14 10:31:50.699,-0.013,0.033,0.997
2026/05/14 10:31:50.718,-0.009,0.035,0.994
2026/05/14 10:31:50.737,-0.017,0.04,0.998
2026/05/14 10:31:50.756,-0.013,0.035,0.997
2026/05/14 10:31:50.775,-0.012,0.036,0.995
2026/05/14 10:31:50.794,-0.013,0.037,0.999
2026/05/14 10:31:50.813,-0.01,0.038,0.996
2026/05/14 10:31:50.832,-0.011,0.041,0.998
2026/05/14 10:31:50.852,-0.006,0.034,1.0
2026/05/14 10:31:50.871,-0.014,0.038,0.999
2026/05/14 10:31:50.890,-0.008,0.035,0.996
2026/05/14 10:31:50.909,-0.01,0.036,0.998
2026/05/14 10:31:50.928,-0.012,0.039,0.996
2026/05/14 10:31:50.947,-0.009,0.035,0.995
2026/05/14 10:31:50.966,-0.012,0.037,0.997
2026/05/14 10:31:50.985,-0.012,0.039,0.994
2026/05/14 10:31:51.004,-0.009,0.039,0.996
2026/05/14 10:31:51.023,-0.015,0.038,0.997
2026/05/14 10:31:51.042,-0.01,0.039,0.999
2026/05/14 10:31:51.061,-0.009,0.04,0.999
2026/05/14 10:31:51.080,-0.012,0.036,0.999
2026/05/14 10:31:51.099,-0.01,0.038,0.999
2026/05/14 10:31:51.118,-0.01,0.04,0.994
2026/05/14 10:31:51.137,-0.01,0.035,0.995
2026/05/14 10:31:51.157,-0.013,0.042,0.994
2026/05/14 10:31:51.176,-0.01,0.039,0.997
2026/05/14 10:31:51.195,-0.014,0.038,0.998
2026/05/14 10:31:51.214,-0.015,0.038,0.998
2026/05/14 10:31:51.233,-0.011,0.04,0.997
2026/05/14 10:31:51.252,-0.012,0.039,0.998
2026/05/14 10:31:51.271,-0.007,0.039,0.997
2026/05/14 10:31:51.290,-0.01,0.034,0.997
2026/05/14 10:31:51.309,-0.009,0.042,0.995
2026/05/14 10:31:51.328,-0.011,0.034,0.995
2026/05/14 10:31:51.347,-0.013,0.036,0.995
2026/05/14 10:31:51.366,-0.014,0.037,0.995
2026/05/14 10:31:51.385,-0.014,0.039,1.002
2026/05/14 10:31:51.404,-0.011,0.037,0.997
2026/05/14 10:31:51.423,-0.012,0.036,0.994
2026/05/14 10:31:51.442,-0.008,0.035,0.995
2026/05/14 10:31:51.461,-0.012,0.039,0.995
2026/05/14 10:31:51.481,-0.013,0.041,0.996
2026/05/14 10:31:51.500,-0.007,0.037,0.996
2026/05/14 10:31:51.519,-0.01,0.034,1.0
2026/05/14 10:31:51.538,-0.012,0.037,0.997
2026/05/14 10:31:51.557,-0.009,0.032,0.998
2026/05/14 10:31:51.576,-0.01,0.036,0.994
2026/05/14 10:31:51.595,-0.01,0.038,0.997
2026/05/14 10:31:51.614,-0.015,0.037,0.996
2026/05/14 10:31:51.633,-0.012,0.038,0.996
2026/05/14 10:31:51.652,-0.01,0.035,0.997
2026/05/14 10:31:51.671,-0.008,0.039,0.996
2026/05/14 10:31:51.690,-0.009,0.039,0.997
2026/05/14 10:31:51.709,-0.012,0.038,1.0
2026/05/14 10:31:51.728,-0.011,0.036,0.994
2026/05/14 10:31:51.747,-0.009,0.038,0.998
2026/05/14 10:31:51.766,-0.011,0.037,0.999
2026/05/14 10:31:51.785,-0.007,0.034,0.995
2026/05/14 10:31:51.805,-0.013,0.033,0.995
2026/05/14 10:31:51.824,-0.012,0.035,0.996
2026/05/14 10:31:51.843,-0.011,0.035,0.996
2026/05/14 10:31:51.862,-0.01,0.035,0.997
2026/05/14 10:31:51.881,-0.015,0.04,0.996
2026/05/14 10:31:51.900,-0.013,0.039,0.995
2026/05/14 10:31:51.919,-0.013,0.035,0.998
2026/05/14 10:31:51.938,-0.011,0.041,0.998
2026/05/14 10:31:51.957,-0.009,0.038,0.997
2026/05/14 10:31:51.976,-0.012,0.04,0.995
2026/05/14 10:31:51.995,-0.008,0.037,1.0
2026/05/14 10:31:52.014,-0.011,0.043,0.995
2026/05/14 10:31:52.033,-0.01,0.036,0.994
2026/05/14 10:31:52.052,-0.007,0.04,0.997
2026/05/14 10:31:52.071,-0.01,0.033,0.997
2026/05/14 10:31:52.090,-0.013,0.034,0.998
2026/05/14 10:31:52.109,-0.013,0.037,0.999
2026/05/14 10:31:52.129,-0.012,0.036,0.995
2026/05/14 10:31:52.148,-0.014,0.04,0.998
2026/05/14 10:31:52.167,-0.01,0.035,1.0
2026/05/14 10:31:52.186,-0.012,0.037,0.998
2026/05/14 10:31:52.205,-0.007,0.034,0.997
2026/05/14 10:31:52.224,-0.01,0.038,0.998
2026/05/14 10:31:52.243,-0.013,0.034,0.998
2026/05/14 10:31:52.262,-0.012,0.038,0.999
2026/05/14 10:31:52.281,-0.013,0.037,0.998
2026/05/14 10:31:52.300,-0.011,0.039,0.997
2026/05/14 10:31:52.319,-0.01,0.037,0.993
2026/05/14 10:31:52.338,-0.015,0.04,0.993
2026/05/14 10:31:52.357,-0.012,0.034,0.993
2026/05/14 10:31:52.376,-0.011,0.036,0.997
2026/05/14 10:31:52.395,-0.01,0.037,0.993
2026/05/14 10:31:52.414,-0.011,0.038,0.994
2026/05/14 10:31:52.433,-0.009,0.042,0.994
2026/05/14 10:31:52.453,-0.012,0.035,0.993
2026/05/14 10:31:52.472,-0.012,0.04,0.993
2026/05/14 10:31:52.491,-0.011,0.038,0.992
2026/05/14 10:31:52.510,-0.014,0.037,0.996
2026/05/14 10:31:52.529,-0.013,0.037,0.996
2026/05/14 10:31:52.548,-0.013,0.037,1.0
2026/05/14 10:31:52.567,-0.012,0.033,0.997
2026/05/14 10:31:52.586,-0.008,0.037,0.995
2026/05/14 10:31:52.605,-0.011,0.039,0.997
2026/05/14 10:31:52.624,-0.016,0.035,1.002
2026/05/14 10:31:52.643,-0.011,0.039,0.998
2026/05/14 10:31:52.662,-0.013,0.037,0.995
2026/05/14 10:31:52.681,-0.009,0.04,0.997
2026/05/14 10:31:52.700,-0.014,0.035,0.995
2026/05/14 10:31:52.719,-0.011,0.036,0.993
2026/05/14 10:31:52.738,-0.015,0.039,0.996
2026/05/14 10:31:52.757,-0.007,0.037,0.995
2026/05/14 10:31:52.777,-0.014,0.037,0.997
2026/05/14 10:31:52.796,-0.013,0.041,0.997
2026/05/14 10:31:52.815,-0.013,0.034,0.998
2026/05/14 10:31:52.834,-0.009,0.042,0.999
2026/05/14 10:31:52.853,-0.014,0.037,1.0
2026/05/14 10:31:52.872,-0.011,0.038,0.999
2026/05/14 10:31:52.891,-0.01,0.033,0.991
2026/05/14 10:31:52.910,-0.013,0.039,1.004
2026/05/14 10:31:52.929,-0.011,0.04,0.997
2026/05/14 10:31:52.948,-0.012,0.036,1.001
2026/05/14 10:31:52.967,-0.012,0.039,0.994
2026/05/14 10:31:52.986,-0.012,0.037,0.992
2026/05/14 10:31:53.005,-0.012,0.037,0.997
2026/05/14 10:31:53.024,-0.012,0.035,0.999
2026/05/14 10:31:53.043,-0.009,0.037,0.996
2026/05/14 10:31:53.062,-0.011,0.035,0.995
2026/05/14 10:31:53.081,-0.009,0.037,0.992
2026/05/14 10:31:53.101,-0.008,0.036,0.998
2026/05/14 10:31:53.120,-0.011,0.038,0.998
2026/05/14 10:31:53.139,-0.009,0.037,0.997
2026/05/14 10:31:53.158,-0.008,0.039,1.001
2026/05/14 10:31:53.177,-0.011,0.037,0.996
2026/05/14 10:31:53.196,-0.016,0.037,0.997
2026/05/14 10:31:53.215,-0.011,0.038,0.996
2026/05/14 10:31:53.234,-0.007,0.039,0.996
2026/05/14 10:31:53.253,-0.01,0.036,0.997
2026/05/14 10:31:53.272,-0.009,0.041,0.997
2026/05/14 10:31:53.291,-0.009,0.039,0.996
2026/05/14 10:31:53.310,-0.011,0.035,0.997
2026/05/14 10:31:53.329,-0.011,0.039,0.994
2026/05/14 10:31:53.348,-0.007,0.037,0.995
2026/05/14 10:31:53.367,-0.011,0.039,0.996
2026/05/14 10:31:53.386,-0.01,0.039,0.996
2026/05/14 10:31:53.405,-0.009,0.037,0.995
2026/05/14 10:31:53.425,-0.012,0.037,0.994
2026/05/14 10:31:53.444,-0.01,0.042,0.996
2026/05/14 10:31:53.463,-0.009,0.037,0.995
2026/05/14 10:31:53.482,-0.013,0.039,0.995
2026/05/14 10:31:53.501,-0.009,0.038,1.0
2026/05/14 10:31:53.520,-0.011,0.036,0.995
2026/05/14 10:31:53.539,-0.008,0.038,0.997
2026/05/14 10:31:53.558,-0.012,0.039,0.995
2026/05/14 10:31:53.577,-0.011,0.038,0.994
2026/05/14 10:31:53.596,-0.009,0.038,0.996
2026/05/14 10:31:53.615,-0.012,0.041,0.996
2026/05/14 10:31:53.634,-0.012,0.034,0.996
2026/05/14 10:31:53.653,-0.013,0.037,0.995
2026/05/14 10:31:53.672,-0.008,0.036,0.997
2026/05/14 10:31:53.691,-0.01,0.041,0.994
2026/05/14 10:31:53.710,-0.013,0.041,0.998
2026/05/14 10:31:53.730,-0.01,0.037,0.998
2026/05/14 10:31:53.749,-0.013,0.036,0.992
2026/05/14 10:31:53.768,-0.01,0.038,0.993
2026/05/14 10:31:53.787,-0.009,0.038,1.0
2026/05/14 10:31:53.806,-0.011,0.037,0.993
2026/05/14 10:31:53.825,-0.009,0.039,0.994
2026/05/14 10:31:53.844,-0.012,0.036,0.997
2026/05/14 10:31:53.863,-0.013,0.039,0.996
2026/05/14 10:31:53.882,-0.011,0.038,0.997
2026/05/14 10:31:53.901,-0.012,0.033,0.997
2026/05/14 10:31:53.920,-0.012,0.037,0.997
2026/05/14 10:31:53.939,-0.011,0.031,0.997
2026/05/14 10:31:53.958,-0.009,0.036,0.996
2026/05/14 10:31:53.977,-0.008,0.04,1.0
2026/05/14 10:31:53.996,-0.01,0.036,0.993
2026/05/14 10:31:54.015,-0.008,0.039,1.0
2026/05/14 10:31:54.034,-0.01,0.036,0.999
2026/05/14 10:31:54.054,-0.011,0.037,0.994
2026/05/14 10:31:54.073,-0.012,0.038,0.996
2026/05/14 10:31:54.092,-0.009,0.037,1.0
2026/05/14 10:31:54.111,-0.011,0.037,1.004
2026/05/14 10:31:54.130,-0.012,0.036,0.999
2026/05/14 10:31:54.149,-0.01,0.036,0.998
2026/05/14 10:31:54.168,-0.011,0.038,0.995
2026/05/14 10:31:54.187,-0.01,0.036,0.998
2026/05/14 10:31:54.206,-0.013,0.039,0.996
2026/05/14 10:31:54.225,-0.009,0.037,0.997
2026/05/14 10:31:54.244,-0.013,0.035,0.996
2026/05/14 10:31:54.263,-0.013,0.039,0.995
2026/05/14 10:31:54.282,-0.011,0.037,0.995
2026/05/14 10:31:54.301,-0.012,0.035,1.001
2026/05/14 10:31:54.320,-0.012,0.04,0.996
2026/05/14 10:31:54.339,-0.016,0.038,0.995
2026/05/14 10:31:54.358,-0.014,0.038,0.994
2026/05/14 10:31:54.378,-0.009,0.034,0.995
2026/05/14 10:31:54.397,-0.012,0.038,0.994
2026/05/14 10:31:54.416,-0.01,0.037,0.994
2026/05/14 10:31:54.435,-0.01,0.04,0.998
2026/05/14 10:31:54.454,-0.012,0.035,0.994
2026/05/14 10:31:54.473,-0.012,0.038,0.999
2026/05/14 10:31:54.492,-0.011,0.039,0.998
2026/05/14 10:31:54.511,-0.009,0.035,0.997
2026/05/14 10:31:54.530,-0.012,0.034,0.997
2026/05/14 10:31:54.549,-0.009,0.035,0.995
2026/05/14 10:31:54.568,-0.009,0.034,0.996
2026/05/14 10:31:54.587,-0.012,0.035,1.0
2026/05/14 10:31:54.606,-0.01,0.039,0.997
2026/05/14 10:31:54.625,-0.012,0.037,0.997
2026/05/14 10:31:54.644,-0.012,0.037,0.994
2026/05/14 10:31:54.663,-0.011,0.038,0.997
2026/05/14 10:31:54.682,-0.009,0.037,0.999
2026/05/14 10:31:54.702,-0.013,0.037,0.994
2026/05/14 10:31:54.721,-0.018,0.039,0.998
2026/05/14 10:31:54.740,-0.009,0.04,0.999
2026/05/14 10:31:54.759,-0.012,0.037,0.995
2026/05/14 10:31:54.778,-0.01,0.041,0.995
2026/05/14 10:31:54.797,-0.012,0.041,0.996
2026/05/14 10:31:54.816,-0.009,0.042,0.999
2026/05/14 10:31:54.835,-0.014,0.038,0.996
2026/05/14 10:31:54.854,-0.013,0.036,0.996
2026/05/14 10:31:54.873,-0.013,0.038,0.995
2026/05/14 10:31:54.892,-0.011,0.037,0.997
2026/05/14 10:31:54.911,-0.011,0.037,0.997
2026/05/14 10:31:54.930,-0.011,0.038,0.996
2026/05/14 10:31:54.949,-0.009,0.035,0.997
2026/05/14 10:31:54.968,-0.008,0.037,0.998
2026/05/14 10:31:54.987,-0.007,0.033,0.999
2026/05/14 10:31:55.006,-0.011,0.037,0.996
2026/05/14 10:31:55.026,-0.009,0.036,0.992
2026/05/14 10:31:55.045,-0.011,0.038,0.998
2026/05/14 10:31:55.064,-0.008,0.039,0.996
2026/05/14 10:31:55.083,-0.009,0.037,0.998
2026/05/14 10:31:55.102,-0.01,0.036,1.002
2026/05/14 10:31:55.121,-0.009,0.033,0.997
2026/05/14 10:31:55.140,-0.01,0.038,0.995
2026/05/14 10:31:55.159,-0.014,0.037,0.999
2026/05/14 10:31:55.178,-0.011,0.041,0.995
2026/05/14 10:31:55.197,-0.009,0.037,0.999
2026/05/14 10:31:55.216,-0.009,0.037,0.997
2026/05/14 10:31:55.235,-0.011,0.037,0.996
2026/05/14 10:31:55.254,-0.014,0.036,0.995
2026/05/14 10:31:55.273,-0.007,0.037,0.996
2026/05/14 10:31:55.292,-0.015,0.037,0.995
2026/05/14 10:31:55.311,-0.014,0.041,0.992
2026/05/14 10:31:55.331,-0.011,0.039,1.001
2026/05/14 10:31:55.350,-0.011,0.038,0.998
2026/05/14 10:31:55.369,-0.01,0.034,0.993
2026/05/14 10:31:55.388,-0.01,0.038,0.996
2026/05/14 10:31:55.407,-0.011,0.035,0.997
2026/05/14 10:31:55.426,-0.015,0.037,0.993
2026/05/14 10:31:55.445,-0.011,0.04,0.998
2026/05/14 10:31:55.464,-0.011,0.039,0.999
2026/05/14 10:31:55.483,-0.009,0.037,0.996
2026/05/14 10:31:55.502,-0.014,0.038,0.998
2026/05/14 10:31:55.521,-0.011,0.036,0.997
2026/05/14 10:31:55.540,-0.008,0.04,0.999
2026/05/14 10:31:55.559,-0.011,0.041,0.996
2026/05/14 10:31:55.578,-0.01,0.04,0.995
2026/05/14 10:31:55.597,-0.015,0.038,0.997
2026/05/14 10:31:55.616,-0.01,0.041,0.997
2026/05/14 10:31:55.635,-0.009,0.034,0.991
2026/05/14 10:31:55.655,-0.007,0.035,0.996
2026/05/14 10:31:55.674,-0.011,0.037,0.996
2026/05/14 10:31:55.693,-0.014,0.036,0.998
2026/05/14 10:31:55.712,-0.012,0.037,0.998
2026/05/14 10:31:55.731,-0.009,0.036,0.993
2026/05/14 10:31:55.750,-0.01,0.039,0.995
2026/05/14 10:31:55.769,-0.009,0.039,0.994
2026/05/14 10:31:55.788,-0.01,0.035,0.997
2026/05/14 10:31:55.807,-0.012,0.037,0.997
2026/05/14 10:31:55.826,-0.008,0.04,0.995
2026/05/14 10:31:55.845,-0.008,0.035,1.0
2026/05/14 10:31:55.864,-0.012,0.037,0.992
2026/05/14 10:31:55.883,-0.015,0.038,1.0
2026/05/14 10:31:55.902,-0.011,0.039,0.998
2026/05/14 10:31:55.921,-0.015,0.039,0.996
2026/05/14 10:31:55.940,-0.008,0.038,0.994
2026/05/14 10:31:55.959,-0.01,0.039,0.999
2026/05/14 10:31:55.979,-0.013,0.041,0.996
2026/05/14 10:31:55.998,-0.012,0.039,0.997
2026/05/14 10:31:56.017,-0.012,0.036,0.996
2026/05/14 10:31:56.036,-0.011,0.037,0.998
2026/05/14 10:31:56.055,-0.01,0.039,0.994
2026/05/14 10:31:56.074,-0.011,0.037,0.994
2026/05/14 10:31:56.093,-0.013,0.033,1.001
2026/05/14 10:31:56.112,-0.009,0.039,0.997
2026/05/14 10:31:56.131,-0.013,0.037,0.997
2026/05/14 10:31:56.150,-0.012,0.037,0.998
2026/05/14 10:31:56.169,-0.014,0.036,0.998
2026/05/14 10:31:56.188,-0.013,0.038,0.996
2026/05/14 10:31:56.207,-0.008,0.036,0.994
2026/05/14 10:31:56.226,-0.01,0.036,0.994
2026/05/14 10:31:56.245,-0.011,0.037,1.0
2026/05/14 10:31:56.264,-0.011,0.036,0.999
2026/05/14 10:31:56.283,-0.007,0.04,0.997
2026/05/14 10:31:56.303,-0.011,0.035,0.994
2026/05/14 10:31:56.322,-0.012,0.037,1.0
2026/05/14 10:31:56.341,-0.015,0.036,0.999
2026/05/14 10:31:56.360,-0.011,0.036,0.995
2026/05/14 10:31:56.379,-0.01,0.033,0.989
2026/05/14 10:31:56.398,-0.01,0.04,0.996
2026/05/14 10:31:56.417,-0.011,0.036,0.997
2026/05/14 10:31:56.436,-0.013,0.036,0.996
2026/05/14 10:31:56.455,-0.012,0.037,0.996
2026/05/14 10:31:56.474,-0.009,0.039,0.998
2026/05/14 10:31:56.493,-0.01,0.039,0.998
2026/05/14 10:31:56.512,-0.012,0.038,0.997
2026/05/14 10:31:56.531,-0.009,0.035,0.998
2026/05/14 10:31:56.550,-0.012,0.041,0.993
2026/05/14 10:31:56.569,-0.012,0.039,0.995
2026/05/14 10:31:56.588,-0.011,0.038,0.999
2026/05/14 10:31:56.608,-0.008,0.036,0.998
2026/05/14 10:31:56.627,-0.009,0.034,0.994
2026/05/14 10:31:56.646,-0.013,0.041,0.998
2026/05/14 10:31:56.665,-0.013,0.035,0.999
2026/05/14 10:31:56.684,-0.011,0.039,0.996
2026/05/14 10:31:56.703,-0.008,0.035,0.998
2026/05/14 10:31:56.722,-0.011,0.039,0.996
2026/05/14 10:31:56.741,-0.012,0.037,0.995
2026/05/14 10:31:56.760,-0.013,0.031,0.999
2026/05/14 10:31:56.779,-0.008,0.039,0.996
2026/05/14 10:31:56.798,-0.009,0.038,0.997
2026/05/14 10:31:56.817,-0.014,0.035,0.994
2026/05/14 10:31:56.836,-0.014,0.038,0.997
2026/05/14 10:31:56.855,-0.012,0.039,0.993
2026/05/14 10:31:56.874,-0.012,0.038,1.003
2026/05/14 10:31:56.893,-0.012,0.04,0.996
2026/05/14 10:31:56.912,-0.01,0.04,0.999
2026/05/14 10:31:56.932,-0.008,0.04,0.997
2026/05/14 10:31:56.951,-0.01,0.038,0.995
2026/05/14 10:31:56.970,-0.008,0.039,1.0
2026/05/14 10:31:56.989,-0.011,0.034,0.998
2026/05/14 10:31:57.008,-0.009,0.039,0.999
2026/05/14 10:31:57.027,-0.011,0.039,0.996
2026/05/14 10:31:57.046,-0.009,0.035,0.998
2026/05/14 10:31:57.065,-0.012,0.041,0.999
2026/05/14 10:31:57.084,-0.009,0.04,0.997
2026/05/14 10:31:57.103,-0.011,0.038,0.995
2026/05/14 10:31:57.122,-0.013,0.037,1.0
2026/05/14 10:31:57.141,-0.01,0.037,0.995
2026/05/14 10:31:57.160,-0.011,0.038,0.997
2026/05/14 10:31:57.179,-0.011,0.038,0.996
2026/05/14 10:31:57.198,-0.013,0.037,1.0
2026/05/14 10:31:57.217,-0.01,0.04,0.996
2026/05/14 10:31:57.236,-0.011,0.038,0.995
2026/05/14 10:31:57.256,-0.013,0.036,0.994
2026/05/14 10:31:57.275,-0.011,0.036,0.998
2026/05/14 10:31:57.294,-0.013,0.038,0.996
2026/05/14 10:31:57.313,-0.014,0.03,0.997
2026/05/14 10:31:57.332,-0.011,0.04,0.992
2026/05/14 10:31:57.351,-0.006,0.036,1.0
2026/05/14 10:31:57.370,-0.012,0.036,1.002
2026/05/14 10:31:57.389,-0.007,0.037,0.998
2026/05/14 10:31:57.408,-0.01,0.036,1.0
2026/05/14 10:31:57.427,-0.012,0.039,0.998
2026/05/14 10:31:57.446,-0.009,0.036,0.993
2026/05/14 10:31:57.465,-0.012,0.041,0.997
2026/05/14 10:31:57.484,-0.012,0.037,0.996
2026/05/14 10:31:57.503,-0.01,0.038,0.996
2026/05/14 10:31:57.522,-0.012,0.042,0.995
2026/05/14 10:31:57.541,-0.01,0.038,0.996
2026/05/14 10:31:57.561,-0.009,0.037,0.996
2026/05/14 10:31:57.580,-0.011,0.039,0.999
2026/05/14 10:31:57.599,-0.011,0.038,0.998
2026/05/14 10:31:57.618,-0.009,0.037,0.995
2026/05/14 10:31:57.637,-0.009,0.037,0.999
2026/05/14 10:31:57.656,-0.013,0.033,0.996
2026/05/14 10:31:57.675,-0.013,0.038,0.992
2026/05/14 10:31:57.694,-0.013,0.036,0.999
2026/05/14 10:31:57.713,-0.014,0.035,0.994
2026/05/14 10:31:57.732,-0.011,0.038,0.995
2026/05/14 10:31:57.751,-0.011,0.039,0.997
2026/05/14 10:31:57.770,-0.012,0.037,0.996
2026/05/14 10:31:57.789,-0.011,0.031,0.994
2026/05/14 10:31:57.808,-0.012,0.034,0.994
2026/05/14 10:31:57.827,-0.011,0.035,0.994
2026/05/14 10:31:57.846,-0.01,0.036,0.996
2026/05/14 10:31:57.865,-0.014,0.035,0.996
2026/05/14 10:31:57.885,-0.009,0.038,0.999
2026/05/14 10:31:57.904,-0.011,0.035,0.995
2026/05/14 10:31:57.923,-0.013,0.041,0.997
2026/05/14 10:31:57.942,-0.015,0.042,0.999
2026/05/14 10:31:57.961,-0.011,0.038,0.993
2026/05/14 10:31:57.980,-0.008,0.037,0.994
2026/05/14 10:31:57.999,-0.013,0.036,0.997
2026/05/14 10:31:58.018,-0.012,0.039,0.996
2026/05/14 10:31:58.037,-0.012,0.04,0.993
2026/05/14 10:31:58.056,-0.007,0.039,0.997
2026/05/14 10:31:58.075,-0.006,0.039,0.998
2026/05/14 10:31:58.094,-0.012,0.038,0.996
2026/05/14 10:31:58.113,-0.013,0.042,0.997
2026/05/14 10:31:58.132,-0.013,0.034,0.998
2026/05/14 10:31:58.151,-0.01,0.037,0.999
2026/05/14 10:31:58.170,-0.016,0.038,0.998
2026/05/14 10:31:58.189,-0.009,0.038,0.992
2026/05/14 10:31:58.209,-0.009,0.037,0.995
2026/05/14 10:31:58.228,-0.008,0.037,0.993
2026/05/14 10:31:58.247,-0.012,0.039,0.997
2026/05/14 10:31:58.266,-0.009,0.037,0.999
2026/05/14 10:31:58.285,-0.007,0.037,0.994
2026/05/14 10:31:58.304,-0.009,0.036,0.999
2026/05/14 10:31:58.323,-0.01,0.036,0.997
2026/05/14 10:31:58.342,-0.013,0.037,0.998
2026/05/14 10:31:58.361,-0.012,0.037,1.0
2026/05/14 10:31:58.380,-0.008,0.036,0.996
2026/05/14 10:31:58.399,-0.011,0.039,0.993
2026/05/14 10:31:58.418,-0.014,0.035,1.0
2026/05/14 10:31:58.437,-0.013,0.039,0.999
2026/05/14 10:31:58.456,-0.01,0.035,0.999
2026/05/14 10:31:58.475,-0.011,0.036,0.996
2026/05/14 10:31:58.494,-0.012,0.035,0.999
2026/05/14 10:31:58.514,-0.009,0.039,0.997
2026/05/14 10:31:58.533,-0.01,0.034,1.0
2026/05/14 10:31:58.552,-0.013,0.04,0.995
2026/05/14 10:31:58.571,-0.012,0.033,0.997
2026/05/14 10:31:58.590,-0.01,0.037,1.001
2026/05/14 10:31:58.609,-0.013,0.042,0.996
2026/05/14 10:31:58.628,-0.011,0.04,0.994
2026/05/14 10:31:58.647,-0.012,0.039,0.998
2026/05/14 10:31:58.666,-0.011,0.039,0.994
2026/05/14 10:31:58.685,-0.013,0.037,0.997
2026/05/14 10:31:58.704,-0.013,0.04,0.995
2026/05/14 10:31:58.723,-0.011,0.035,0.997
2026/05/14 10:31:58.742,-0.01,0.036,0.996
2026/05/14 10:31:58.761,-0.011,0.039,0.99
2026/05/14 10:31:58.780,-0.008,0.036,0.995
2026/05/14 10:31:58.799,-0.014,0.039,0.998
2026/05/14 10:31:58.818,-0.014,0.037,0.994
2026/05/14 10:31:58.838,-0.008,0.039,0.997
2026/05/14 10:31:58.857,-0.014,0.04,0.997
2026/05/14 10:31:58.876,-0.008,0.037,0.996
2026/05/14 10:31:58.895,-0.011,0.04,0.994
2026/05/14 10:31:58.914,-0.011,0.035,0.994
2026/05/14 10:31:58.933,-0.013,0.038,0.996
2026/05/14 10:31:58.952,-0.008,0.035,0.995
2026/05/14 10:31:58.971,-0.014,0.037,0.997
2026/05/14 10:31:58.990,-0.01,0.036,0.998
2026/05/14 10:31:59.009,-0.008,0.037,0.994
2026/05/14 10:31:59.028,-0.009,0.039,1.0
2026/05/14 10:31:59.047,-0.011,0.039,0.994
2026/05/14 10:31:59.066,-0.012,0.038,0.995
2026/05/14 10:31:59.085,-0.01,0.038,0.999
2026/05/14 10:31:59.104,-0.008,0.035,0.997
2026/05/14 10:31:59.123,-0.01,0.038,0.996
2026/05/14 10:31:59.143,-0.011,0.038,0.997
2026/05/14 10:31:59.162,-0.011,0.034,0.997
2026/05/14 10:31:59.181,-0.011,0.038,0.997
2026/05/14 10:31:59.200,-0.012,0.039,0.997
2026/05/14 10:31:59.219,-0.011,0.037,0.994
2026/05/14 10:31:59.238,-0.007,0.037,0.996
2026/05/14 10:31:59.257,-0.012,0.039,0.994
2026/05/14 10:31:59.276,-0.01,0.041,0.998
2026/05/14 10:31:59.295,-0.012,0.033,1.0
2026/05/14 10:31:59.314,-0.011,0.038,0.999
2026/05/14 10:31:59.333,-0.018,0.038,0.996
2026/05/14 10:31:59.352,-0.009,0.041,0.997
2026/05/14 10:31:59.371,-0.008,0.039,0.999
2026/05/14 10:31:59.390,-0.01,0.038,0.996
2026/05/14 10:31:59.409,-0.009,0.038,0.999
2026/05/14 10:31:59.428,-0.008,0.036,0.996
2026/05/14 10:31:59.448,-0.009,0.041,0.998
2026/05/14 10:31:59.467,-0.009,0.039,0.995
2026/05/14 10:31:59.486,-0.014,0.036,1.0
2026/05/14 10:31:59.505,-0.015,0.04,0.997
2026/05/14 10:31:59.524,-0.014,0.04,0.996
2026/05/14 10:31:59.543,-0.009,0.034,0.999
2026/05/14 10:31:59.562,-0.011,0.037,0.998
2026/05/14 10:31:59.581,-0.014,0.037,0.995
2026/05/14 10:31:59.600,-0.012,0.039,0.995
2026/05/14 10:31:59.619,-0.011,0.038,0.997
2026/05/14 10:31:59.638,-0.013,0.035,0.999
2026/05/14 10:31:59.657,-0.008,0.037,1.0
2026/05/14 10:31:59.676,-0.013,0.038,0.996
2026/05/14 10:31:59.695,-0.009,0.037,0.997
2026/05/14 10:31:59.714,-0.01,0.033,0.997
2026/05/14 10:31:59.733,-0.008,0.039,0.994
2026/05/14 10:31:59.752,-0.008,0.033,0.998
2026/05/14 10:31:59.772,-0.012,0.034,0.998
2026/05/14 10:31:59.791,-0.013,0.038,0.993
2026/05/14 10:31:59.810,-0.012,0.042,0.995
2026/05/14 10:31:59.829,-0.011,0.032,0.998
2026/05/14 10:31:59.848,-0.011,0.038,0.994
2026/05/14 10:31:59.867,-0.014,0.038,0.997
2026/05/14 10:31:59.886,-0.012,0.036,0.994
2026/05/14 10:31:59.905,-0.011,0.038,0.997
2026/05/14 10:31:59.924,-0.011,0.039,0.995
2026/05/14 10:31:59.943,-0.009,0.04,0.998
2026/05/14 10:31:59.962,-0.012,0.039,0.997
2026/05/14 10:31:59.981,-0.011,0.04,0.994
2026/05/14 10:32:00.000,-0.012,0.04,0.996
2026/05/14 10:32:00.019,-0.013,0.037,0.998
2026/05/14 10:32:00.038,-0.011,0.039,0.995
2026/05/14 10:32:00.057,-0.012,0.04,0.995
2026/05/14 10:32:00.077,-0.011,0.037,0.997
2026/05/14 10:32:00.096,-0.008,0.039,0.999
2026/05/14 10:32:00.115,-0.01,0.039,1.0
2026/05/14 10:32:00.134,-0.01,0.042,0.998
2026/05/14 10:32:00.153,-0.01,0.04,0.998
2026/05/14 10:32:00.172,-0.014,0.042,0.996
2026/05/14 10:32:00.191,-0.01,0.038,0.997
2026/05/14 10:32:00.210,-0.01,0.038,0.997
2026/05/14 10:32:00.229,-0.012,0.036,0.998
2026/05/14 10:32:00.248,-0.01,0.039,0.996
2026/05/14 10:32:00.267,-0.014,0.037,0.997
2026/05/14 10:32:00.286,-0.015,0.036,0.999
2026/05/14 10:32:00.305,-0.011,0.039,1.0
2026/05/14 10:32:00.324,-0.013,0.035,0.998
2026/05/14 10:32:00.343,-0.01,0.037,0.997
2026/05/14 10:32:00.362,-0.013,0.041,0.993
2026/05/14 10:32:00.382,-0.01,0.037,0.996
2026/05/14 10:32:00.401,-0.011,0.038,0.994
2026/05/14 10:32:00.420,-0.007,0.035,0.993
2026/05/14 10:32:00.439,-0.012,0.036,0.997
2026/05/14 10:32:00.458,-0.01,0.038,0.996
2026/05/14 10:32:00.477,-0.013,0.037,0.996
2026/05/14 10:32:00.496,-0.012,0.038,0.995
2026/05/14 10:32:00.515,-0.012,0.037,0.996
2026/05/14 10:32:00.534,-0.014,0.037,0.999
2026/05/14 10:32:00.553,-0.009,0.035,0.996
2026/05/14 10:32:00.572,-0.012,0.031,0.997
2026/05/14 10:32:00.591,-0.013,0.04,0.993
2026/05/14 10:32:00.610,-0.009,0.035,0.996
2026/05/14 10:32:00.629,-0.01,0.036,0.997
2026/05/14 10:32:00.648,-0.009,0.037,0.994
2026/05/14 10:32:00.667,-0.015,0.035,0.998
2026/05/14 10:32:00.687,-0.008,0.038,0.996
2026/05/14 10:32:00.706,-0.007,0.036,0.997
2026/05/14 10:32:00.725,-0.009,0.037,0.995
2026/05/14 10:32:00.744,-0.014,0.038,0.995
2026/05/14 10:32:00.763,-0.012,0.035,0.996
2026/05/14 10:32:00.782,-0.011,0.04,0.998
2026/05/14 10:32:00.801,-0.009,0.033,0.999
2026/05/14 10:32:00.820,-0.012,0.035,0.997
2026/05/14 10:32:00.839,-0.007,0.04,0.997
2026/05/14 10:32:00.858,-0.008,0.042,0.997
2026/05/14 10:32:00.877,-0.013,0.036,0.996
2026/05/14 10:32:00.896,-0.013,0.038,0.996
2026/05/14 10:32:00.915,-0.009,0.036,0.996
2026/05/14 10:32:00.934,-0.01,0.038,0.997
2026/05/14 10:32:00.953,-0.007,0.038,0.994
2026/05/14 10:32:00.972,-0.011,0.035,1.0
2026/05/14 10:32:00.992,-0.009,0.042,1.001
2026/05/14 10:32:01.011,-0.013,0.035,0.998
2026/05/14 10:32:01.030,-0.011,0.035,0.993
2026/05/14 10:32:01.049,-0.009,0.036,0.996
2026/05/14 10:32:01.068,-0.012,0.035,0.996
2026/05/14 10:32:01.087,-0.011,0.039,0.994
2026/05/14 10:32:01.106,-0.011,0.035,0.998
2026/05/14 10:32:01.125,-0.01,0.036,0.998
2026/05/14 10:32:01.144,-0.01,0.036,0.998
2026/05/14 10:32:01.163,-0.013,0.04,0.994
2026/05/14 10:32:01.182,-0.013,0.037,0.993
2026/05/14 10:32:01.201,-0.01,0.04,0.997
2026/05/14 10:32:01.220,-0.01,0.038,0.996
2026/05/14 10:32:01.239,-0.013,0.038,0.996
2026/05/14 10:32:01.258,-0.015,0.034,0.997
2026/05/14 10:32:01.277,-0.011,0.04,0.995
2026/05/14 10:32:01.297,-0.012,0.038,0.998
2026/05/14 10:32:01.316,-0.008,0.037,0.996
2026/05/14 10:32:01.335,-0.011,0.036,0.998
2026/05/14 10:32:01.354,-0.011,0.038,0.994
2026/05/14 10:32:01.373,-0.009,0.034,1.002
2026/05/14 10:32:01.392,-0.01,0.035,0.993
2026/05/14 10:32:01.411,-0.011,0.038,0.998
2026/05/14 10:32:01.430,-0.014,0.037,1.0
2026/05/14 10:32:01.449,-0.015,0.039,0.995
2026/05/14 10:32:01.468,-0.009,0.036,0.992
2026/05/14 10:32:01.487,-0.011,0.038,0.995
2026/05/14 10:32:01.506,-0.011,0.035,0.998
2026/05/14 10:32:01.525,-0.011,0.037,0.998
2026/05/14 10:32:01.544,-0.01,0.036,0.998
2026/05/14 10:32:01.563,-0.013,0.036,0.996
2026/05/14 10:32:01.582,-0.012,0.038,1.0
2026/05/14 10:32:01.602,-0.011,0.037,0.997
2026/05/14 10:32:01.621,-0.012,0.038,0.995
2026/05/14 10:32:01.640,-0.014,0.039,0.994
2026/05/14 10:32:01.659,-0.012,0.035,0.994
2026/05/14 10:32:01.678,-0.009,0.038,0.999
2026/05/14 10:32:01.697,-0.013,0.035,1.0
2026/05/14 10:32:01.716,-0.011,0.04,0.996
2026/05/14 10:32:01.735,-0.011,0.037,0.995
2026/05/14 10:32:01.754,-0.011,0.041,0.993
2026/05/14 10:32:01.773,-0.006,0.037,0.995
2026/05/14 10:32:01.792,-0.013,0.038,0.994
2026/05/14 10:32:01.811,-0.006,0.039,0.996
2026/05/14 10:32:01.830,-0.008,0.034,0.997
2026/05/14 10:32:01.849,-0.012,0.037,0.994
2026/05/14 10:32:01.868,-0.01,0.036,0.999
2026/05/14 10:32:01.887,-0.015,0.037,0.993
2026/05/14 10:32:01.907,-0.013,0.037,0.998
2026/05/14 10:32:01.926,-0.011,0.04,1.0
2026/05/14 10:32:01.945,-0.011,0.037,0.994
2026/05/14 10:32:01.964,-0.011,0.038,0.998
2026/05/14 10:32:01.983,-0.009,0.038,0.997
2026/05/14 10:32:02.002,-0.009,0.035,0.999
2026/05/14 10:32:02.021,-0.01,0.038,0.995
2026/05/14 10:32:02.040,-0.013,0.04,0.996
2026/05/14 10:32:02.059,-0.012,0.036,0.997
2026/05/14 10:32:02.078,-0.013,0.036,0.998
2026/05/14 10:32:02.097,-0.015,0.038,0.999
2026/05/14 10:32:02.116,-0.01,0.039,0.999
2026/05/14 10:32:02.135,-0.01,0.038,0.998
2026/05/14 10:32:02.154,-0.01,0.039,0.999
2026/05/14 10:32:02.173,-0.01,0.042,0.999
2026/05/14 10:32:02.192,-0.007,0.037,0.998
2026/05/14 10:32:02.211,-0.014,0.04,0.996
2026/05/14 10:32:02.231,-0.011,0.036,0.998
2026/05/14 10:32:02.250,-0.01,0.035,0.997
2026/05/14 10:32:02.269,-0.007,0.04,0.998
2026/05/14 10:32:02.288,-0.009,0.037,1.0
2026/05/14 10:32:02.307,-0.013,0.036,0.999
2026/05/14 10:32:02.326,-0.01,0.037,0.999
2026/05/14 10:32:02.345,-0.015,0.033,1.002
2026/05/14 10:32:02.364,-0.013,0.04,0.995
2026/05/14 10:32:02.383,-0.013,0.041,0.996
2026/05/14 10:32:02.402,-0.012,0.04,0.999
2026/05/14 10:32:02.421,-0.008,0.036,0.995
2026/05/14 10:32:02.440,-0.01,0.035,1.0
2026/05/14 10:32:02.459,-0.011,0.034,0.999
2026/05/14 10:32:02.478,-0.012,0.04,0.999
2026/05/14 10:32:02.497,-0.01,0.039,1.0
2026/05/14 10:32:02.516,-0.01,0.039,0.994
2026/05/14 10:32:02.536,-0.01,0.039,0.996
2026/05/14 10:32:02.555,-0.01,0.04,0.997
2026/05/14 10:32:02.574,-0.015,0.037,0.999
2026/05/14 10:32:02.593,-0.01,0.035,0.997
2026/05/14 10:32:02.612,-0.013,0.039,0.998
2026/05/14 10:32:02.631,-0.011,0.037,0.996
2026/05/14 10:32:02.650,-0.015,0.038,0.998
2026/05/14 10:32:02.669,-0.008,0.038,1.0
2026/05/14 10:32:02.688,-0.011,0.037,0.999
2026/05/14 10:32:02.707,-0.01,0.036,0.996
2026/05/14 10:32:02.726,-0.008,0.04,0.996
2026/05/14 10:32:02.745,-0.014,0.038,0.995
2026/05/14 10:32:02.764,-0.014,0.037,0.997
2026/05/14 10:32:02.783,-0.011,0.037,0.997
2026/05/14 10:32:02.802,-0.013,0.035,1.0
2026/05/14 10:32:02.821,-0.016,0.035,0.995
2026/05/14 10:32:02.840,-0.011,0.036,0.994
2026/05/14 10:32:02.860,-0.01,0.039,0.992
2026/05/14 10:32:02.879,-0.013,0.038,0.998
2026/05/14 10:32:02.898,-0.01,0.037,0.998
2026/05/14 10:32:02.917,-0.011,0.035,0.997
2026/05/14 10:32:02.936,-0.01,0.039,0.999
2026/05/14 10:32:02.955,-0.013,0.037,0.995
2026/05/14 10:32:02.974,-0.012,0.041,0.996
2026/05/14 10:32:02.993,-0.008,0.042,0.998
2026/05/14 10:32:03.012,-0.014,0.038,0.997
2026/05/14 10:32:03.031,-0.011,0.041,1.003
2026/05/14 10:32:03.050,-0.012,0.034,0.999
2026/05/14 10:32:03.069,-0.007,0.034,0.998
2026/05/14 10:32:03.088,-0.008,0.036,0.998
2026/05/14 10:32:03.107,-0.01,0.041,0.996
2026/05/14 10:32:03.126,-0.013,0.037,1.001
2026/05/14 10:32:03.145,-0.01,0.04,0.994
2026/05/14 10:32:03.165,-0.01,0.04,1.0
2026/05/14 10:32:03.184,-0.012,0.038,1.001
2026/05/14 10:32:03.203,-0.009,0.036,0.994
2026/05/14 10:32:03.222,-0.009,0.039,0.997
2026/05/14 10:32:03.241,-0.013,0.04,0.996
2026/05/14 10:32:03.260,-0.011,0.036,0.998
2026/05/14 10:32:03.279,-0.012,0.034,0.995
2026/05/14 10:32:03.298,-0.012,0.04,0.995
2026/05/14 10:32:03.317,-0.012,0.039,0.999
2026/05/14 10:32:03.336,-0.014,0.036,0.995
2026/05/14 10:32:03.355,-0.008,0.037,0.997
2026/05/14 10:32:03.374,-0.01,0.037,0.998
2026/05/14 10:32:03.393,-0.01,0.039,1.001
2026/05/14 10:32:03.412,-0.011,0.035,0.995
2026/05/14 10:32:03.431,-0.011,0.037,0.997
2026/05/14 10:32:03.450,-0.011,0.039,0.996
2026/05/14 10:32:03.470,-0.015,0.037,0.995
2026/05/14 10:32:03.489,-0.014,0.036,0.996
2026/05/14 10:32:03.508,-0.009,0.039,0.997
2026/05/14 10:32:03.527,-0.012,0.037,0.999
2026/05/14 10:32:03.546,-0.008,0.039,0.996
2026/05/14 10:32:03.565,-0.012,0.04,0.994
2026/05/14 10:32:03.584,-0.013,0.035,0.995
2026/05/14 10:32:03.603,-0.01,0.039,0.997
2026/05/14 10:32:03.622,-0.014,0.038,0.993
2026/05/14 10:32:03.641,-0.009,0.035,0.997
2026/05/14 10:32:03.660,-0.01,0.036,0.995
2026/05/14 10:32:03.679,-0.012,0.039,1.001
2026/05/14 10:32:03.698,-0.011,0.04,0.997
2026/05/14 10:32:03.717,-0.015,0.033,0.997
2026/05/14 10:32:03.736,-0.011,0.037,0.994
2026/05/14 10:32:03.755,-0.014,0.04,0.996
2026/05/14 10:32:03.774,-0.007,0.033,0.998
2026/05/14 10:32:03.794,-0.014,0.036,0.997
2026/05/14 10:32:03.813,-0.012,0.04,0.996
2026/05/14 10:32:03.832,-0.015,0.036,0.994
2026/05/14 10:32:03.851,-0.011,0.037,0.996
2026/05/14 10:32:03.870,-0.011,0.037,0.998
2026/05/14 10:32:03.889,-0.017,0.038,0.998
2026/05/14 10:32:03.908,-0.013,0.034,1.0
2026/05/14 10:32:03.927,-0.013,0.037,0.996
2026/05/14 10:32:03.946,-0.013,0.039,0.995
2026/05/14 10:32:03.965,-0.011,0.039,0.996
2026/05/14 10:32:03.984,-0.009,0.037,1.0
2026/05/14 10:32:04.003,-0.009,0.038,0.999
2026/05/14 10:32:04.022,-0.006,0.035,0.995
2026/05/14 10:32:04.041,-0.012,0.034,0.995
2026/05/14 10:32:04.060,-0.012,0.038,0.997
2026/05/14 10:32:04.079,-0.009,0.036,0.995
2026/05/14 10:32:04.099,-0.009,0.038,1.0
2026/05/14 10:32:04.118,-0.012,0.037,0.998
2026/05/14 10:32:04.137,-0.013,0.037,1.0
2026/05/14 10:32:04.156,-0.012,0.038,0.997
2026/05/14 10:32:04.175,-0.01,0.036,0.996
2026/05/14 10:32:04.194,-0.014,0.034,0.995
2026/05/14 10:32:04.213,-0.01,0.04,0.996
2026/05/14 10:32:04.232,-0.014,0.039,0.993
2026/05/14 10:32:04.251,-0.014,0.037,0.998
2026/05/14 10:32:04.270,-0.012,0.038,0.993
2026/05/14 10:32:04.289,-0.011,0.036,0.994
2026/05/14 10:32:04.308,-0.011,0.039,1.0
2026/05/14 10:32:04.327,-0.007,0.042,0.996
2026/05/14 10:32:04.346,-0.014,0.039,0.997
2026/05/14 10:32:04.365,-0.014,0.035,0.995
2026/05/14 10:32:04.384,-0.008,0.034,0.998
2026/05/14 10:32:04.403,-0.014,0.039,0.998
2026/05/14 10:32:04.423,-0.012,0.035,0.996
2026/05/14 10:32:04.442,-0.01,0.035,0.997
2026/05/14 10:32:04.461,-0.013,0.039,0.998
2026/05/14 10:32:04.480,-0.013,0.038,0.994
2026/05/14 10:32:04.499,-0.011,0.034,0.997
2026/05/14 10:32:04.518,-0.011,0.034,0.998
2026/05/14 10:32:04.537,-0.01,0.036,0.998
2026/05/14 10:32:04.556,-0.012,0.042,0.997
2026/05/14 10:32:04.575,-0.014,0.041,0.998
2026/05/14 10:32:04.594,-0.01,0.04,0.998
2026/05/14 10:32:04.613,-0.011,0.036,0.994
2026/05/14 10:32:04.632,-0.013,0.038,1.0
2026/05/14 10:32:04.651,-0.014,0.035,0.995
2026/05/14 10:32:04.670,-0.012,0.034,0.998
2026/05/14 10:32:04.689,-0.013,0.039,1.0
2026/05/14 10:32:04.708,-0.012,0.036,1.0
2026/05/14 10:32:04.728,-0.012,0.039,0.996
2026/05/14 10:32:04.747,-0.012,0.036,0.997
2026/05/14 10:32:04.766,-0.012,0.041,0.991
2026/05/14 10:32:04.785,-0.008,0.04,0.998
2026/05/14 10:32:04.804,-0.011,0.038,0.997
2026/05/14 10:32:04.823,-0.012,0.038,0.993
2026/05/14 10:32:04.842,-0.015,0.037,0.993
2026/05/14 10:32:04.861,-0.008,0.035,0.994
2026/05/14 10:32:04.880,-0.008,0.039,0.994
2026/05/14 10:32:04.899,-0.012,0.037,0.994
2026/05/14 10:32:04.918,-0.009,0.032,0.998
2026/05/14 10:32:04.937,-0.011,0.035,0.997
2026/05/14 10:32:04.956,-0.01,0.04,0.999
2026/05/14 10:32:04.975,-0.013,0.038,0.995
2026/05/14 10:32:04.994,-0.011,0.037,0.995
2026/05/14 10:32:05.013,-0.014,0.037,0.994
2026/05/14 10:32:05.033,-0.006,0.039,0.997
2026/05/14 10:32:05.052,-0.01,0.04,0.995
2026/05/14 10:32:05.071,-0.012,0.04,0.998
2026/05/14 10:32:05.090,-0.01,0.037,0.998
2026/05/14 10:32:05.109,-0.013,0.04,0.998
2026/05/14 10:32:05.128,-0.016,0.033,0.996
2026/05/14 10:32:05.147,-0.011,0.036,0.996
2026/05/14 10:32:05.166,-0.013,0.036,0.997
2026/05/14 10:32:05.185,-0.013,0.036,0.998
2026/05/14 10:32:05.204,-0.008,0.036,0.996
2026/05/14 10:32:05.223,-0.01,0.035,0.997
2026/05/14 10:32:05.242,-0.012,0.036,0.999
2026/05/14 10:32:05.261,-0.012,0.036,0.996
2026/05/14 10:32:05.280,-0.012,0.036,0.998
2026/05/14 10:32:05.299,-0.009,0.035,0.996
2026/05/14 10:32:05.318,-0.006,0.037,0.995
2026/05/14 10:32:05.337,-0.012,0.039,1.001
2026/05/14 10:32:05.357,-0.008,0.037,0.994
2026/05/14 10:32:05.376,-0.012,0.038,0.998
2026/05/14 10:32:05.395,-0.01,0.039,0.995
2026/05/14 10:32:05.414,-0.012,0.039,0.996
2026/05/14 10:32:05.433,-0.01,0.034,0.995
2026/05/14 10:32:05.452,-0.011,0.037,0.995
2026/05/14 10:32:05.471,-0.012,0.036,0.995
2026/05/14 10:32:05.490,-0.01,0.037,0.997
2026/05/14 10:32:05.509,-0.014,0.037,0.996
2026/05/14 10:32:05.528,-0.012,0.037,0.994
2026/05/14 10:32:05.547,-0.009,0.037,0.997
2026/05/14 10:32:05.566,-0.011,0.037,0.997
2026/05/14 10:32:05.585,-0.009,0.033,0.995
2026/05/14 10:32:05.604,-0.017,0.037,0.995
2026/05/14 10:32:05.623,-0.014,0.038,0.997
2026/05/14 10:32:05.642,-0.009,0.036,0.994
2026/05/14 10:32:05.661,-0.012,0.035,0.996
2026/05/14 10:32:05.681,-0.01,0.037,0.998
2026/05/14 10:32:05.700,-0.009,0.037,0.999
2026/05/14 10:32:05.719,-0.011,0.035,0.996
2026/05/14 10:32:05.738,-0.008,0.041,0.993
2026/05/14 10:32:05.757,-0.009,0.034,0.997
2026/05/14 10:32:05.776,-0.009,0.036,0.996
2026/05/14 10:32:05.795,-0.008,0.036,0.994
2026/05/14 10:32:05.814,-0.008,0.037,0.994
2026/05/14 10:32:05.833,-0.008,0.039,0.995
2026/05/14 10:32:05.852,-0.014,0.036,0.995
2026/05/14 10:32:05.871,-0.01,0.034,0.995
2026/05/14 10:32:05.890,-0.014,0.034,0.998
2026/05/14 10:32:05.909,-0.011,0.038,0.997
2026/05/14 10:32:05.928,-0.009,0.033,0.996
2026/05/14 10:32:05.947,-0.008,0.038,0.995
2026/05/14 10:32:05.966,-0.012,0.035,0.997
2026/05/14 10:32:05.985,-0.014,0.04,0.995
2026/05/14 10:32:06.005,-0.008,0.04,0.998
2026/05/14 10:32:06.024,-0.013,0.034,0.999
2026/05/14 10:32:06.043,-0.012,0.034,0.993
2026/05/14 10:32:06.062,-0.011,0.034,0.995
2026/05/14 10:32:06.081,-0.015,0.041,0.996
2026/05/14 10:32:06.100,-0.009,0.037,0.996
2026/05/14 10:32:06.119,-0.013,0.039,0.998
2026/05/14 10:32:06.138,-0.009,0.041,0.997
2026/05/14 10:32:06.157,-0.012,0.04,0.994
2026/05/14 10:32:06.176,-0.011,0.037,0.993
2026/05/14 10:32:06.195,-0.011,0.038,0.993
2026/05/14 10:32:06.214,-0.012,0.034,0.999
2026/05/14 10:32:06.233,-0.008,0.039,0.998
2026/05/14 10:32:06.252,-0.008,0.035,0.995
2026/05/14 10:32:06.271,-0.013,0.036,0.998
2026/05/14 10:32:06.290,-0.01,0.033,0.997
2026/05/14 10:32:06.310,-0.013,0.036,0.999
2026/05/14 10:32:06.329,-0.012,0.04,0.999
2026/05/14 10:32:06.348,-0.012,0.04,0.997
2026/05/14 10:32:06.367,-0.011,0.039,0.997
2026/05/14 10:32:06.386,-0.012,0.038,0.994
2026/05/14 10:32:06.405,-0.01,0.03,0.997
2026/05/14 10:32:06.424,-0.011,0.039,0.995
2026/05/14 10:32:06.443,-0.013,0.036,0.996
2026/05/14 10:32:06.462,-0.011,0.038,0.998
2026/05/14 10:32:06.481,-0.013,0.04,0.996
2026/05/14 10:32:06.500,-0.006,0.039,0.997
2026/05/14 10:32:06.519,-0.012,0.035,0.994
2026/05/14 10:32:06.538,-0.015,0.036,0.999
2026/05/14 10:32:06.557,-0.008,0.036,0.995
2026/05/14 10:32:06.576,-0.011,0.037,0.998
2026/05/14 10:32:06.595,-0.014,0.038,0.994
2026/05/14 10:32:06.614,-0.009,0.034,0.994
2026/05/14 10:32:06.634,-0.012,0.037,0.996
2026/05/14 10:32:06.653,-0.011,0.036,0.993
2026/05/14 10:32:06.672,-0.011,0.039,0.994
2026/05/14 10:32:06.691,-0.009,0.037,1.005
2026/05/14 10:32:06.710,-0.01,0.039,0.996
2026/05/14 10:32:06.729,-0.011,0.038,0.996
2026/05/14 10:32:06.748,-0.009,0.037,0.996
2026/05/14 10:32:06.767,-0.008,0.037,0.997
2026/05/14 10:32:06.786,-0.01,0.038,0.996
2026/05/14 10:32:06.805,-0.012,0.036,0.995
2026/05/14 10:32:06.824,-0.01,0.041,1.0
2026/05/14 10:32:06.843,-0.011,0.036,0.999
2026/05/14 10:32:06.862,-0.013,0.034,0.996
2026/05/14 10:32:06.881,-0.015,0.04,0.998
2026/05/14 10:32:06.900,-0.01,0.039,0.996
2026/05/14 10:32:06.919,-0.011,0.036,0.997
2026/05/14 10:32:06.938,-0.008,0.043,0.994
2026/05/14 10:32:06.958,-0.009,0.035,0.998
2026/05/14 10:32:06.977,-0.016,0.038,0.997
2026/05/14 10:32:06.996,-0.013,0.039,0.998
2026/05/14 10:32:07.015,-0.007,0.036,1.0
2026/05/14 10:32:07.034,-0.012,0.039,0.996
2026/05/14 10:32:07.053,-0.01,0.037,0.997
2026/05/14 10:32:07.072,-0.013,0.033,0.997
2026/05/14 10:32:07.091,-0.012,0.036,0.999
2026/05/14 10:32:07.110,-0.01,0.039,0.997
2026/05/14 10:32:07.129,-0.01,0.037,0.999
2026/05/14 10:32:07.148,-0.014,0.037,0.996
2026/05/14 10:32:07.167,-0.012,0.036,1.002
2026/05/14 10:32:07.186,-0.012,0.041,0.998
2026/05/14 10:32:07.205,-0.014,0.038,0.997
2026/05/14 10:32:07.224,-0.013,0.036,0.997
2026/05/14 10:32:07.243,-0.009,0.039,0.998
2026/05/14 10:32:07.262,-0.01,0.038,0.994
2026/05/14 10:32:07.282,-0.013,0.038,0.997
2026/05/14 10:32:07.301,-0.011,0.035,0.994
2026/05/14 10:32:07.320,-0.008,0.034,0.994
2026/05/14 10:32:07.339,-0.009,0.042,0.995
2026/05/14 10:32:07.358,-0.008,0.035,0.999
2026/05/14 10:32:07.377,-0.013,0.038,0.994
2026/05/14 10:32:07.396,-0.011,0.04,0.997
2026/05/14 10:32:07.415,-0.013,0.037,0.995
2026/05/14 10:32:07.434,-0.011,0.035,1.0
2026/05/14 10:32:07.453,-0.013,0.038,0.995
2026/05/14 10:32:07.472,-0.009,0.04,0.997
2026/05/14 10:32:07.491,-0.01,0.036,0.997
2026/05/14 10:32:07.510,-0.009,0.039,0.995
2026/05/14 10:32:07.529,-0.01,0.035,0.996
2026/05/14 10:32:07.548,-0.009,0.037,0.996
2026/05/14 10:32:07.567,-0.009,0.039,0.998
2026/05/14 10:32:07.586,-0.012,0.039,0.996
2026/05/14 10:32:07.606,-0.012,0.039,0.995
2026/05/14 10:32:07.625,-0.009,0.036,1.001
2026/05/14 10:32:07.644,-0.009,0.037,0.997
2026/05/14 10:32:07.663,-0.01,0.036,1.001
2026/05/14 10:32:07.682,-0.013,0.036,0.998
2026/05/14 10:32:07.701,-0.012,0.039,0.998
2026/05/14 10:32:07.720,-0.013,0.034,0.998
2026/05/14 10:32:07.739,-0.008,0.034,0.997
2026/05/14 10:32:07.758,-0.011,0.039,0.997
2026/05/14 10:32:07.777,-0.015,0.033,0.997
2026/05/14 10:32:07.796,-0.009,0.038,0.995
2026/05/14 10:32:07.815,-0.014,0.036,0.999
2026/05/14 10:32:07.834,-0.008,0.036,0.995
2026/05/14 10:32:07.853,-0.01,0.039,0.995
2026/05/14 10:32:07.872,-0.011,0.039,0.998
2026/05/14 10:32:07.891,-0.011,0.037,0.998
2026/05/14 10:32:07.911,-0.011,0.037,0.996
2026/05/14 10:32:07.930,-0.013,0.035,0.998
2026/05/14 10:32:07.949,-0.012,0.041,0.996
2026/05/14 10:32:07.968,-0.01,0.035,0.994
2026/05/14 10:32:07.987,-0.015,0.036,0.997
2026/05/14 10:32:08.006,-0.012,0.035,0.996
2026/05/14 10:32:08.025,-0.009,0.036,0.994
2026/05/14 10:32:08.044,-0.009,0.039,1.001
2026/05/14 10:32:08.063,-0.014,0.042,1.0
2026/05/14 10:32:08.082,-0.013,0.04,0.996
2026/05/14 10:32:08.101,-0.012,0.036,0.996
2026/05/14 10:32:08.120,-0.013,0.037,0.996
2026/05/14 10:32:08.139,-0.014,0.038,0.997
2026/05/14 10:32:08.158,-0.014,0.038,0.998
2026/05/14 10:32:08.177,-0.01,0.038,1.0
2026/05/14 10:32:08.196,-0.011,0.039,0.994
2026/05/14 10:32:08.215,-0.011,0.038,0.996
2026/05/14 10:32:08.235,-0.012,0.038,0.997
2026/05/14 10:32:08.254,-0.012,0.04,0.999
2026/05/14 10:32:08.273,-0.013,0.035,1.0
2026/05/14 10:32:08.292,-0.01,0.039,0.999
2026/05/14 10:32:08.311,-0.011,0.038,0.999
2026/05/14 10:32:08.330,-0.011,0.035,0.995
2026/05/14 10:32:08.349,-0.009,0.036,0.997
2026/05/14 10:32:08.368,-0.014,0.041,0.994
2026/05/14 10:32:08.387,-0.011,0.035,0.995
2026/05/14 10:32:08.406,-0.009,0.037,0.995
2026/05/14 10:32:08.425,-0.015,0.038,0.994
2026/05/14 10:32:08.444,-0.01,0.036,0.993
2026/05/14 10:32:08.463,-0.013,0.039,0.995
2026/05/14 10:32:08.482,-0.011,0.04,0.999
2026/05/14 10:32:08.501,-0.013,0.039,1.003
2026/05/14 10:32:08.520,-0.01,0.036,1.003
2026/05/14 10:32:08.539,-0.011,0.036,0.998
2026/05/14 10:32:08.559,-0.012,0.033,0.996
2026/05/14 10:32:08.578,-0.012,0.033,0.996
2026/05/14 10:32:08.597,-0.008,0.034,0.997
2026/05/14 10:32:08.616,-0.012,0.039,0.993
2026/05/14 10:32:08.635,-0.011,0.038,0.997
2026/05/14 10:32:08.654,-0.012,0.042,0.999
2026/05/14 10:32:08.673,-0.015,0.039,0.992
2026/05/14 10:32:08.692,-0.011,0.039,0.998
2026/05/14 10:32:08.711,-0.011,0.04,0.997
2026/05/14 10:32:08.730,-0.014,0.037,0.996
2026/05/14 10:32:08.749,-0.01,0.036,0.994
2026/05/14 10:32:08.768,-0.009,0.039,0.996
2026/05/14 10:32:08.787,-0.012,0.038,0.997
2026/05/14 10:32:08.806,-0.01,0.038,0.994
2026/05/14 10:32:08.825,-0.01,0.038,0.997
2026/05/14 10:32:08.844,-0.013,0.037,0.994
2026/05/14 10:32:08.863,-0.01,0.035,0.996
2026/05/14 10:32:08.883,-0.01,0.041,0.997
2026/05/14 10:32:08.902,-0.01,0.035,0.995
2026/05/14 10:32:08.921,-0.014,0.04,0.997
2026/05/14 10:32:08.940,-0.011,0.039,0.998
2026/05/14 10:32:08.959,-0.01,0.036,0.998
2026/05/14 10:32:08.978,-0.011,0.034,0.998
2026/05/14 10:32:08.997,-0.008,0.04,0.996
2026/05/14 10:32:09.016,-0.006,0.036,0.998
2026/05/14 10:32:09.035,-0.009,0.037,0.997
2026/05/14 10:32:09.054,-0.01,0.038,0.998
2026/05/14 10:32:09.073,-0.01,0.037,0.998
2026/05/14 10:32:09.092,-0.008,0.035,0.998
2026/05/14 10:32:09.111,-0.011,0.034,0.997
2026/05/14 10:32:09.130,-0.014,0.039,0.998
2026/05/14 10:32:09.149,-0.013,0.035,0.997
2026/05/14 10:32:09.168,-0.01,0.037,0.999
2026/05/14 10:32:09.187,-0.012,0.035,0.996
2026/05/14 10:32:09.207,-0.013,0.038,0.994
2026/05/14 10:32:09.226,-0.012,0.038,0.993
2026/05/14 10:32:09.245,-0.009,0.036,0.997
2026/05/14 10:32:09.264,-0.008,0.036,0.997
2026/05/14 10:32:09.283,-0.011,0.035,1.0
2026/05/14 10:32:09.302,-0.011,0.039,0.997
2026/05/14 10:32:09.321,-0.01,0.039,0.997
2026/05/14 10:32:09.340,-0.012,0.037,1.0
2026/05/14 10:32:09.359,-0.009,0.034,0.995
2026/05/14 10:32:09.378,-0.011,0.038,0.999
2026/05/14 10:32:09.397,-0.013,0.039,0.995
2026/05/14 10:32:09.416,-0.013,0.039,0.997
2026/05/14 10:32:09.435,-0.009,0.038,0.998
2026/05/14 10:32:09.454,-0.01,0.04,0.994
2026/05/14 10:32:09.473,-0.009,0.038,0.998
2026/05/14 10:32:09.492,-0.012,0.034,0.995
2026/05/14 10:32:09.511,-0.012,0.035,0.997
2026/05/14 10:32:09.531,-0.013,0.037,0.996
2026/05/14 10:32:09.550,-0.011,0.039,0.997
2026/05/14 10:32:09.569,-0.007,0.041,1.0
2026/05/14 10:32:09.588,-0.01,0.038,1.0
2026/05/14 10:32:09.607,-0.01,0.04,0.996
2026/05/14 10:32:09.626,-0.006,0.042,0.996
