Timestamp,ACC X,ACC Y,ACC Z
2026/05/14 10:29:29.799,0.036,-0.006,1.014
2026/05/14 10:29:29.818,0.032,-0.007,1.013
2026/05/14 10:29:29.837,0.033,-0.007,1.016
2026/05/14 10:29:29.856,0.035,-0.005,1.017
2026/05/14 10:29:29.875,0.03,-0.004,1.011
2026/05/14 10:29:29.895,0.032,-0.007,1.02
2026/05/14 10:29:29.914,0.033,-0.008,1.012
2026/05/14 10:29:29.933,0.032,-0.008,1.021
2026/05/14 10:29:29.952,0.031,-0.008,1.02
2026/05/14 10:29:29.972,0.029,-0.006,1.014
2026/05/14 10:29:29.991,0.032,-0.009,1.015
2026/05/14 10:29:30.010,0.032,-0.008,1.012
2026/05/14 10:29:30.029,0.033,-0.01,1.016
2026/05/14 10:29:30.049,0.034,-0.006,1.013
2026/05/14 10:29:30.068,0.033,-0.009,1.014
2026/05/14 10:29:30.087,0.035,-0.007,1.018
2026/05/14 10:29:30.106,0.032,-0.008,1.018
2026/05/14 10:29:30.125,0.035,-0.007,1.013
2026/05/14 10:29:30.145,0.032,-0.008,1.016
2026/05/14 10:29:30.164,0.034,-0.007,1.016
2026/05/14 10:29:30.183,0.03,-0.01,1.018
2026/05/14 10:29:30.202,0.033,-0.006,1.013
2026/05/14 10:29:30.222,0.031,-0.006,1.015
2026/05/14 10:29:30.241,0.031,-0.005,1.014
2026/05/14 10:29:30.260,0.031,-0.01,1.02
2026/05/14 10:29:30.279,0.032,-0.011,1.015
2026/05/14 10:29:30.299,0.032,-0.003,1.015
2026/05/14 10:29:30.318,0.033,-0.005,1.016
2026/05/14 10:29:30.337,0.032,-0.006,1.014
2026/05/14 10:29:30.356,0.031,-0.006,1.015
2026/05/14 10:29:30.375,0.031,-0.006,1.011
2026/05/14 10:29:30.395,0.031,-0.01,1.014
2026/05/14 10:29:30.414,0.031,-0.007,1.014
2026/05/14 10:29:30.433,0.034,-0.008,1.015
2026/05/14 10:29:30.452,0.029,-0.007,1.016
2026/05/14 10:29:30.472,0.026,-0.002,1.008
2026/05/14 10:29:30.491,0.028,-0.006,1.002
2026/05/14 10:29:30.510,0.026,-0.005,0.996
2026/05/14 10:29:30.529,0.024,-0.005,0.996
2026/05/14 10:29:30.549,0.026,-0.006,0.999
2026/05/14 10:29:30.568,0.027,-0.007,1.003
2026/05/14 10:29:30.587,0.031,-0.005,1.005
2026/05/14 10:29:30.606,0.027,-0.005,1.006
2026/05/14 10:29:30.625,0.027,-0.007,1.007
2026/05/14 10:29:30.645,0.027,-0.005,1.003
2026/05/14 10:29:30.664,0.03,-0.004,1.006
2026/05/14 10:29:30.683,0.027,-0.007,1.008
2026/05/14 10:29:30.702,0.031,-0.008,1.009
2026/05/14 10:29:30.722,0.033,-0.007,1.006
2026/05/14 10:29:30.741,0.033,-0.008,1.013
2026/05/14 10:29:30.760,0.032,-0.009,1.015
2026/05/14 10:29:30.779,0.032,-0.008,1.016
2026/05/14 10:29:30.799,0.032,-0.007,1.018
2026/05/14 10:29:30.818,0.031,-0.006,1.014
2026/05/14 10:29:30.837,0.031,-0.007,1.016
2026/05/14 10:29:30.856,0.034,-0.005,1.015
2026/05/14 10:29:30.875,0.031,-0.007,1.013
2026/05/14 10:29:30.895,0.033,-0.007,1.017
2026/05/14 10:29:30.914,0.033,-0.005,1.014
2026/05/14 10:29:30.933,0.032,-0.008,1.013
2026/05/14 10:29:30.952,0.031,-0.009,1.015
2026/05/14 10:29:30.972,0.035,-0.005,1.014
2026/05/14 10:29:30.991,0.031,-0.007,1.015
2026/05/14 10:29:31.010,0.034,-0.009,1.017
2026/05/14 10:29:31.029,0.031,-0.004,1.015
2026/05/14 10:29:31.049,0.034,-0.009,1.01
2026/05/14 10:29:31.068,0.031,-0.005,1.017
2026/05/14 10:29:31.087,0.032,-0.008,1.012
2026/05/14 10:29:31.106,0.033,-0.006,1.016
2026/05/14 10:29:31.125,0.034,-0.007,1.012
2026/05/14 10:29:31.145,0.028,-0.008,1.015
2026/05/14 10:29:31.164,0.033,-0.006,1.016
2026/05/14 10:29:31.183,0.033,-0.008,1.016
2026/05/14 10:29:31.202,0.032,-0.006,1.017
2026/05/14 10:29:31.222,0.031,-0.003,1.015
2026/05/14 10:29:31.241,0.032,-0.008,1.016
2026/05/14 10:29:31.260,0.03,-0.007,1.015
2026/05/14 10:29:31.279,0.031,-0.009,1.015
2026/05/14 10:29:31.299,0.03,-0.006,1.013
2026/05/14 10:29:31.318,0.03,-0.004,1.014
2026/05/14 10:29:31.337,0.033,-0.007,1.014
2026/05/14 10:29:31.356,0.037,-0.005,1.012
2026/05/14 10:29:31.375,0.032,-0.007,1.013
2026/05/14 10:29:31.395,0.034,-0.007,1.013
2026/05/14 10:29:31.414,0.029,-0.01,1.013
2026/05/14 10:29:31.433,0.03,-0.008,1.013
2026/05/14 10:29:31.452,0.029,-0.002,1.018
2026/05/14 10:29:31.472,0.032,-0.012,1.02
2026/05/14 10:29:31.491,0.031,-0.004,1.015
2026/05/14 10:29:31.510,0.032,-0.008,1.017
2026/05/14 10:29:31.529,0.037,-0.006,1.015
2026/05/14 10:29:31.549,0.03,-0.007,1.019
2026/05/14 10:29:31.568,0.033,-0.009,1.014
2026/05/14 10:29:31.587,0.03,-0.007,1.013
2026/05/14 10:29:31.606,0.031,-0.005,1.017
2026/05/14 10:29:31.625,0.033,-0.009,1.016
2026/05/14 10:29:31.645,0.032,-0.007,1.012
2026/05/14 10:29:31.664,0.032,-0.008,1.014
2026/05/14 10:29:31.683,0.029,-0.007,1.011
2026/05/14 10:29:31.702,0.031,-0.005,1.014
2026/05/14 10:29:31.722,0.03,-0.007,1.016
2026/05/14 10:29:31.741,0.032,-0.005,1.014
2026/05/14 10:29:31.760,0.032,-0.008,1.014
2026/05/14 10:29:31.779,0.031,-0.006,1.016
2026/05/14 10:29:31.799,0.033,-0.008,1.014
2026/05/14 10:29:31.818,0.031,-0.01,1.013
2026/05/14 10:29:31.837,0.03,-0.006,1.016
2026/05/14 10:29:31.856,0.03,-0.003,1.013
2026/05/14 10:29:31.875,0.034,-0.005,1.017
2026/05/14 10:29:31.895,0.032,-0.008,1.017
2026/05/14 10:29:31.914,0.031,-0.008,1.017
2026/05/14 10:29:31.933,0.032,-0.005,1.013
2026/05/14 10:29:31.952,0.03,-0.007,1.016
2026/05/14 10:29:31.972,0.03,-0.006,1.018
2026/05/14 10:29:31.991,0.034,-0.005,1.013
2026/05/14 10:29:32.010,0.031,-0.009,1.015
2026/05/14 10:29:32.029,0.032,-0.006,1.015
2026/05/14 10:29:32.049,0.03,-0.005,1.017
2026/05/14 10:29:32.068,0.032,-0.008,1.015
2026/05/14 10:29:32.087,0.035,-0.007,1.016
2026/05/14 10:29:32.106,0.036,-0.009,1.026
2026/05/14 10:29:32.125,0.037,-0.006,1.038
2026/05/14 10:29:32.145,0.032,-0.004,1.026
2026/05/14 10:29:32.164,0.026,-0.002,1.0
2026/05/14 10:29:32.183,0.033,-0.009,1.023
2026/05/14 10:29:32.202,0.034,-0.004,1.016
2026/05/14 10:29:32.222,0.029,-0.007,1.011
2026/05/14 10:29:32.241,0.03,-0.002,1.015
2026/05/14 10:29:32.260,0.029,-0.007,1.01
2026/05/14 10:29:32.279,0.03,-0.008,1.012
2026/05/14 10:29:32.299,0.036,-0.012,1.018
2026/05/14 10:29:32.318,0.037,-0.007,1.018
2026/05/14 10:29:32.337,0.03,-0.008,1.01
2026/05/14 10:29:32.357,0.031,-0.007,1.016
2026/05/14 10:29:32.377,0.032,-0.006,1.018
2026/05/14 10:29:32.397,0.034,-0.007,1.013
2026/05/14 10:29:32.418,0.029,-0.008,1.016
2026/05/14 10:29:32.438,0.032,-0.006,1.012
2026/05/14 10:29:32.458,0.032,-0.007,1.016
2026/05/14 10:29:32.478,0.034,-0.007,1.018
2026/05/14 10:29:32.498,0.031,-0.006,1.017
2026/05/14 10:29:32.518,0.032,-0.009,1.011
2026/05/14 10:29:32.539,0.03,-0.006,1.014
2026/05/14 10:29:32.559,0.031,-0.005,1.018
2026/05/14 10:29:32.579,0.033,-0.011,1.016
2026/05/14 10:29:32.599,0.029,-0.013,1.013
2026/05/14 10:29:32.619,0.031,-0.007,1.012
2026/05/14 10:29:32.639,0.03,-0.008,1.016
2026/05/14 10:29:32.659,0.031,-0.003,1.009
2026/05/14 10:29:32.680,0.032,-0.005,1.018
2026/05/14 10:29:32.700,0.035,-0.007,1.015
2026/05/14 10:29:32.720,0.034,-0.005,1.016
2026/05/14 10:29:32.740,0.031,-0.007,1.015
2026/05/14 10:29:32.760,0.033,-0.005,1.012
2026/05/14 10:29:32.780,0.03,-0.008,1.014
2026/05/14 10:29:32.801,0.032,-0.006,1.021
2026/05/14 10:29:32.821,0.035,-0.007,1.016
2026/05/14 10:29:32.841,0.03,-0.006,1.015
2026/05/14 10:29:32.861,0.031,-0.006,1.017
2026/05/14 10:29:32.881,0.03,-0.007,1.017
2026/05/14 10:29:32.901,0.031,-0.009,1.016
2026/05/14 10:29:32.922,0.031,-0.007,1.019
2026/05/14 10:29:32.942,0.029,-0.008,1.016
2026/05/14 10:29:32.962,0.033,-0.007,1.017
2026/05/14 10:29:32.982,0.032,-0.005,1.016
2026/05/14 10:29:33.002,0.033,-0.01,1.016
2026/05/14 10:29:33.022,0.033,-0.007,1.015
2026/05/14 10:29:33.042,0.034,-0.011,1.015
2026/05/14 10:29:33.063,0.032,-0.007,1.014
2026/05/14 10:29:33.083,0.032,-0.01,1.018
2026/05/14 10:29:33.103,0.03,-0.007,1.015
2026/05/14 10:29:33.123,0.029,-0.006,1.014
2026/05/14 10:29:33.143,0.032,-0.005,1.017
2026/05/14 10:29:33.163,0.032,-0.005,1.012
2026/05/14 10:29:33.184,0.035,-0.003,1.015
2026/05/14 10:29:33.204,0.034,-0.007,1.016
2026/05/14 10:29:33.224,0.031,-0.009,1.015
2026/05/14 10:29:33.244,0.034,-0.006,1.014
2026/05/14 10:29:33.264,0.028,-0.005,1.018
2026/05/14 10:29:33.284,0.033,-0.006,1.015
2026/05/14 10:29:33.305,0.032,-0.006,1.015
2026/05/14 10:29:33.325,0.03,-0.004,1.016
2026/05/14 10:29:33.345,0.031,-0.004,1.012
2026/05/14 10:29:33.365,0.031,-0.008,1.017
2026/05/14 10:29:33.385,0.032,-0.005,1.013
2026/05/14 10:29:33.405,0.033,-0.003,1.014
2026/05/14 10:29:33.425,0.031,-0.007,1.012
2026/05/14 10:29:33.446,0.032,-0.006,1.018
2026/05/14 10:29:33.466,0.031,-0.006,1.014
2026/05/14 10:29:33.486,0.034,-0.009,1.015
2026/05/14 10:29:33.506,0.032,-0.009,1.013
2026/05/14 10:29:33.526,0.033,-0.008,1.017
2026/05/14 10:29:33.546,0.031,-0.009,1.015
2026/05/14 10:29:33.567,0.033,-0.005,1.021
2026/05/14 10:29:33.587,0.028,-0.009,1.015
2026/05/14 10:29:33.607,0.031,-0.008,1.017
2026/05/14 10:29:33.627,0.032,-0.003,1.019
2026/05/14 10:29:33.647,0.029,-0.006,1.015
2026/05/14 10:29:33.667,0.032,-0.007,1.01
2026/05/14 10:29:33.688,0.034,-0.006,1.015
2026/05/14 10:29:33.708,0.034,-0.011,1.013
2026/05/14 10:29:33.728,0.034,-0.012,1.016
2026/05/14 10:29:33.748,0.033,-0.007,1.021
2026/05/14 10:29:33.768,0.03,-0.006,1.019
2026/05/14 10:29:33.788,0.03,-0.003,1.009
2026/05/14 10:29:33.808,0.034,-0.008,1.017
2026/05/14 10:29:33.829,0.031,-0.006,1.015
2026/05/14 10:29:33.849,0.031,-0.009,1.021
2026/05/14 10:29:33.869,0.032,-0.003,1.013
2026/05/14 10:29:33.889,0.037,-0.008,1.015
2026/05/14 10:29:33.909,0.031,-0.008,1.017
2026/05/14 10:29:33.929,0.031,-0.006,1.018
2026/05/14 10:29:33.950,0.035,-0.006,1.013
2026/05/14 10:29:33.970,0.031,-0.005,1.016
2026/05/14 10:29:33.990,0.032,-0.009,1.015
2026/05/14 10:29:34.010,0.033,-0.002,1.019
2026/05/14 10:29:34.030,0.036,-0.008,1.014
2026/05/14 10:29:34.050,0.028,-0.008,1.016
2026/05/14 10:29:34.071,0.034,-0.008,1.026
2026/05/14 10:29:34.091,0.028,-0.009,1.003
2026/05/14 10:29:34.111,0.041,-0.012,1.03
2026/05/14 10:29:34.131,0.029,-0.005,1.003
2026/05/14 10:29:34.151,0.038,-0.01,1.028
2026/05/14 10:29:34.171,0.032,-0.005,1.016
2026/05/14 10:29:34.191,0.035,-0.007,1.016
2026/05/14 10:29:34.212,0.027,-0.009,1.012
2026/05/14 10:29:34.232,0.034,-0.008,1.014
2026/05/14 10:29:34.252,0.033,-0.006,1.014
2026/05/14 10:29:34.272,0.028,-0.008,1.001
2026/05/14 10:29:34.292,0.03,-0.007,1.014
2026/05/14 10:29:34.312,0.034,-0.008,1.016
2026/05/14 10:29:34.333,0.03,-0.006,1.014
2026/05/14 10:29:34.353,0.032,-0.006,1.012
2026/05/14 10:29:34.373,0.029,-0.006,1.018
2026/05/14 10:29:34.393,0.031,-0.008,1.015
2026/05/14 10:29:34.413,0.032,-0.005,1.013
2026/05/14 10:29:34.433,0.033,-0.004,1.02
2026/05/14 10:29:34.453,0.031,-0.007,1.013
2026/05/14 10:29:34.474,0.029,-0.007,1.008
2026/05/14 10:29:34.494,0.034,-0.008,1.021
2026/05/14 10:29:34.514,0.03,-0.003,1.007
2026/05/14 10:29:34.534,0.032,-0.008,1.011
2026/05/14 10:29:34.554,0.031,-0.007,1.019
2026/05/14 10:29:34.574,0.034,-0.007,1.016
2026/05/14 10:29:34.595,0.032,-0.008,1.015
2026/05/14 10:29:34.615,0.031,-0.005,1.007
2026/05/14 10:29:34.635,0.032,-0.007,1.01
2026/05/14 10:29:34.655,0.028,-0.004,1.009
2026/05/14 10:29:34.675,0.033,-0.003,1.008
2026/05/14 10:29:34.695,0.033,-0.008,1.01
2026/05/14 10:29:34.716,0.031,-0.006,1.016
2026/05/14 10:29:34.736,0.03,-0.007,1.019
2026/05/14 10:29:34.756,0.029,-0.011,1.014
2026/05/14 10:29:34.776,0.032,-0.011,1.019
2026/05/14 10:29:34.796,0.032,-0.01,1.016
2026/05/14 10:29:34.816,0.031,-0.005,1.017
2026/05/14 10:29:34.836,0.028,-0.006,1.014
2026/05/14 10:29:34.857,0.033,-0.01,1.018
2026/05/14 10:29:34.877,0.029,-0.006,1.015
2026/05/14 10:29:34.897,0.03,-0.003,1.005
2026/05/14 10:29:34.917,0.036,-0.009,1.021
2026/05/14 10:29:34.937,0.033,-0.006,1.019
2026/05/14 10:29:34.957,0.031,-0.007,1.011
2026/05/14 10:29:34.978,0.033,-0.004,1.018
2026/05/14 10:29:34.998,0.029,-0.008,1.009
2026/05/14 10:29:35.018,0.029,-0.002,1.008
2026/05/14 10:29:35.038,0.036,-0.007,1.017
2026/05/14 10:29:35.058,0.033,-0.011,1.021
2026/05/14 10:29:35.078,0.032,-0.009,1.017
2026/05/14 10:29:35.099,0.029,-0.008,1.012
2026/05/14 10:29:35.119,0.031,-0.013,1.014
2026/05/14 10:29:35.139,0.035,-0.008,1.012
2026/05/14 10:29:35.159,0.033,-0.01,1.024
2026/05/14 10:29:35.179,0.034,-0.007,1.018
2026/05/14 10:29:35.199,0.032,-0.003,1.007
2026/05/14 10:29:35.219,0.032,-0.004,1.015
2026/05/14 10:29:35.240,0.032,-0.003,1.012
2026/05/14 10:29:35.260,0.03,0.0,1.016
2026/05/14 10:29:35.280,0.031,-0.006,1.016
2026/05/14 10:29:35.300,0.034,-0.009,1.015
2026/05/14 10:29:35.320,0.035,-0.004,1.016
2026/05/14 10:29:35.340,0.037,-0.01,1.014
2026/05/14 10:29:35.361,0.03,-0.008,1.012
2026/05/14 10:29:35.381,0.031,-0.006,1.016
2026/05/14 10:29:35.401,0.027,-0.012,1.018
2026/05/14 10:29:35.421,0.028,-0.015,1.015
2026/05/14 10:29:35.441,0.028,-0.016,1.015
2026/05/14 10:29:35.461,0.029,-0.011,1.019
2026/05/14 10:29:35.481,0.034,-0.011,1.012
2026/05/14 10:29:35.502,0.034,-0.006,1.013
2026/05/14 10:29:35.522,0.035,-0.005,1.016
2026/05/14 10:29:35.542,0.034,-0.007,1.015
2026/05/14 10:29:35.562,0.03,-0.007,1.011
2026/05/14 10:29:35.582,0.032,-0.007,1.021
2026/05/14 10:29:35.602,0.029,-0.011,1.011
2026/05/14 10:29:35.623,0.03,-0.009,1.018
2026/05/14 10:29:35.643,0.033,-0.009,1.011
2026/05/14 10:29:35.663,0.033,-0.006,1.01
2026/05/14 10:29:35.683,0.035,-0.009,1.018
2026/05/14 10:29:35.703,0.038,-0.005,1.012
2026/05/14 10:29:35.723,0.036,-0.004,1.012
2026/05/14 10:29:35.743,0.033,-0.006,1.015
2026/05/14 10:29:35.764,0.027,0.002,1.008
2026/05/14 10:29:35.784,0.031,-0.001,1.021
2026/05/14 10:29:35.804,0.024,-0.001,1.012
2026/05/14 10:29:35.824,0.029,-0.004,1.015
2026/05/14 10:29:35.844,0.028,-0.014,1.013
2026/05/14 10:29:35.864,0.03,-0.021,1.019
2026/05/14 10:29:35.885,0.032,-0.021,1.016
2026/05/14 10:29:35.905,0.035,-0.013,1.015
2026/05/14 10:29:35.925,0.03,-0.007,1.016
2026/05/14 10:29:35.945,0.031,0.003,1.013
2026/05/14 10:29:35.965,0.038,0.003,1.013
2026/05/14 10:29:35.985,0.038,0.001,1.012
2026/05/14 10:29:36.005,0.035,-0.009,1.018
2026/05/14 10:29:36.026,0.037,-0.01,1.018
2026/05/14 10:29:36.046,0.033,-0.015,1.011
2026/05/14 10:29:36.066,0.027,-0.016,1.014
2026/05/14 10:29:36.086,0.02,-0.015,1.016
2026/05/14 10:29:36.106,0.02,-0.015,1.016
2026/05/14 10:29:36.126,0.027,-0.013,1.014
2026/05/14 10:29:36.147,0.033,-0.009,1.017
2026/05/14 10:29:36.167,0.038,-0.001,1.016
2026/05/14 10:29:36.187,0.04,0.008,1.017
2026/05/14 10:29:36.207,0.044,0.007,1.016
2026/05/14 10:29:36.227,0.04,0.009,1.009
2026/05/14 10:29:36.247,0.04,-0.001,1.019
2026/05/14 10:29:36.268,0.031,-0.005,1.018
2026/05/14 10:29:36.288,0.025,-0.014,1.006
2026/05/14 10:29:36.308,0.032,-0.023,1.019
2026/05/14 10:29:36.328,0.024,-0.022,1.006
2026/05/14 10:29:36.348,0.034,-0.024,1.044
2026/05/14 10:29:36.368,0.038,-0.017,1.05
2026/05/14 10:29:36.388,0.04,-0.001,1.036
2026/05/14 10:29:36.409,0.03,-0.001,1.02
2026/05/14 10:29:36.429,0.032,0.001,1.003
2026/05/14 10:29:36.449,0.042,-0.005,1.018
2026/05/14 10:29:36.469,0.037,-0.007,1.022
2026/05/14 10:29:36.489,0.039,-0.007,1.014
2026/05/14 10:29:36.509,0.027,-0.009,1.007
2026/05/14 10:29:36.530,0.025,-0.011,0.986
2026/05/14 10:29:36.550,0.029,-0.014,1.001
2026/05/14 10:29:36.570,0.025,-0.014,0.984
2026/05/14 10:29:36.590,0.031,-0.016,1.017
2026/05/14 10:29:36.610,0.04,-0.005,1.031
2026/05/14 10:29:36.630,0.042,-0.003,1.021
2026/05/14 10:29:36.650,0.032,0.004,0.997
2026/05/14 10:29:36.671,0.04,-0.004,1.04
2026/05/14 10:29:36.691,0.022,-0.006,0.987
2026/05/14 10:29:36.711,0.033,-0.018,1.027
2026/05/14 10:29:36.731,0.026,-0.006,1.003
2026/05/14 10:29:36.751,0.035,-0.006,1.039
2026/05/14 10:29:36.771,0.014,0.006,0.973
2026/05/14 10:29:36.792,0.037,-0.004,1.022
2026/05/14 10:29:36.812,0.032,-0.008,1.017
2026/05/14 10:29:36.832,0.032,-0.014,1.036
2026/05/14 10:29:36.852,0.031,-0.013,1.039
2026/05/14 10:29:36.872,0.041,-0.014,1.051
2026/05/14 10:29:36.892,0.044,-0.02,1.024
2026/05/14 10:29:36.912,0.051,-0.01,1.01
2026/05/14 10:29:36.933,0.044,0.0,1.022
2026/05/14 10:29:36.953,0.037,0.0,1.011
2026/05/14 10:29:36.973,0.024,0.002,1.005
2026/05/14 10:29:36.993,0.009,0.001,1.018
2026/05/14 10:29:37.013,0.02,-0.005,1.029
2026/05/14 10:29:37.033,0.026,-0.003,1.001
2026/05/14 10:29:37.054,0.041,-0.009,1.028
2026/05/14 10:29:37.074,0.029,0.002,0.994
2026/05/14 10:29:37.094,0.049,-0.007,1.035
2026/05/14 10:29:37.114,0.045,-0.015,1.022
2026/05/14 10:29:37.134,0.042,-0.018,1.041
2026/05/14 10:29:37.154,0.021,-0.016,1.016
2026/05/14 10:29:37.174,0.017,-0.008,1.009
2026/05/14 10:29:37.195,0.018,-0.004,1.013
2026/05/14 10:29:37.215,0.024,0.001,1.008
2026/05/14 10:29:37.235,0.03,-0.006,1.01
2026/05/14 10:29:37.255,0.046,-0.013,1.034
2026/05/14 10:29:37.275,0.042,-0.014,1.023
2026/05/14 10:29:37.295,0.046,-0.004,1.011
2026/05/14 10:29:37.316,0.032,0.001,1.0
2026/05/14 10:29:37.336,0.03,-0.001,1.018
2026/05/14 10:29:37.356,0.022,-0.005,1.014
2026/05/14 10:29:37.376,0.017,-0.008,1.007
2026/05/14 10:29:37.396,0.023,-0.01,1.008
2026/05/14 10:29:37.416,0.035,-0.011,1.024
2026/05/14 10:29:37.437,0.038,-0.009,1.016
2026/05/14 10:29:37.457,0.039,-0.01,1.016
2026/05/14 10:29:37.477,0.037,-0.009,1.012
2026/05/14 10:29:37.497,0.035,-0.011,1.008
2026/05/14 10:29:37.517,0.029,-0.014,1.021
2026/05/14 10:29:37.537,0.023,-0.009,1.013
2026/05/14 10:29:37.557,0.033,-0.004,1.021
2026/05/14 10:29:37.578,0.026,0.001,1.004
2026/05/14 10:29:37.598,0.032,-0.007,1.009
2026/05/14 10:29:37.618,0.035,-0.004,1.009
2026/05/14 10:29:37.638,0.038,-0.007,1.011
2026/05/14 10:29:37.658,0.039,-0.006,1.013
2026/05/14 10:29:37.678,0.033,-0.007,1.016
2026/05/14 10:29:37.699,0.028,-0.006,1.011
2026/05/14 10:29:37.719,0.027,-0.01,1.021
2026/05/14 10:29:37.739,0.026,-0.006,1.003
2026/05/14 10:29:37.759,0.022,-0.011,1.014
2026/05/14 10:29:37.779,0.038,-0.009,1.006
2026/05/14 10:29:37.799,0.036,-0.007,1.031
2026/05/14 10:29:37.819,0.04,-0.011,1.033
2026/05/14 10:29:37.840,0.038,-0.009,1.016
2026/05/14 10:29:37.860,0.034,-0.008,1.011
2026/05/14 10:29:37.880,0.034,-0.008,1.014
2026/05/14 10:29:37.900,0.026,-0.002,1.014
2026/05/14 10:29:37.920,0.025,-0.001,1.013
2026/05/14 10:29:37.940,0.028,0.0,1.011
2026/05/14 10:29:37.961,0.036,-0.007,1.019
2026/05/14 10:29:37.981,0.034,-0.009,1.014
2026/05/14 10:29:38.001,0.034,-0.009,1.012
2026/05/14 10:29:38.021,0.035,-0.008,1.014
2026/05/14 10:29:38.041,0.035,-0.007,1.017
2026/05/14 10:29:38.061,0.027,-0.012,1.015
2026/05/14 10:29:38.082,0.026,-0.01,1.02
2026/05/14 10:29:38.102,0.028,-0.009,1.012
2026/05/14 10:29:38.122,0.028,-0.009,1.018
2026/05/14 10:29:38.142,0.035,-0.009,1.015
2026/05/14 10:29:38.162,0.033,-0.003,1.014
2026/05/14 10:29:38.182,0.037,-0.006,1.012
2026/05/14 10:29:38.202,0.03,-0.008,1.016
2026/05/14 10:29:38.223,0.028,-0.008,1.011
2026/05/14 10:29:38.243,0.029,-0.005,1.011
2026/05/14 10:29:38.263,0.032,-0.005,1.017
2026/05/14 10:29:38.283,0.029,-0.004,1.015
2026/05/14 10:29:38.303,0.028,-0.005,1.013
2026/05/14 10:29:38.323,0.034,-0.005,1.013
2026/05/14 10:29:38.344,0.033,-0.008,1.011
2026/05/14 10:29:38.364,0.036,-0.011,1.012
2026/05/14 10:29:38.384,0.033,-0.008,1.013
2026/05/14 10:29:38.404,0.032,-0.007,1.016
2026/05/14 10:29:38.424,0.029,-0.008,1.015
2026/05/14 10:29:38.444,0.031,-0.006,1.011
2026/05/14 10:29:38.464,0.032,-0.01,1.015
2026/05/14 10:29:38.485,0.03,-0.007,1.012
2026/05/14 10:29:38.505,0.032,-0.008,1.014
2026/05/14 10:29:38.525,0.035,-0.006,1.018
2026/05/14 10:29:38.545,0.034,-0.004,1.02
2026/05/14 10:29:38.565,0.035,-0.008,1.014
2026/05/14 10:29:38.585,0.033,-0.004,1.016
2026/05/14 10:29:38.606,0.031,-0.004,1.012
2026/05/14 10:29:38.626,0.027,-0.008,1.007
2026/05/14 10:29:38.646,0.028,-0.008,1.017
2026/05/14 10:29:38.666,0.032,-0.009,1.019
2026/05/14 10:29:38.686,0.034,-0.006,1.011
2026/05/14 10:29:38.706,0.036,-0.008,1.015
2026/05/14 10:29:38.727,0.03,-0.008,1.017
2026/05/14 10:29:38.747,0.033,-0.007,1.019
2026/05/14 10:29:38.767,0.034,-0.006,1.024
2026/05/14 10:29:38.787,0.034,-0.008,1.015
2026/05/14 10:29:38.807,0.033,-0.005,1.026
2026/05/14 10:29:38.827,0.036,-0.006,1.026
2026/05/14 10:29:38.847,0.03,-0.004,1.004
2026/05/14 10:29:38.868,0.035,-0.005,1.022
2026/05/14 10:29:38.888,0.029,0.0,0.988
2026/05/14 10:29:38.908,0.034,-0.001,1.0
2026/05/14 10:29:38.928,0.04,-0.008,1.016
2026/05/14 10:29:38.948,0.04,-0.013,1.052
2026/05/14 10:29:38.968,0.015,0.0,0.987
2026/05/14 10:29:38.989,0.031,-0.008,0.999
2026/05/14 10:29:39.009,0.046,-0.015,1.039
2026/05/14 10:29:39.029,0.03,-0.005,0.995
2026/05/14 10:29:39.049,0.034,-0.011,1.019
2026/05/14 10:29:39.069,0.018,-0.001,0.972
2026/05/14 10:29:39.089,0.037,-0.01,1.027
2026/05/14 10:29:39.109,0.038,-0.006,1.018
2026/05/14 10:29:39.130,0.031,-0.006,1.015
2026/05/14 10:29:39.150,0.032,-0.005,1.017
2026/05/14 10:29:39.170,0.032,-0.008,1.016
2026/05/14 10:29:39.190,0.033,-0.006,1.016
2026/05/14 10:29:39.210,0.03,-0.005,1.013
2026/05/14 10:29:39.230,0.036,-0.009,1.016
2026/05/14 10:29:39.251,0.036,-0.008,1.013
2026/05/14 10:29:39.271,0.03,-0.009,1.016
2026/05/14 10:29:39.291,0.034,-0.008,1.014
2026/05/14 10:29:39.311,0.032,-0.008,1.015
2026/05/14 10:29:39.331,0.034,-0.008,1.011
2026/05/14 10:29:39.351,0.029,-0.007,1.012
2026/05/14 10:29:39.372,0.031,-0.006,1.014
2026/05/14 10:29:39.392,0.034,-0.005,1.02
2026/05/14 10:29:39.412,0.035,-0.006,1.014
2026/05/14 10:29:39.432,0.032,-0.007,1.015
2026/05/14 10:29:39.452,0.032,-0.007,1.015
2026/05/14 10:29:39.472,0.034,-0.006,1.016
2026/05/14 10:29:39.492,0.032,-0.007,1.016
2026/05/14 10:29:39.513,0.034,-0.009,1.013
2026/05/14 10:29:39.533,0.032,-0.007,1.011
2026/05/14 10:29:39.553,0.033,-0.007,1.015
2026/05/14 10:29:39.573,0.032,-0.011,1.013
2026/05/14 10:29:39.593,0.03,-0.01,1.017
2026/05/14 10:29:39.613,0.034,-0.008,1.017
2026/05/14 10:29:39.634,0.028,-0.009,1.016
2026/05/14 10:29:39.654,0.033,-0.007,1.016
2026/05/14 10:29:39.674,0.03,-0.005,1.013
2026/05/14 10:29:39.694,0.029,-0.003,1.013
2026/05/14 10:29:39.714,0.031,-0.006,1.016
2026/05/14 10:29:39.734,0.036,-0.007,1.013
2026/05/14 10:29:39.754,0.033,-0.006,1.012
2026/05/14 10:29:39.775,0.032,-0.006,1.014
2026/05/14 10:29:39.795,0.032,-0.009,1.015
2026/05/14 10:29:39.815,0.034,-0.007,1.013
2026/05/14 10:29:39.835,0.032,-0.005,1.013
2026/05/14 10:29:39.855,0.035,-0.007,1.017
2026/05/14 10:29:39.875,0.028,-0.007,1.015
2026/05/14 10:29:39.896,0.032,-0.009,1.011
2026/05/14 10:29:39.916,0.032,-0.008,1.014
2026/05/14 10:29:39.936,0.029,-0.007,1.014
2026/05/14 10:29:39.956,0.033,-0.008,1.017
2026/05/14 10:29:39.976,0.03,-0.011,1.013
2026/05/14 10:29:39.996,0.032,-0.006,1.015
2026/05/14 10:29:40.017,0.031,-0.007,1.015
2026/05/14 10:29:40.037,0.033,-0.009,1.014
2026/05/14 10:29:40.057,0.032,-0.004,1.013
2026/05/14 10:29:40.077,0.031,-0.008,1.012
2026/05/14 10:29:40.097,0.03,-0.008,1.014
2026/05/14 10:29:40.117,0.03,-0.006,1.016
2026/05/14 10:29:40.137,0.031,-0.008,1.014
2026/05/14 10:29:40.158,0.031,-0.005,1.012
2026/05/14 10:29:40.178,0.032,-0.006,1.014
2026/05/14 10:29:40.198,0.032,-0.006,1.014
2026/05/14 10:29:40.218,0.031,-0.008,1.014
2026/05/14 10:29:40.238,0.031,-0.005,1.014
2026/05/14 10:29:40.258,0.035,-0.008,1.016
2026/05/14 10:29:40.279,0.032,-0.005,1.014
2026/05/14 10:29:40.299,0.031,-0.006,1.015
2026/05/14 10:29:40.319,0.031,-0.005,1.014
2026/05/14 10:29:40.339,0.033,-0.004,1.017
2026/05/14 10:29:40.359,0.032,-0.007,1.012
2026/05/14 10:29:40.379,0.033,-0.005,1.013
2026/05/14 10:29:40.399,0.034,-0.004,1.013
2026/05/14 10:29:40.420,0.033,-0.008,1.016
2026/05/14 10:29:40.440,0.03,-0.008,1.015
2026/05/14 10:29:40.460,0.032,-0.008,1.015
2026/05/14 10:29:40.480,0.031,-0.006,1.014
2026/05/14 10:29:40.500,0.033,-0.009,1.015
2026/05/14 10:29:40.520,0.03,-0.009,1.016
2026/05/14 10:29:40.541,0.032,-0.008,1.014
2026/05/14 10:29:40.561,0.03,-0.004,1.015
2026/05/14 10:29:40.581,0.031,-0.007,1.016
2026/05/14 10:29:40.601,0.03,-0.007,1.014
2026/05/14 10:29:40.621,0.032,-0.008,1.014
2026/05/14 10:29:40.641,0.032,-0.01,1.015
2026/05/14 10:29:40.662,0.035,-0.006,1.017
2026/05/14 10:29:40.682,0.032,-0.009,1.012
2026/05/14 10:29:40.702,0.034,-0.007,1.013
2026/05/14 10:29:40.722,0.032,-0.004,1.015
2026/05/14 10:29:40.742,0.032,-0.006,1.012
2026/05/14 10:29:40.762,0.035,-0.007,1.012
2026/05/14 10:29:40.782,0.03,-0.009,1.012
2026/05/14 10:29:40.803,0.031,-0.009,1.013
2026/05/14 10:29:40.823,0.03,-0.007,1.016
2026/05/14 10:29:40.843,0.029,-0.01,1.014
2026/05/14 10:29:40.863,0.032,-0.008,1.016
2026/05/14 10:29:40.883,0.033,-0.006,1.017
2026/05/14 10:29:40.903,0.032,-0.004,1.017
2026/05/14 10:29:40.924,0.03,-0.006,1.015
2026/05/14 10:29:40.944,0.028,-0.005,1.014
2026/05/14 10:29:40.964,0.035,-0.005,1.017
2026/05/14 10:29:40.984,0.03,-0.005,1.011
2026/05/14 10:29:41.004,0.033,-0.006,1.016
2026/05/14 10:29:41.024,0.029,-0.005,1.016
2026/05/14 10:29:41.044,0.033,-0.008,1.012
2026/05/14 10:29:41.065,0.034,-0.006,1.016
2026/05/14 10:29:41.085,0.033,-0.005,1.013
2026/05/14 10:29:41.105,0.034,-0.01,1.017
2026/05/14 10:29:41.125,0.031,-0.005,1.015
2026/05/14 10:29:41.145,0.032,-0.006,1.017
2026/05/14 10:29:41.165,0.033,-0.004,1.018
2026/05/14 10:29:41.186,0.031,-0.007,1.013
2026/05/14 10:29:41.206,0.03,-0.007,1.014
2026/05/14 10:29:41.226,0.034,-0.007,1.009
2026/05/14 10:29:41.246,0.031,-0.005,1.014
2026/05/14 10:29:41.266,0.03,-0.008,1.015
2026/05/14 10:29:41.286,0.034,-0.008,1.014
2026/05/14 10:29:41.307,0.03,-0.007,1.014
2026/05/14 10:29:41.327,0.031,-0.007,1.012
2026/05/14 10:29:41.347,0.038,-0.004,1.016
2026/05/14 10:29:41.367,0.033,-0.007,1.014
2026/05/14 10:29:41.387,0.033,-0.01,1.015
2026/05/14 10:29:41.407,0.033,-0.006,1.012
2026/05/14 10:29:41.427,0.032,-0.011,1.014
2026/05/14 10:29:41.448,0.031,-0.005,1.012
2026/05/14 10:29:41.468,0.032,-0.005,1.012
2026/05/14 10:29:41.488,0.031,-0.008,1.016
2026/05/14 10:29:41.508,0.033,-0.008,1.011
2026/05/14 10:29:41.528,0.037,-0.01,1.016
2026/05/14 10:29:41.548,0.033,-0.008,1.015
2026/05/14 10:29:41.569,0.027,-0.009,1.011
2026/05/14 10:29:41.589,0.029,-0.009,1.014
2026/05/14 10:29:41.609,0.028,-0.008,1.014
2026/05/14 10:29:41.629,0.033,-0.007,1.013
2026/05/14 10:29:41.649,0.035,-0.011,1.013
2026/05/14 10:29:41.669,0.032,-0.007,1.011
2026/05/14 10:29:41.690,0.031,-0.006,1.011
2026/05/14 10:29:41.710,0.034,-0.01,1.015
2026/05/14 10:29:41.730,0.03,-0.008,1.016
2026/05/14 10:29:41.750,0.033,-0.006,1.017
2026/05/14 10:29:41.770,0.033,-0.008,1.013
2026/05/14 10:29:41.790,0.028,-0.007,1.012
2026/05/14 10:29:41.810,0.033,-0.005,1.014
2026/05/14 10:29:41.831,0.034,-0.005,1.014
2026/05/14 10:29:41.851,0.034,-0.004,1.014
2026/05/14 10:29:41.871,0.034,-0.003,1.017
2026/05/14 10:29:41.891,0.033,-0.006,1.012
2026/05/14 10:29:41.911,0.035,-0.006,1.013
2026/05/14 10:29:41.931,0.032,-0.007,1.011
2026/05/14 10:29:41.952,0.034,-0.011,1.015
2026/05/14 10:29:41.972,0.035,-0.005,1.016
2026/05/14 10:29:41.992,0.03,-0.006,1.013
2026/05/14 10:29:42.012,0.03,-0.007,1.012
2026/05/14 10:29:42.032,0.028,-0.008,1.014
2026/05/14 10:29:42.052,0.032,-0.006,1.018
2026/05/14 10:29:42.072,0.033,-0.009,1.013
2026/05/14 10:29:42.093,0.032,-0.006,1.015
2026/05/14 10:29:42.113,0.031,-0.007,1.018
2026/05/14 10:29:42.133,0.032,-0.004,1.016
2026/05/14 10:29:42.153,0.032,-0.006,1.015
2026/05/14 10:29:42.173,0.03,-0.005,1.011
2026/05/14 10:29:42.193,0.032,-0.009,1.015
2026/05/14 10:29:42.214,0.035,-0.006,1.012
2026/05/14 10:29:42.234,0.031,-0.007,1.011
2026/05/14 10:29:42.254,0.032,-0.009,1.011
2026/05/14 10:29:42.274,0.031,-0.008,1.014
2026/05/14 10:29:42.294,0.033,-0.008,1.015
2026/05/14 10:29:42.314,0.03,-0.006,1.011
2026/05/14 10:29:42.335,0.033,-0.007,1.018
2026/05/14 10:29:42.355,0.031,-0.009,1.01
2026/05/14 10:29:42.375,0.031,-0.007,1.012
2026/05/14 10:29:42.395,0.031,-0.009,1.016
2026/05/14 10:29:42.415,0.031,-0.006,1.011
2026/05/14 10:29:42.435,0.035,-0.006,1.014
2026/05/14 10:29:42.455,0.031,-0.009,1.015
2026/05/14 10:29:42.476,0.034,-0.005,1.012
2026/05/14 10:29:42.496,0.033,-0.007,1.013
2026/05/14 10:29:42.516,0.032,-0.008,1.015
2026/05/14 10:29:42.536,0.03,-0.006,1.013
2026/05/14 10:29:42.556,0.032,-0.008,1.01
2026/05/14 10:29:42.576,0.032,-0.005,1.014
2026/05/14 10:29:42.597,0.032,-0.006,1.012
2026/05/14 10:29:42.617,0.032,-0.008,1.01
2026/05/14 10:29:42.637,0.034,-0.007,1.013
2026/05/14 10:29:42.657,0.03,-0.005,1.012
2026/05/14 10:29:42.677,0.032,-0.008,1.015
2026/05/14 10:29:42.697,0.03,-0.007,1.013
2026/05/14 10:29:42.717,0.029,-0.008,1.015
2026/05/14 10:29:42.738,0.032,-0.004,1.016
2026/05/14 10:29:42.758,0.033,-0.008,1.016
2026/05/14 10:29:42.778,0.035,-0.007,1.014
2026/05/14 10:29:42.798,0.033,-0.004,1.013
2026/05/14 10:29:42.818,0.03,-0.008,1.013
2026/05/14 10:29:42.838,0.034,-0.012,1.013
2026/05/14 10:29:42.859,0.031,-0.006,1.016
2026/05/14 10:29:42.879,0.033,-0.01,1.014
2026/05/14 10:29:42.899,0.031,-0.007,1.012
2026/05/14 10:29:42.919,0.034,-0.009,1.016
2026/05/14 10:29:42.939,0.031,-0.007,1.014
2026/05/14 10:29:42.959,0.029,-0.009,1.016
2026/05/14 10:29:42.980,0.036,-0.009,1.017
2026/05/14 10:29:43.000,0.032,-0.005,1.015
2026/05/14 10:29:43.020,0.027,-0.007,1.013
2026/05/14 10:29:43.040,0.032,-0.007,1.014
2026/05/14 10:29:43.060,0.03,-0.008,1.016
2026/05/14 10:29:43.080,0.03,-0.007,1.012
2026/05/14 10:29:43.100,0.033,-0.01,1.013
2026/05/14 10:29:43.121,0.03,-0.004,1.016
2026/05/14 10:29:43.141,0.031,-0.008,1.016
2026/05/14 10:29:43.161,0.03,-0.006,1.014
2026/05/14 10:29:43.181,0.034,-0.004,1.013
2026/05/14 10:29:43.201,0.034,-0.007,1.014
2026/05/14 10:29:43.221,0.032,-0.009,1.017
2026/05/14 10:29:43.242,0.034,-0.008,1.015
2026/05/14 10:29:43.262,0.031,-0.006,1.015
2026/05/14 10:29:43.282,0.034,-0.004,1.015
2026/05/14 10:29:43.302,0.035,-0.005,1.017
2026/05/14 10:29:43.322,0.033,-0.009,1.015
2026/05/14 10:29:43.342,0.031,-0.011,1.016
2026/05/14 10:29:43.363,0.031,-0.003,1.014
2026/05/14 10:29:43.383,0.031,-0.005,1.012
2026/05/14 10:29:43.403,0.032,-0.009,1.013
2026/05/14 10:29:43.423,0.035,-0.006,1.01
2026/05/14 10:29:43.443,0.032,-0.01,1.011
2026/05/14 10:29:43.463,0.034,-0.007,1.014
2026/05/14 10:29:43.483,0.034,-0.009,1.012
2026/05/14 10:29:43.504,0.033,-0.009,1.016
2026/05/14 10:29:43.524,0.034,-0.006,1.012
2026/05/14 10:29:43.544,0.032,-0.009,1.013
2026/05/14 10:29:43.564,0.031,-0.008,1.014
2026/05/14 10:29:43.584,0.03,-0.008,1.014
2026/05/14 10:29:43.604,0.03,-0.009,1.012
2026/05/14 10:29:43.625,0.033,-0.01,1.012
2026/05/14 10:29:43.645,0.033,-0.009,1.013
2026/05/14 10:29:43.665,0.031,-0.006,1.01
2026/05/14 10:29:43.685,0.029,-0.005,1.011
2026/05/14 10:29:43.705,0.032,-0.005,1.013
2026/05/14 10:29:43.725,0.035,-0.01,1.016
2026/05/14 10:29:43.746,0.03,-0.006,1.013
2026/05/14 10:29:43.766,0.032,-0.006,1.015
2026/05/14 10:29:43.786,0.028,-0.008,1.013
2026/05/14 10:29:43.806,0.032,-0.013,1.017
2026/05/14 10:29:43.826,0.032,-0.004,1.012
2026/05/14 10:29:43.846,0.031,-0.008,1.013
2026/05/14 10:29:43.866,0.029,-0.007,1.011
2026/05/14 10:29:43.887,0.031,-0.005,1.014
2026/05/14 10:29:43.907,0.035,-0.008,1.016
2026/05/14 10:29:43.927,0.033,-0.006,1.017
2026/05/14 10:29:43.947,0.031,-0.007,1.015
2026/05/14 10:29:43.967,0.034,-0.005,1.014
2026/05/14 10:29:43.987,0.032,-0.005,1.012
2026/05/14 10:29:44.008,0.033,-0.007,1.013
2026/05/14 10:29:44.028,0.031,-0.006,1.014
2026/05/14 10:29:44.048,0.032,-0.008,1.016
2026/05/14 10:29:44.068,0.034,-0.007,1.014
2026/05/14 10:29:44.088,0.03,-0.009,1.018
2026/05/14 10:29:44.108,0.033,-0.004,1.014
2026/05/14 10:29:44.128,0.03,-0.01,1.015
2026/05/14 10:29:44.149,0.032,-0.007,1.012
2026/05/14 10:29:44.169,0.032,-0.005,1.016
2026/05/14 10:29:44.189,0.033,-0.005,1.012
2026/05/14 10:29:44.209,0.032,-0.006,1.017
2026/05/14 10:29:44.229,0.033,-0.006,1.015
2026/05/14 10:29:44.249,0.033,-0.005,1.016
2026/05/14 10:29:44.270,0.031,-0.006,1.013
2026/05/14 10:29:44.290,0.032,-0.013,1.016
2026/05/14 10:29:44.310,0.032,-0.007,1.013
2026/05/14 10:29:44.330,0.032,-0.007,1.012
2026/05/14 10:29:44.350,0.031,-0.005,1.014
2026/05/14 10:29:44.370,0.032,-0.007,1.013
2026/05/14 10:29:44.391,0.033,-0.007,1.012
2026/05/14 10:29:44.411,0.032,-0.006,1.015
2026/05/14 10:29:44.431,0.033,-0.008,1.017
2026/05/14 10:29:44.451,0.03,-0.005,1.012
2026/05/14 10:29:44.471,0.033,-0.008,1.015
2026/05/14 10:29:44.491,0.031,-0.009,1.018
2026/05/14 10:29:44.511,0.03,-0.009,1.015
2026/05/14 10:29:44.532,0.032,-0.007,1.014
2026/05/14 10:29:44.552,0.03,-0.009,1.014
2026/05/14 10:29:44.572,0.033,-0.011,1.014
2026/05/14 10:29:44.592,0.032,-0.007,1.018
2026/05/14 10:29:44.612,0.032,-0.004,1.015
2026/05/14 10:29:44.632,0.034,-0.01,1.014
2026/05/14 10:29:44.653,0.035,-0.007,1.013
2026/05/14 10:29:44.673,0.032,-0.009,1.012
2026/05/14 10:29:44.693,0.031,-0.009,1.016
2026/05/14 10:29:44.713,0.033,-0.007,1.015
2026/05/14 10:29:44.733,0.029,-0.009,1.015
2026/05/14 10:29:44.753,0.031,-0.006,1.016
2026/05/14 10:29:44.774,0.032,-0.007,1.015
2026/05/14 10:29:44.794,0.028,-0.007,1.012
2026/05/14 10:29:44.814,0.034,-0.007,1.016
2026/05/14 10:29:44.834,0.032,-0.009,1.016
2026/05/14 10:29:44.854,0.032,-0.007,1.014
2026/05/14 10:29:44.874,0.031,-0.007,1.017
2026/05/14 10:29:44.894,0.029,-0.006,1.019
2026/05/14 10:29:44.915,0.03,-0.007,1.015
2026/05/14 10:29:44.935,0.031,-0.01,1.018
2026/05/14 10:29:44.955,0.035,-0.004,1.013
2026/05/14 10:29:44.975,0.031,-0.011,1.014
2026/05/14 10:29:44.995,0.032,-0.009,1.013
2026/05/14 10:29:45.015,0.034,-0.008,1.016
2026/05/14 10:29:45.036,0.029,-0.01,1.013
2026/05/14 10:29:45.056,0.034,-0.008,1.019
2026/05/14 10:29:45.076,0.031,-0.005,1.012
2026/05/14 10:29:45.096,0.033,-0.008,1.015
2026/05/14 10:29:45.116,0.03,-0.003,1.014
2026/05/14 10:29:45.136,0.03,-0.008,1.016
2026/05/14 10:29:45.157,0.034,-0.007,1.021
2026/05/14 10:29:45.177,0.029,-0.006,1.018
2026/05/14 10:29:45.197,0.035,-0.005,1.011
2026/05/14 10:29:45.217,0.027,-0.004,1.01
2026/05/14 10:29:45.237,0.027,-0.009,1.008
2026/05/14 10:29:45.257,0.03,-0.006,1.018
2026/05/14 10:29:45.277,0.03,-0.008,1.014
2026/05/14 10:29:45.298,0.034,-0.005,1.016
2026/05/14 10:29:45.318,0.031,-0.009,1.013
2026/05/14 10:29:45.338,0.034,-0.006,1.013
2026/05/14 10:29:45.358,0.032,-0.001,1.016
2026/05/14 10:29:45.378,0.031,-0.011,1.014
2026/05/14 10:29:45.398,0.033,-0.007,1.014
2026/05/14 10:29:45.419,0.032,-0.01,1.016
2026/05/14 10:29:45.439,0.032,-0.006,1.01
2026/05/14 10:29:45.459,0.027,-0.005,0.989
2026/05/14 10:29:45.479,0.032,-0.005,1.01
2026/05/14 10:29:45.499,0.034,-0.008,1.016
2026/05/14 10:29:45.519,0.034,-0.004,1.015
2026/05/14 10:29:45.540,0.032,-0.004,1.018
2026/05/14 10:29:45.560,0.029,-0.012,1.01
2026/05/14 10:29:45.580,0.026,-0.006,0.997
2026/05/14 10:29:45.600,0.031,-0.005,1.006
2026/05/14 10:29:45.620,0.034,-0.008,1.012
2026/05/14 10:29:45.640,0.032,-0.007,1.012
2026/05/14 10:29:45.660,0.03,-0.004,1.013
2026/05/14 10:29:45.681,0.033,-0.009,1.009
2026/05/14 10:29:45.701,0.033,-0.009,1.014
2026/05/14 10:29:45.721,0.032,-0.008,1.015
2026/05/14 10:29:45.741,0.029,-0.006,1.013
2026/05/14 10:29:45.761,0.032,-0.009,1.012
2026/05/14 10:29:45.781,0.035,-0.009,1.017
2026/05/14 10:29:45.802,0.035,-0.01,1.023
2026/05/14 10:29:45.822,0.033,-0.007,1.019
2026/05/14 10:29:45.842,0.031,-0.007,1.012
2026/05/14 10:29:45.862,0.034,-0.007,1.019
2026/05/14 10:29:45.882,0.031,-0.005,1.016
2026/05/14 10:29:45.902,0.035,-0.009,1.012
2026/05/14 10:29:45.922,0.032,-0.005,1.016
2026/05/14 10:29:45.943,0.033,-0.006,1.014
2026/05/14 10:29:45.963,0.032,-0.008,1.013
2026/05/14 10:29:45.983,0.032,-0.007,1.013
2026/05/14 10:29:46.003,0.032,-0.008,1.014
2026/05/14 10:29:46.023,0.03,-0.011,1.014
2026/05/14 10:29:46.043,0.03,-0.005,1.011
2026/05/14 10:29:46.064,0.031,-0.005,1.011
2026/05/14 10:29:46.084,0.03,-0.006,1.016
2026/05/14 10:29:46.104,0.033,-0.005,1.012
2026/05/14 10:29:46.124,0.033,-0.006,1.014
2026/05/14 10:29:46.144,0.029,-0.008,1.011
2026/05/14 10:29:46.164,0.034,-0.009,1.015
2026/05/14 10:29:46.184,0.032,-0.006,1.014
2026/05/14 10:29:46.205,0.032,-0.006,1.012
2026/05/14 10:29:46.225,0.031,-0.009,1.012
2026/05/14 10:29:46.245,0.032,-0.007,1.022
2026/05/14 10:29:46.265,0.028,-0.007,1.011
2026/05/14 10:29:46.285,0.032,-0.006,1.015
2026/05/14 10:29:46.305,0.03,-0.008,1.016
2026/05/14 10:29:46.326,0.03,-0.005,1.017
2026/05/14 10:29:46.346,0.033,-0.008,1.014
2026/05/14 10:29:46.366,0.031,-0.007,1.018
2026/05/14 10:29:46.386,0.031,-0.006,1.011
2026/05/14 10:29:46.406,0.035,-0.005,1.019
2026/05/14 10:29:46.426,0.033,-0.006,1.014
2026/05/14 10:29:46.447,0.035,-0.006,1.02
2026/05/14 10:29:46.467,0.035,-0.012,1.012
2026/05/14 10:29:46.487,0.033,-0.009,1.016
2026/05/14 10:29:46.507,0.031,-0.007,1.015
2026/05/14 10:29:46.527,0.032,-0.007,1.017
2026/05/14 10:29:46.547,0.03,-0.005,1.012
2026/05/14 10:29:46.567,0.033,-0.007,1.011
2026/05/14 10:29:46.588,0.032,-0.006,1.014
2026/05/14 10:29:46.608,0.034,-0.006,1.013
2026/05/14 10:29:46.628,0.033,-0.005,1.013
2026/05/14 10:29:46.648,0.03,-0.009,1.016
2026/05/14 10:29:46.668,0.032,-0.007,1.012
2026/05/14 10:29:46.688,0.032,-0.005,1.013
2026/05/14 10:29:46.709,0.035,-0.008,1.018
2026/05/14 10:29:46.729,0.031,-0.007,1.012
2026/05/14 10:29:46.749,0.031,-0.009,1.016
2026/05/14 10:29:46.769,0.031,-0.007,1.015
2026/05/14 10:29:46.789,0.034,-0.009,1.009
2026/05/14 10:29:46.809,0.034,-0.008,1.016
2026/05/14 10:29:46.829,0.036,-0.008,1.014
2026/05/14 10:29:46.850,0.031,-0.01,1.012
2026/05/14 10:29:46.870,0.029,-0.006,1.009
2026/05/14 10:29:46.890,0.035,-0.009,1.014
2026/05/14 10:29:46.910,0.032,-0.006,1.02
2026/05/14 10:29:46.930,0.032,-0.008,1.015
2026/05/14 10:29:46.950,0.032,-0.009,1.011
2026/05/14 10:29:46.971,0.032,-0.009,1.021
2026/05/14 10:29:46.991,0.033,-0.006,1.018
2026/05/14 10:29:47.011,0.031,-0.01,1.016
2026/05/14 10:29:47.031,0.032,-0.008,1.013
2026/05/14 10:29:47.051,0.033,-0.005,1.014
2026/05/14 10:29:47.071,0.033,-0.011,1.018
2026/05/14 10:29:47.091,0.033,-0.005,1.015
2026/05/14 10:29:47.112,0.031,-0.01,1.012
2026/05/14 10:29:47.132,0.033,-0.006,1.019
2026/05/14 10:29:47.152,0.034,-0.01,1.015
2026/05/14 10:29:47.172,0.03,-0.009,1.011
2026/05/14 10:29:47.192,0.035,-0.007,1.015
2026/05/14 10:29:47.212,0.035,-0.011,1.011
2026/05/14 10:29:47.233,0.032,-0.008,1.011
2026/05/14 10:29:47.253,0.031,-0.008,1.014
2026/05/14 10:29:47.273,0.032,-0.009,1.015
2026/05/14 10:29:47.293,0.032,-0.003,1.019
2026/05/14 10:29:47.313,0.031,-0.005,1.016
2026/05/14 10:29:47.333,0.032,-0.007,1.01
2026/05/14 10:29:47.354,0.031,-0.007,1.016
2026/05/14 10:29:47.374,0.031,-0.006,1.017
2026/05/14 10:29:47.394,0.031,-0.008,1.011
2026/05/14 10:29:47.414,0.035,-0.009,1.014
2026/05/14 10:29:47.434,0.032,-0.009,1.017
2026/05/14 10:29:47.454,0.035,-0.008,1.009
2026/05/14 10:29:47.474,0.033,-0.008,1.021
2026/05/14 10:29:47.495,0.032,-0.01,1.011
2026/05/14 10:29:47.515,0.032,-0.008,1.011
2026/05/14 10:29:47.535,0.031,-0.007,1.013
2026/05/14 10:29:47.555,0.03,-0.007,1.015
2026/05/14 10:29:47.575,0.031,-0.007,1.013
2026/05/14 10:29:47.595,0.032,-0.007,1.019
2026/05/14 10:29:47.616,0.032,-0.009,1.014
2026/05/14 10:29:47.636,0.036,-0.007,1.016
2026/05/14 10:29:47.656,0.035,-0.007,1.013
2026/05/14 10:29:47.676,0.032,-0.005,1.015
2026/05/14 10:29:47.696,0.033,-0.007,1.011
2026/05/14 10:29:47.716,0.031,-0.007,1.013
2026/05/14 10:29:47.736,0.029,-0.008,1.013
2026/05/14 10:29:47.757,0.032,-0.007,1.014
2026/05/14 10:29:47.777,0.031,-0.009,1.015
2026/05/14 10:29:47.797,0.031,-0.006,1.011
2026/05/14 10:29:47.817,0.032,-0.007,1.012
2026/05/14 10:29:47.837,0.033,-0.008,1.017
2026/05/14 10:29:47.857,0.031,-0.005,1.011
2026/05/14 10:29:47.878,0.033,-0.008,1.014
2026/05/14 10:29:47.898,0.032,-0.004,1.014
2026/05/14 10:29:47.918,0.031,-0.007,1.014
2026/05/14 10:29:47.938,0.031,-0.005,1.014
2026/05/14 10:29:47.958,0.03,-0.006,1.015
2026/05/14 10:29:47.978,0.032,-0.006,1.013
2026/05/14 10:29:47.998,0.029,-0.006,1.012
2026/05/14 10:29:48.019,0.03,-0.005,1.019
2026/05/14 10:29:48.039,0.03,-0.009,1.013
2026/05/14 10:29:48.059,0.03,-0.003,1.012
2026/05/14 10:29:48.079,0.032,-0.009,1.014
2026/05/14 10:29:48.099,0.031,-0.008,1.015
2026/05/14 10:29:48.119,0.029,-0.009,1.014
2026/05/14 10:29:48.140,0.03,-0.008,1.013
2026/05/14 10:29:48.160,0.029,-0.006,1.013
2026/05/14 10:29:48.180,0.034,-0.005,1.014
2026/05/14 10:29:48.200,0.034,-0.008,1.02
2026/05/14 10:29:48.220,0.032,-0.004,1.012
2026/05/14 10:29:48.240,0.029,-0.006,1.011
2026/05/14 10:29:48.261,0.034,-0.006,1.01
2026/05/14 10:29:48.281,0.031,-0.006,1.011
2026/05/14 10:29:48.301,0.036,-0.006,1.012
2026/05/14 10:29:48.321,0.033,-0.009,1.012
2026/05/14 10:29:48.341,0.032,-0.005,1.017
2026/05/14 10:29:48.361,0.032,-0.006,1.014
2026/05/14 10:29:48.381,0.035,-0.005,1.014
2026/05/14 10:29:48.402,0.03,-0.005,1.011
2026/05/14 10:29:48.422,0.034,-0.008,1.013
2026/05/14 10:29:48.442,0.029,-0.009,1.013
2026/05/14 10:29:48.462,0.031,-0.004,1.011
2026/05/14 10:29:48.482,0.032,-0.005,1.014
2026/05/14 10:29:48.502,0.03,-0.008,1.016
2026/05/14 10:29:48.523,0.033,-0.008,1.016
2026/05/14 10:29:48.543,0.033,-0.009,1.014
2026/05/14 10:29:48.563,0.034,-0.008,1.015
2026/05/14 10:29:48.583,0.03,-0.008,1.016
2026/05/14 10:29:48.603,0.029,-0.008,1.016
2026/05/14 10:29:48.623,0.033,-0.005,1.013
2026/05/14 10:29:48.644,0.033,-0.007,1.016
2026/05/14 10:29:48.664,0.031,-0.006,1.013
2026/05/14 10:29:48.684,0.03,-0.006,1.013
2026/05/14 10:29:48.704,0.032,-0.006,1.014
2026/05/14 10:29:48.724,0.032,-0.008,1.01
2026/05/14 10:29:48.744,0.032,-0.005,1.014
2026/05/14 10:29:48.764,0.03,-0.007,1.014
2026/05/14 10:29:48.785,0.033,-0.009,1.01
2026/05/14 10:29:48.805,0.027,-0.009,1.011
2026/05/14 10:29:48.825,0.033,-0.01,1.014
2026/05/14 10:29:48.845,0.031,-0.005,1.01
2026/05/14 10:29:48.865,0.034,-0.007,1.012
2026/05/14 10:29:48.885,0.031,-0.009,1.011
2026/05/14 10:29:48.906,0.029,-0.005,1.014
2026/05/14 10:29:48.926,0.031,-0.007,1.014
2026/05/14 10:29:48.946,0.031,-0.007,1.015
2026/05/14 10:29:48.966,0.03,-0.007,1.014
2026/05/14 10:29:48.986,0.036,-0.004,1.016
2026/05/14 10:29:49.006,0.036,-0.01,1.014
2026/05/14 10:29:49.027,0.032,-0.006,1.014
2026/05/14 10:29:49.047,0.029,-0.009,1.014
2026/05/14 10:29:49.067,0.03,-0.007,1.015
2026/05/14 10:29:49.087,0.031,-0.008,1.013
2026/05/14 10:29:49.107,0.033,-0.005,1.017
2026/05/14 10:29:49.127,0.03,-0.007,1.015
2026/05/14 10:29:49.147,0.031,-0.005,1.015
2026/05/14 10:29:49.168,0.033,-0.007,1.011
2026/05/14 10:29:49.188,0.029,-0.007,1.013
2026/05/14 10:29:49.208,0.031,-0.009,1.013
2026/05/14 10:29:49.228,0.033,-0.008,1.011
2026/05/14 10:29:49.248,0.029,-0.006,1.011
2026/05/14 10:29:49.268,0.032,-0.005,1.014
2026/05/14 10:29:49.289,0.032,-0.006,1.014
2026/05/14 10:29:49.309,0.034,-0.006,1.01
2026/05/14 10:29:49.329,0.035,-0.009,1.012
2026/05/14 10:29:49.349,0.033,-0.006,1.011
2026/05/14 10:29:49.369,0.032,-0.008,1.01
2026/05/14 10:29:49.389,0.033,-0.006,1.015
2026/05/14 10:29:49.410,0.03,-0.008,1.016
2026/05/14 10:29:49.430,0.03,-0.01,1.011
2026/05/14 10:29:49.450,0.031,-0.006,1.014
2026/05/14 10:29:49.470,0.031,-0.005,1.012
2026/05/14 10:29:49.490,0.029,-0.005,1.015
2026/05/14 10:29:49.510,0.034,-0.006,1.018
2026/05/14 10:29:49.530,0.033,-0.012,1.017
2026/05/14 10:29:49.551,0.035,-0.007,1.018
2026/05/14 10:29:49.571,0.032,-0.006,1.012
2026/05/14 10:29:49.591,0.032,-0.006,1.015
2026/05/14 10:29:49.611,0.033,-0.009,1.011
2026/05/14 10:29:49.631,0.034,-0.009,1.013
2026/05/14 10:29:49.651,0.03,-0.007,1.015
2026/05/14 10:29:49.672,0.029,-0.007,1.012
2026/05/14 10:29:49.692,0.029,-0.004,1.013
2026/05/14 10:29:49.712,0.032,-0.007,1.014
2026/05/14 10:29:49.732,0.028,-0.011,1.011
2026/05/14 10:29:49.752,0.028,-0.005,1.011
2026/05/14 10:29:49.772,0.032,-0.005,1.014
2026/05/14 10:29:49.792,0.033,-0.008,1.014
2026/05/14 10:29:49.813,0.029,-0.012,1.013
2026/05/14 10:29:49.833,0.032,-0.005,1.018
2026/05/14 10:29:49.853,0.034,-0.001,1.011
2026/05/14 10:29:49.873,0.033,-0.007,1.011
2026/05/14 10:29:49.893,0.031,-0.007,1.014
2026/05/14 10:29:49.913,0.032,-0.006,1.013
2026/05/14 10:29:49.934,0.032,-0.003,1.015
2026/05/14 10:29:49.954,0.03,-0.008,1.013
2026/05/14 10:29:49.974,0.028,-0.006,1.017
2026/05/14 10:29:49.994,0.033,-0.005,1.011
2026/05/14 10:29:50.014,0.031,-0.005,1.015
2026/05/14 10:29:50.034,0.037,-0.008,1.018
2026/05/14 10:29:50.055,0.031,-0.005,1.015
2026/05/14 10:29:50.075,0.032,-0.005,1.013
2026/05/14 10:29:50.095,0.034,-0.011,1.013
2026/05/14 10:29:50.115,0.031,-0.008,1.015
2026/05/14 10:29:50.135,0.03,-0.007,1.015
2026/05/14 10:29:50.155,0.033,-0.004,1.014
2026/05/14 10:29:50.175,0.029,-0.006,1.017
2026/05/14 10:29:50.196,0.035,-0.009,1.012
2026/05/14 10:29:50.216,0.034,-0.012,1.011
2026/05/14 10:29:50.236,0.03,-0.007,1.015
2026/05/14 10:29:50.256,0.032,-0.007,1.016
2026/05/14 10:29:50.276,0.032,-0.005,1.011
2026/05/14 10:29:50.296,0.033,-0.008,1.016
2026/05/14 10:29:50.317,0.032,-0.005,1.014
2026/05/14 10:29:50.337,0.037,-0.006,1.015
2026/05/14 10:29:50.357,0.032,-0.007,1.017
2026/05/14 10:29:50.377,0.031,-0.007,1.013
2026/05/14 10:29:50.397,0.032,-0.006,1.013
2026/05/14 10:29:50.417,0.031,-0.005,1.008
2026/05/14 10:29:50.438,0.032,-0.005,1.016
2026/05/14 10:29:50.458,0.033,-0.008,1.014
2026/05/14 10:29:50.478,0.031,-0.008,1.015
2026/05/14 10:29:50.498,0.032,-0.007,1.013
2026/05/14 10:29:50.518,0.033,-0.009,1.015
2026/05/14 10:29:50.538,0.031,-0.006,1.013
2026/05/14 10:29:50.558,0.028,-0.006,1.015
2026/05/14 10:29:50.579,0.034,-0.008,1.017
2026/05/14 10:29:50.599,0.033,-0.008,1.016
2026/05/14 10:29:50.619,0.029,-0.005,1.009
2026/05/14 10:29:50.639,0.032,-0.009,1.016
2026/05/14 10:29:50.659,0.032,-0.009,1.013
2026/05/14 10:29:50.679,0.03,-0.005,1.014
2026/05/14 10:29:50.700,0.032,-0.005,1.014
2026/05/14 10:29:50.720,0.028,-0.008,1.016
2026/05/14 10:29:50.740,0.033,-0.008,1.009
2026/05/14 10:29:50.760,0.034,-0.004,1.011
2026/05/14 10:29:50.780,0.032,-0.01,1.013
2026/05/14 10:29:50.800,0.033,-0.01,1.011
2026/05/14 10:29:50.821,0.029,-0.006,1.01
2026/05/14 10:29:50.841,0.036,-0.009,1.021
2026/05/14 10:29:50.861,0.029,-0.006,1.009
2026/05/14 10:29:50.881,0.033,-0.009,1.011
2026/05/14 10:29:50.901,0.028,-0.008,1.014
2026/05/14 10:29:50.921,0.034,-0.01,1.01
2026/05/14 10:29:50.941,0.028,-0.006,1.018
2026/05/14 10:29:50.962,0.028,-0.004,0.995
2026/05/14 10:29:50.982,0.03,-0.006,1.026
2026/05/14 10:29:51.002,0.035,-0.009,1.022
2026/05/14 10:29:51.022,0.03,-0.009,1.007
2026/05/14 10:29:51.042,0.035,-0.01,1.013
2026/05/14 10:29:51.062,0.031,-0.007,1.014
2026/05/14 10:29:51.083,0.032,-0.005,1.014
2026/05/14 10:29:51.103,0.034,-0.01,1.015
2026/05/14 10:29:51.123,0.03,-0.008,1.016
2026/05/14 10:29:51.143,0.03,-0.009,1.019
2026/05/14 10:29:51.163,0.035,-0.006,1.018
2026/05/14 10:29:51.183,0.034,-0.005,1.013
2026/05/14 10:29:51.204,0.029,-0.008,1.006
2026/05/14 10:29:51.224,0.028,-0.006,1.009
2026/05/14 10:29:51.244,0.033,-0.008,1.014
2026/05/14 10:29:51.264,0.034,-0.007,1.016
2026/05/14 10:29:51.284,0.032,-0.006,1.012
2026/05/14 10:29:51.304,0.03,-0.006,1.011
2026/05/14 10:29:51.324,0.032,-0.007,1.016
2026/05/14 10:29:51.345,0.033,-0.004,1.009
2026/05/14 10:29:51.365,0.038,-0.01,1.016
2026/05/14 10:29:51.385,0.03,-0.006,1.01
2026/05/14 10:29:51.405,0.035,-0.005,1.015
2026/05/14 10:29:51.425,0.03,-0.005,1.015
2026/05/14 10:29:51.445,0.033,-0.006,1.013
2026/05/14 10:29:51.466,0.032,-0.004,1.015
2026/05/14 10:29:51.486,0.03,-0.008,1.018
2026/05/14 10:29:51.506,0.036,-0.007,1.014
2026/05/14 10:29:51.526,0.032,-0.006,1.011
2026/05/14 10:29:51.546,0.031,-0.004,1.02
2026/05/14 10:29:51.566,0.032,-0.007,1.019
2026/05/14 10:29:51.587,0.032,-0.008,1.015
2026/05/14 10:29:51.607,0.032,-0.006,1.016
2026/05/14 10:29:51.627,0.031,-0.006,1.015
2026/05/14 10:29:51.647,0.032,-0.008,1.013
2026/05/14 10:29:51.667,0.032,-0.009,1.014
2026/05/14 10:29:51.687,0.029,-0.009,1.014
2026/05/14 10:29:51.707,0.032,-0.004,1.015
2026/05/14 10:29:51.728,0.034,-0.006,1.014
2026/05/14 10:29:51.748,0.032,-0.011,1.011
2026/05/14 10:29:51.768,0.032,-0.01,1.018
2026/05/14 10:29:51.788,0.035,-0.01,1.012
2026/05/14 10:29:51.808,0.032,-0.008,1.015
2026/05/14 10:29:51.828,0.033,-0.005,1.012
2026/05/14 10:29:51.849,0.029,-0.008,1.015
2026/05/14 10:29:51.869,0.031,-0.006,1.015
2026/05/14 10:29:51.889,0.034,-0.009,1.014
2026/05/14 10:29:51.909,0.03,-0.007,1.013
2026/05/14 10:29:51.929,0.033,-0.008,1.015
2026/05/14 10:29:51.949,0.031,-0.008,1.014
2026/05/14 10:29:51.970,0.032,-0.006,1.015
2026/05/14 10:29:51.990,0.032,-0.005,1.011
2026/05/14 10:29:52.010,0.032,-0.007,1.015
2026/05/14 10:29:52.030,0.032,-0.006,1.014
2026/05/14 10:29:52.050,0.034,-0.008,1.016
2026/05/14 10:29:52.070,0.032,-0.007,1.014
2026/05/14 10:29:52.090,0.032,-0.005,1.013
2026/05/14 10:29:52.111,0.035,-0.009,1.012
2026/05/14 10:29:52.131,0.031,-0.008,1.014
2026/05/14 10:29:52.151,0.029,-0.007,1.015
2026/05/14 10:29:52.171,0.032,-0.005,1.013
2026/05/14 10:29:52.191,0.035,-0.01,1.014
2026/05/14 10:29:52.211,0.031,-0.008,1.017
2026/05/14 10:29:52.232,0.032,-0.008,1.013
2026/05/14 10:29:52.252,0.031,-0.006,1.014
2026/05/14 10:29:52.272,0.033,-0.01,1.015
2026/05/14 10:29:52.292,0.057,0.012,1.044
2026/05/14 10:29:52.312,0.108,0.034,1.082
2026/05/14 10:29:52.332,0.091,-0.013,1.028
2026/05/14 10:29:52.353,-0.019,0.004,1.117
2026/05/14 10:29:52.373,0.012,0.012,0.969
2026/05/14 10:29:52.393,-0.001,-0.039,0.948
2026/05/14 10:29:52.413,0.017,0.004,0.978
2026/05/14 10:29:52.433,0.015,-0.005,0.992
2026/05/14 10:29:52.453,0.043,-0.004,1.012
2026/05/14 10:29:52.474,0.048,-0.034,1.034
2026/05/14 10:29:52.494,0.045,-0.014,1.02
2026/05/14 10:29:52.514,0.049,-0.008,1.015
2026/05/14 10:29:52.534,0.039,0.03,0.991
2026/05/14 10:29:52.554,0.023,0.028,1.008
2026/05/14 10:29:52.574,0.025,0.024,1.003
2026/05/14 10:29:52.594,0.021,-0.009,1.013
2026/05/14 10:29:52.615,0.036,-0.014,1.017
2026/05/14 10:29:52.635,0.039,-0.019,1.022
2026/05/14 10:29:52.655,0.038,-0.01,1.006
2026/05/14 10:29:52.675,0.03,-0.004,1.016
2026/05/14 10:29:52.695,0.028,-0.016,1.005
2026/05/14 10:29:52.715,0.023,-0.026,1.011
2026/05/14 10:29:52.736,0.017,-0.026,1.008
2026/05/14 10:29:52.756,0.02,-0.022,1.014
2026/05/14 10:29:52.776,0.029,-0.008,1.015
2026/05/14 10:29:52.796,0.033,0.001,1.005
2026/05/14 10:29:52.816,0.038,0.008,1.013
2026/05/14 10:29:52.836,0.044,0.001,1.017
2026/05/14 10:29:52.857,0.044,-0.002,1.014
2026/05/14 10:29:52.877,0.037,-0.008,1.015
2026/05/14 10:29:52.897,0.031,0.003,1.012
2026/05/14 10:29:52.917,0.027,0.006,1.007
2026/05/14 10:29:52.937,0.026,0.004,1.011
2026/05/14 10:29:52.957,0.031,-0.005,1.016
2026/05/14 10:29:52.977,0.033,-0.013,1.014
2026/05/14 10:29:52.998,0.033,-0.021,1.014
2026/05/14 10:29:53.018,0.037,-0.02,1.024
2026/05/14 10:29:53.038,0.036,-0.021,1.014
2026/05/14 10:29:53.058,0.032,-0.011,1.018
2026/05/14 10:29:53.078,0.028,-0.007,1.011
2026/05/14 10:29:53.098,0.023,-0.01,1.013
2026/05/14 10:29:53.119,0.028,-0.008,1.019
2026/05/14 10:29:53.139,0.034,-0.005,1.011
2026/05/14 10:29:53.159,0.038,0.001,1.013
2026/05/14 10:29:53.179,0.04,0.004,1.012
2026/05/14 10:29:53.199,0.042,0.004,1.015
2026/05/14 10:29:53.219,0.037,-0.004,1.016
2026/05/14 10:29:53.240,0.035,-0.007,1.021
2026/05/14 10:29:53.260,0.03,-0.007,1.012
2026/05/14 10:29:53.280,0.025,-0.008,1.01
2026/05/14 10:29:53.300,0.022,-0.01,1.013
2026/05/14 10:29:53.320,0.027,-0.008,1.011
2026/05/14 10:29:53.340,0.034,-0.015,1.014
2026/05/14 10:29:53.360,0.031,-0.02,1.014
2026/05/14 10:29:53.381,0.034,-0.015,1.016
2026/05/14 10:29:53.401,0.034,-0.011,1.014
2026/05/14 10:29:53.421,0.031,-0.003,1.015
2026/05/14 10:29:53.441,0.035,-0.004,1.01
2026/05/14 10:29:53.461,0.03,-0.003,1.015
2026/05/14 10:29:53.481,0.032,-0.006,1.012
2026/05/14 10:29:53.502,0.034,-0.002,1.012
2026/05/14 10:29:53.522,0.036,0.001,1.016
2026/05/14 10:29:53.542,0.041,-0.001,1.018
2026/05/14 10:29:53.562,0.036,-0.002,1.01
2026/05/14 10:29:53.582,0.032,-0.003,1.013
2026/05/14 10:29:53.602,0.033,-0.006,1.011
2026/05/14 10:29:53.623,0.023,-0.015,1.01
2026/05/14 10:29:53.643,0.027,-0.014,1.014
2026/05/14 10:29:53.663,0.03,-0.011,1.014
2026/05/14 10:29:53.683,0.03,-0.011,1.017
2026/05/14 10:29:53.703,0.033,-0.013,1.019
2026/05/14 10:29:53.723,0.032,-0.008,1.01
2026/05/14 10:29:53.743,0.036,-0.009,1.011
2026/05/14 10:29:53.764,0.032,-0.003,1.013
2026/05/14 10:29:53.784,0.031,0.0,1.011
2026/05/14 10:29:53.804,0.031,-0.004,1.013
2026/05/14 10:29:53.824,0.03,0.005,1.007
2026/05/14 10:29:53.844,0.028,0.0,1.015
2026/05/14 10:29:53.864,0.034,-0.002,1.011
2026/05/14 10:29:53.885,0.034,-0.007,1.013
2026/05/14 10:29:53.905,0.031,-0.005,1.018
2026/05/14 10:29:53.925,0.034,-0.009,1.013
2026/05/14 10:29:53.945,0.033,-0.012,1.007
2026/05/14 10:29:53.965,0.031,-0.01,1.02
2026/05/14 10:29:53.985,0.03,-0.01,1.012
2026/05/14 10:29:54.006,0.03,-0.011,1.016
2026/05/14 10:29:54.026,0.026,-0.01,1.013
2026/05/14 10:29:54.046,0.028,-0.005,1.013
2026/05/14 10:29:54.066,0.038,-0.006,1.019
2026/05/14 10:29:54.086,0.037,-0.005,1.012
2026/05/14 10:29:54.106,0.034,-0.005,1.015
2026/05/14 10:29:54.126,0.034,-0.001,1.016
2026/05/14 10:29:54.147,0.032,-0.002,1.013
2026/05/14 10:29:54.167,0.032,-0.002,1.008
2026/05/14 10:29:54.187,0.029,-0.004,1.017
2026/05/14 10:29:54.207,0.028,-0.007,1.017
2026/05/14 10:29:54.227,0.028,-0.009,1.012
2026/05/14 10:29:54.247,0.032,-0.01,1.015
2026/05/14 10:29:54.268,0.031,-0.012,1.011
2026/05/14 10:29:54.288,0.034,-0.009,1.015
2026/05/14 10:29:54.308,0.029,-0.012,1.018
2026/05/14 10:29:54.328,0.031,-0.007,1.013
2026/05/14 10:29:54.348,0.03,-0.008,1.013
2026/05/14 10:29:54.368,0.03,-0.005,1.012
2026/05/14 10:29:54.389,0.031,-0.006,1.013
2026/05/14 10:29:54.409,0.033,-0.003,1.012
2026/05/14 10:29:54.429,0.033,-0.004,1.014
2026/05/14 10:29:54.449,0.033,-0.006,1.016
2026/05/14 10:29:54.469,0.034,-0.003,1.013
2026/05/14 10:29:54.489,0.033,-0.003,1.011
2026/05/14 10:29:54.509,0.032,-0.007,1.012
2026/05/14 10:29:54.530,0.034,-0.011,1.013
2026/05/14 10:29:54.550,0.029,-0.01,1.016
2026/05/14 10:29:54.570,0.032,-0.01,1.013
2026/05/14 10:29:54.590,0.032,-0.013,1.012
2026/05/14 10:29:54.610,0.033,-0.013,1.018
2026/05/14 10:29:54.630,0.033,-0.007,1.016
2026/05/14 10:29:54.651,0.032,-0.008,1.015
2026/05/14 10:29:54.671,0.024,-0.002,0.996
2026/05/14 10:29:54.691,0.039,-0.005,1.009
2026/05/14 10:29:54.711,0.026,-0.003,1.005
2026/05/14 10:29:54.731,0.021,0.018,0.927
2026/05/14 10:29:54.751,0.046,-0.003,1.016
2026/05/14 10:29:54.772,0.036,-0.012,1.06
2026/05/14 10:29:54.792,0.044,-0.012,1.021
2026/05/14 10:29:54.812,0.043,-0.013,1.013
2026/05/14 10:29:54.832,0.032,-0.016,1.022
2026/05/14 10:29:54.852,0.012,-0.006,0.989
2026/05/14 10:29:54.872,0.018,-0.006,1.015
2026/05/14 10:29:54.892,0.02,-0.003,1.013
2026/05/14 10:29:54.913,0.02,-0.006,1.009
2026/05/14 10:29:54.933,0.032,-0.011,1.018
2026/05/14 10:29:54.953,0.035,-0.014,1.011
2026/05/14 10:29:54.973,0.047,-0.01,1.029
2026/05/14 10:29:54.993,0.05,-0.008,1.005
2026/05/14 10:29:55.013,0.044,-0.004,1.02
2026/05/14 10:29:55.034,0.04,-0.003,1.009
2026/05/14 10:29:55.054,0.014,0.001,1.01
2026/05/14 10:29:55.074,0.012,-0.001,1.018
2026/05/14 10:29:55.094,0.017,0.0,0.993
2026/05/14 10:29:55.114,0.027,0.002,1.011
2026/05/14 10:29:55.134,0.029,-0.006,1.039
2026/05/14 10:29:55.155,0.049,-0.016,1.011
2026/05/14 10:29:55.175,0.044,-0.016,0.985
2026/05/14 10:29:55.195,0.033,-0.015,1.034
2026/05/14 10:29:55.215,0.025,-0.01,1.015
2026/05/14 10:29:55.235,0.018,-0.009,1.015
2026/05/14 10:29:55.255,0.017,-0.009,1.009
2026/05/14 10:29:55.275,0.061,-0.027,1.082
2026/05/14 10:29:55.296,0.026,-0.002,0.984
2026/05/14 10:29:55.316,0.017,0.009,0.913
2026/05/14 10:29:55.336,0.054,-0.017,1.073
2026/05/14 10:29:55.356,0.031,0.002,0.999
2026/05/14 10:29:55.376,0.04,0.001,1.01
2026/05/14 10:29:55.396,0.029,0.01,1.004
2026/05/14 10:29:55.417,0.03,-0.003,1.026
2026/05/14 10:29:55.437,0.028,-0.003,1.011
2026/05/14 10:29:55.457,0.032,-0.008,1.021
2026/05/14 10:29:55.477,0.033,-0.011,1.01
2026/05/14 10:29:55.497,0.03,-0.011,1.014
2026/05/14 10:29:55.517,0.038,-0.013,1.016
2026/05/14 10:29:55.538,0.039,-0.014,1.01
2026/05/14 10:29:55.558,0.029,-0.015,1.017
2026/05/14 10:29:55.578,0.023,-0.015,1.014
2026/05/14 10:29:55.598,0.023,-0.008,1.009
2026/05/14 10:29:55.618,0.025,-0.006,1.012
2026/05/14 10:29:55.638,0.027,-0.003,0.994
2026/05/14 10:29:55.658,0.04,-0.004,1.021
2026/05/14 10:29:55.679,0.048,-0.007,1.047
2026/05/14 10:29:55.699,0.037,-0.006,1.016
2026/05/14 10:29:55.719,0.06,-0.003,1.043
2026/05/14 10:29:55.739,0.05,-0.011,1.068
2026/05/14 10:29:55.759,0.028,-0.001,1.005
2026/05/14 10:29:55.779,0.034,-0.012,1.039
2026/05/14 10:29:55.800,0.018,0.006,1.0
2026/05/14 10:29:55.820,0.0,0.004,0.992
2026/05/14 10:29:55.840,0.025,0.003,0.985
2026/05/14 10:29:55.860,0.02,-0.014,0.984
2026/05/14 10:29:55.880,-0.018,0.013,0.854
2026/05/14 10:29:55.900,0.092,-0.05,1.204
2026/05/14 10:29:55.920,0.038,-0.01,1.042
2026/05/14 10:29:55.941,0.014,-0.005,0.993
2026/05/14 10:29:55.961,0.034,-0.004,1.039
2026/05/14 10:29:55.981,0.036,-0.003,1.018
2026/05/14 10:29:56.001,0.042,-0.001,1.029
2026/05/14 10:29:56.021,0.043,0.002,1.022
2026/05/14 10:29:56.041,0.042,-0.003,1.013
2026/05/14 10:29:56.062,0.038,-0.005,1.006
2026/05/14 10:29:56.082,0.032,-0.003,1.012
2026/05/14 10:29:56.102,0.029,-0.006,1.013
2026/05/14 10:29:56.122,0.032,-0.006,1.012
2026/05/14 10:29:56.142,0.027,-0.011,1.014
2026/05/14 10:29:56.162,0.03,-0.01,1.014
2026/05/14 10:29:56.183,0.028,-0.014,1.014
2026/05/14 10:29:56.203,0.034,-0.017,1.017
2026/05/14 10:29:56.223,0.037,-0.008,1.016
2026/05/14 10:29:56.243,0.032,-0.009,1.015
2026/05/14 10:29:56.263,0.033,-0.007,1.015
2026/05/14 10:29:56.283,0.036,-0.002,1.015
2026/05/14 10:29:56.303,0.03,-0.002,1.014
2026/05/14 10:29:56.324,0.032,0.001,1.012
2026/05/14 10:29:56.344,0.032,0.0,1.011
2026/05/14 10:29:56.364,0.035,-0.002,1.011
2026/05/14 10:29:56.384,0.037,-0.004,1.019
2026/05/14 10:29:56.404,0.033,-0.007,1.012
2026/05/14 10:29:56.424,0.035,-0.008,1.016
2026/05/14 10:29:56.445,0.031,-0.013,1.015
2026/05/14 10:29:56.465,0.032,-0.012,1.017
2026/05/14 10:29:56.485,0.028,-0.009,1.016
2026/05/14 10:29:56.505,0.028,-0.014,1.012
2026/05/14 10:29:56.525,0.03,-0.008,1.014
2026/05/14 10:29:56.545,0.032,-0.01,1.013
2026/05/14 10:29:56.566,0.031,-0.01,1.014
2026/05/14 10:29:56.586,0.034,-0.005,1.012
2026/05/14 10:29:56.606,0.036,-0.003,1.014
2026/05/14 10:29:56.626,0.034,-0.001,1.014
2026/05/14 10:29:56.646,0.031,-0.005,1.009
2026/05/14 10:29:56.666,0.031,0.001,1.011
2026/05/14 10:29:56.686,0.031,-0.005,1.01
2026/05/14 10:29:56.707,0.034,-0.007,1.016
2026/05/14 10:29:56.727,0.035,-0.005,1.013
2026/05/14 10:29:56.747,0.034,-0.006,1.009
2026/05/14 10:29:56.767,0.035,-0.012,1.013
2026/05/14 10:29:56.787,0.032,-0.008,1.014
2026/05/14 10:29:56.807,0.034,-0.013,1.015
2026/05/14 10:29:56.828,0.029,-0.01,1.016
2026/05/14 10:29:56.848,0.028,-0.01,1.017
2026/05/14 10:29:56.868,0.032,-0.008,1.016
2026/05/14 10:29:56.888,0.03,-0.005,1.011
2026/05/14 10:29:56.908,0.034,-0.007,1.015
2026/05/14 10:29:56.928,0.036,-0.004,1.015
2026/05/14 10:29:56.948,0.035,-0.002,1.014
2026/05/14 10:29:56.969,0.033,-0.003,1.008
2026/05/14 10:29:56.989,0.035,-0.005,1.014
2026/05/14 10:29:57.009,0.032,-0.005,1.014
2026/05/14 10:29:57.029,0.029,-0.007,1.013
2026/05/14 10:29:57.049,0.027,-0.006,1.013
2026/05/14 10:29:57.069,0.028,-0.01,1.013
2026/05/14 10:29:57.090,0.034,-0.009,1.018
2026/05/14 10:29:57.110,0.031,-0.01,1.012
2026/05/14 10:29:57.130,0.032,-0.006,1.013
2026/05/14 10:29:57.150,0.029,-0.01,1.017
2026/05/14 10:29:57.170,0.028,-0.01,1.011
2026/05/14 10:29:57.190,0.03,-0.009,1.015
2026/05/14 10:29:57.211,0.028,-0.004,1.014
2026/05/14 10:29:57.231,0.032,-0.003,1.011
2026/05/14 10:29:57.251,0.036,-0.009,1.011
2026/05/14 10:29:57.271,0.035,-0.004,1.013
2026/05/14 10:29:57.291,0.037,-0.005,1.013
2026/05/14 10:29:57.311,0.037,-0.008,1.015
2026/05/14 10:29:57.331,0.031,-0.007,1.015
2026/05/14 10:29:57.352,0.031,-0.006,1.015
2026/05/14 10:29:57.372,0.031,-0.009,1.017
2026/05/14 10:29:57.392,0.026,-0.009,1.015
2026/05/14 10:29:57.412,0.029,-0.008,1.011
2026/05/14 10:29:57.432,0.029,-0.012,1.013
2026/05/14 10:29:57.452,0.033,-0.007,1.014
2026/05/14 10:29:57.473,0.03,-0.009,1.015
2026/05/14 10:29:57.493,0.034,-0.007,1.015
2026/05/14 10:29:57.513,0.037,-0.006,1.015
2026/05/14 10:29:57.533,0.035,-0.005,1.016
2026/05/14 10:29:57.553,0.034,-0.005,1.011
2026/05/14 10:29:57.573,0.033,-0.007,1.013
2026/05/14 10:29:57.593,0.034,-0.005,1.011
2026/05/14 10:29:57.614,0.034,-0.004,1.011
2026/05/14 10:29:57.634,0.033,-0.005,1.015
2026/05/14 10:29:57.654,0.032,-0.006,1.016
2026/05/14 10:29:57.674,0.031,-0.012,1.016
2026/05/14 10:29:57.694,0.033,-0.009,1.013
2026/05/14 10:29:57.714,0.03,-0.009,1.013
2026/05/14 10:29:57.735,0.032,-0.01,1.015
2026/05/14 10:29:57.755,0.028,-0.005,1.014
2026/05/14 10:29:57.775,0.033,-0.01,1.01
2026/05/14 10:29:57.795,0.032,-0.008,1.013
2026/05/14 10:29:57.815,0.034,-0.006,1.013
2026/05/14 10:29:57.835,0.033,-0.006,1.014
2026/05/14 10:29:57.856,0.033,-0.005,1.011
2026/05/14 10:29:57.876,0.031,-0.005,1.013
2026/05/14 10:29:57.896,0.121,-0.041,1.213
2026/05/14 10:29:57.916,0.066,-0.021,1.218
2026/05/14 10:29:57.936,0.053,-0.012,1.005
2026/05/14 10:29:57.956,0.111,-0.045,1.263
2026/05/14 10:29:57.976,0.058,-0.046,1.189
2026/05/14 10:29:57.997,0.022,-0.006,1.014
2026/05/14 10:29:58.017,0.049,-0.021,1.066
2026/05/14 10:29:58.037,0.065,-0.033,1.099
2026/05/14 10:29:58.057,0.033,-0.002,1.065
2026/05/14 10:29:58.077,0.029,-0.005,1.043
2026/05/14 10:29:58.097,0.041,-0.025,1.009
2026/05/14 10:29:58.118,0.043,-0.022,1.041
2026/05/14 10:29:58.138,0.048,-0.004,0.996
2026/05/14 10:29:58.158,0.041,0.018,0.988
2026/05/14 10:29:58.178,0.034,0.007,1.03
2026/05/14 10:29:58.198,0.03,-0.001,0.997
2026/05/14 10:29:58.218,0.028,-0.012,1.005
2026/05/14 10:29:58.238,0.024,-0.018,1.02
2026/05/14 10:29:58.259,0.027,-0.021,1.021
2026/05/14 10:29:58.279,0.034,-0.008,1.009
2026/05/14 10:29:58.299,0.037,-0.005,1.005
2026/05/14 10:29:58.319,0.033,-0.005,1.024
2026/05/14 10:29:58.339,0.028,-0.017,1.011
2026/05/14 10:29:58.359,0.036,-0.016,1.01
2026/05/14 10:29:58.380,0.036,-0.005,1.019
2026/05/14 10:29:58.400,0.026,0.001,1.015
2026/05/14 10:29:58.420,0.032,0.007,1.008
2026/05/14 10:29:58.440,0.037,0.003,1.01
2026/05/14 10:29:58.460,0.033,-0.003,1.017
2026/05/14 10:29:58.480,0.037,-0.014,1.021
2026/05/14 10:29:58.501,0.037,-0.014,1.009
2026/05/14 10:29:58.521,0.032,-0.009,1.007
2026/05/14 10:29:58.541,0.025,-0.009,1.014
2026/05/14 10:29:58.561,0.03,-0.005,1.011
2026/05/14 10:29:58.581,0.026,-0.013,1.015
2026/05/14 10:29:58.601,0.028,-0.013,1.011
2026/05/14 10:29:58.621,0.028,-0.009,1.015
2026/05/14 10:29:58.642,0.033,-0.005,1.014
2026/05/14 10:29:58.662,0.038,0.0,1.009
2026/05/14 10:29:58.682,0.038,-0.005,1.015
2026/05/14 10:29:58.702,0.032,-0.008,1.018
2026/05/14 10:29:58.722,0.031,-0.011,1.018
2026/05/14 10:29:58.742,0.03,-0.01,1.011
2026/05/14 10:29:58.763,0.028,-0.008,1.009
2026/05/14 10:29:58.783,0.028,-0.006,1.016
2026/05/14 10:29:58.803,0.03,-0.007,1.013
2026/05/14 10:29:58.823,0.029,-0.013,1.014
2026/05/14 10:29:58.843,0.031,-0.01,1.013
2026/05/14 10:29:58.863,0.031,-0.007,1.012
2026/05/14 10:29:58.884,0.031,0.0,1.015
2026/05/14 10:29:58.904,0.032,-0.004,1.012
2026/05/14 10:29:58.924,0.03,-0.004,1.011
2026/05/14 10:29:58.944,0.035,-0.007,1.013
2026/05/14 10:29:58.964,0.034,-0.007,1.013
2026/05/14 10:29:58.984,0.034,-0.007,1.013
2026/05/14 10:29:59.004,0.033,-0.007,1.009
2026/05/14 10:29:59.025,0.031,-0.006,1.013
2026/05/14 10:29:59.045,0.029,-0.009,1.015
2026/05/14 10:29:59.065,0.028,-0.013,1.013
2026/05/14 10:29:59.085,0.028,-0.01,1.014
2026/05/14 10:29:59.105,0.029,-0.008,1.014
2026/05/14 10:29:59.125,0.032,-0.007,1.017
2026/05/14 10:29:59.146,0.035,-0.006,1.013
2026/05/14 10:29:59.166,0.032,-0.004,1.011
2026/05/14 10:29:59.186,0.035,-0.007,1.015
2026/05/14 10:29:59.206,0.035,-0.01,1.011
2026/05/14 10:29:59.226,0.035,-0.005,1.012
2026/05/14 10:29:59.246,0.034,-0.004,1.014
2026/05/14 10:29:59.266,0.031,-0.004,1.015
2026/05/14 10:29:59.287,0.029,-0.005,1.014
2026/05/14 10:29:59.307,0.029,-0.006,1.013
2026/05/14 10:29:59.327,0.028,-0.01,1.013
2026/05/14 10:29:59.347,0.034,-0.005,1.013
2026/05/14 10:29:59.367,0.032,-0.008,1.011
2026/05/14 10:29:59.387,0.031,-0.006,1.015
2026/05/14 10:29:59.408,0.033,-0.006,1.015
2026/05/14 10:29:59.428,0.034,-0.004,1.012
2026/05/14 10:29:59.448,0.034,-0.005,1.014
2026/05/14 10:29:59.468,0.033,-0.005,1.015
2026/05/14 10:29:59.488,0.034,-0.006,1.016
2026/05/14 10:29:59.508,0.032,-0.007,1.016
2026/05/14 10:29:59.529,0.029,-0.005,1.017
2026/05/14 10:29:59.549,0.029,-0.008,1.015
2026/05/14 10:29:59.569,0.031,-0.009,1.013
2026/05/14 10:29:59.589,0.033,-0.007,1.014
2026/05/14 10:29:59.609,0.032,-0.005,1.013
2026/05/14 10:29:59.629,0.034,-0.012,1.016
2026/05/14 10:29:59.649,0.033,-0.002,1.014
2026/05/14 10:29:59.670,0.033,-0.008,1.013
2026/05/14 10:29:59.690,0.035,-0.007,1.011
2026/05/14 10:29:59.710,0.032,-0.007,1.017
2026/05/14 10:29:59.730,0.034,-0.007,1.011
2026/05/14 10:29:59.750,0.029,-0.009,1.016
2026/05/14 10:29:59.770,0.03,-0.008,1.014
2026/05/14 10:29:59.791,0.029,-0.009,1.015
2026/05/14 10:29:59.811,0.031,-0.006,1.015
2026/05/14 10:29:59.831,0.027,-0.007,1.016
2026/05/14 10:29:59.851,0.03,-0.007,1.015
2026/05/14 10:29:59.871,0.032,-0.011,1.011
2026/05/14 10:29:59.891,0.034,-0.007,1.015
2026/05/14 10:29:59.911,0.036,-0.005,1.015
2026/05/14 10:29:59.932,0.034,-0.005,1.011
2026/05/14 10:29:59.952,0.033,-0.006,1.011
2026/05/14 10:29:59.972,0.032,-0.006,1.013
2026/05/14 10:29:59.992,0.032,-0.005,1.015
2026/05/14 10:30:00.012,0.028,-0.006,1.014
2026/05/14 10:30:00.032,0.028,-0.007,1.015
2026/05/14 10:30:00.053,0.031,-0.009,1.015
2026/05/14 10:30:00.073,0.027,-0.011,1.011
2026/05/14 10:30:00.093,0.031,-0.006,1.012
2026/05/14 10:30:00.113,0.032,-0.008,1.016
2026/05/14 10:30:00.133,0.034,-0.008,1.015
2026/05/14 10:30:00.153,0.031,-0.006,1.013
2026/05/14 10:30:00.174,0.032,-0.007,1.011
2026/05/14 10:30:00.194,0.034,-0.007,1.014
2026/05/14 10:30:00.214,0.031,-0.003,1.014
2026/05/14 10:30:00.234,0.032,-0.008,1.02
2026/05/14 10:30:00.254,0.029,-0.006,1.014
2026/05/14 10:30:00.274,0.028,-0.01,1.016
2026/05/14 10:30:00.294,0.031,-0.009,1.013
2026/05/14 10:30:00.315,0.028,-0.009,1.015
2026/05/14 10:30:00.335,0.031,-0.01,1.013
2026/05/14 10:30:00.355,0.032,-0.008,1.012
2026/05/14 10:30:00.375,0.035,-0.009,1.014
2026/05/14 10:30:00.395,0.032,-0.006,1.014
2026/05/14 10:30:00.415,0.03,-0.003,1.012
2026/05/14 10:30:00.436,0.033,-0.01,1.008
2026/05/14 10:30:00.456,0.032,-0.005,1.014
2026/05/14 10:30:00.476,0.035,-0.006,1.014
2026/05/14 10:30:00.496,0.03,-0.007,1.008
2026/05/14 10:30:00.516,-0.085,0.013,0.558
2026/05/14 10:30:00.536,-0.045,0.046,0.879
2026/05/14 10:30:00.556,0.094,-0.054,1.301
2026/05/14 10:30:00.577,-0.005,0.018,0.835
2026/05/14 10:30:00.597,0.047,-0.014,1.075
2026/05/14 10:30:00.617,0.03,-0.004,0.988
2026/05/14 10:30:00.637,0.029,-0.002,0.995
2026/05/14 10:30:00.657,0.042,-0.013,1.041
2026/05/14 10:30:00.677,0.033,-0.006,1.001
2026/05/14 10:30:00.698,0.031,-0.009,1.012
2026/05/14 10:30:00.718,0.034,-0.01,1.008
2026/05/14 10:30:00.738,0.031,-0.004,1.016
2026/05/14 10:30:00.758,0.028,-0.007,1.046
2026/05/14 10:30:00.778,0.052,-0.021,1.12
2026/05/14 10:30:00.798,0.015,-0.002,0.97
2026/05/14 10:30:00.819,0.019,-0.003,0.955
2026/05/14 10:30:00.839,0.037,-0.002,1.024
2026/05/14 10:30:00.859,0.084,-0.039,1.081
2026/05/14 10:30:00.879,0.01,0.008,0.976
2026/05/14 10:30:00.899,-0.054,0.035,0.725
2026/05/14 10:30:00.919,0.041,-0.007,0.993
2026/05/14 10:30:00.939,0.053,-0.027,1.088
2026/05/14 10:30:00.960,0.03,0.002,0.988
2026/05/14 10:30:00.980,0.021,0.0,0.968
2026/05/14 10:30:01.000,0.041,-0.01,1.032
2026/05/14 10:30:01.020,0.033,-0.007,1.022
2026/05/14 10:30:01.040,0.029,-0.01,0.99
2026/05/14 10:30:01.060,0.031,0.001,0.999
2026/05/14 10:30:01.081,0.038,-0.025,1.038
2026/05/14 10:30:01.101,0.04,-0.007,1.02
2026/05/14 10:30:01.121,0.023,0.014,0.948
2026/05/14 10:30:01.141,0.019,0.011,0.973
2026/05/14 10:30:01.161,-0.008,0.015,0.963
2026/05/14 10:30:01.181,0.009,0.026,0.133
2026/05/14 10:30:01.201,-0.049,-0.019,0.504
2026/05/14 10:30:01.222,0.007,0.009,0.76
2026/05/14 10:30:01.242,0.063,-0.026,1.104
2026/05/14 10:30:01.262,0.032,-0.008,1.017
2026/05/14 10:30:01.282,0.022,0.007,1.124
2026/05/14 10:30:01.302,0.013,-0.013,1.032
2026/05/14 10:30:01.322,-0.012,-0.005,0.941
2026/05/14 10:30:01.343,0.024,-0.001,0.975
2026/05/14 10:30:01.363,0.024,0.002,1.025
2026/05/14 10:30:01.383,0.031,-0.003,0.994
2026/05/14 10:30:01.403,0.045,-0.006,1.007
2026/05/14 10:30:01.423,0.041,-0.008,1.009
2026/05/14 10:30:01.443,0.029,-0.01,1.016
2026/05/14 10:30:01.464,0.04,-0.013,1.055
2026/05/14 10:30:01.484,0.037,-0.015,1.024
2026/05/14 10:30:01.504,0.028,-0.003,1.039
2026/05/14 10:30:01.524,0.03,-0.009,1.028
2026/05/14 10:30:01.544,0.028,-0.011,1.013
2026/05/14 10:30:01.564,0.033,-0.012,1.004
2026/05/14 10:30:01.584,0.04,-0.012,1.001
2026/05/14 10:30:01.605,0.038,-0.006,1.007
2026/05/14 10:30:01.625,0.038,-0.004,1.016
2026/05/14 10:30:01.645,0.033,0.001,1.012
2026/05/14 10:30:01.665,0.033,-0.004,1.021
2026/05/14 10:30:01.685,0.029,-0.007,1.013
2026/05/14 10:30:01.705,0.03,-0.008,1.019
2026/05/14 10:30:01.726,0.031,-0.014,1.011
2026/05/14 10:30:01.746,0.027,-0.007,1.005
2026/05/14 10:30:01.766,0.034,-0.006,1.016
2026/05/14 10:30:01.786,0.031,-0.009,1.013
2026/05/14 10:30:01.806,0.033,-0.009,1.008
2026/05/14 10:30:01.826,0.031,-0.01,1.011
2026/05/14 10:30:01.846,0.026,-0.005,1.014
2026/05/14 10:30:01.867,0.032,-0.004,1.016
2026/05/14 10:30:01.887,0.029,-0.002,1.01
2026/05/14 10:30:01.907,0.033,-0.006,1.011
2026/05/14 10:30:01.927,0.033,-0.013,1.012
2026/05/14 10:30:01.947,0.032,-0.009,1.015
2026/05/14 10:30:01.967,0.037,-0.008,1.009
2026/05/14 10:30:01.988,0.037,-0.004,1.013
2026/05/14 10:30:02.008,0.034,-0.008,1.011
2026/05/14 10:30:02.028,0.031,-0.009,1.02
2026/05/14 10:30:02.048,0.03,-0.008,1.012
2026/05/14 10:30:02.068,0.028,-0.008,1.01
2026/05/14 10:30:02.088,0.029,-0.009,1.016
2026/05/14 10:30:02.109,0.032,-0.005,1.015
2026/05/14 10:30:02.129,0.035,-0.008,1.015
2026/05/14 10:30:02.149,0.033,-0.006,1.018
2026/05/14 10:30:02.169,0.034,-0.006,1.019
2026/05/14 10:30:02.189,0.034,-0.007,1.011
2026/05/14 10:30:02.209,0.028,-0.006,1.011
2026/05/14 10:30:02.229,0.03,-0.005,1.013
2026/05/14 10:30:02.250,0.029,-0.006,1.017
2026/05/14 10:30:02.270,0.032,-0.007,1.014
2026/05/14 10:30:02.290,0.034,-0.006,1.013
2026/05/14 10:30:02.310,0.034,-0.007,1.014
2026/05/14 10:30:02.330,0.033,-0.005,1.011
2026/05/14 10:30:02.350,0.034,-0.006,1.013
2026/05/14 10:30:02.371,0.034,-0.008,1.013
2026/05/14 10:30:02.391,0.032,-0.008,1.013
2026/05/14 10:30:02.411,0.027,-0.004,1.017
2026/05/14 10:30:02.431,0.036,-0.004,1.017
2026/05/14 10:30:02.451,0.036,-0.005,1.009
2026/05/14 10:30:02.471,0.032,-0.006,1.014
2026/05/14 10:30:02.492,0.031,-0.006,1.015
2026/05/14 10:30:02.512,0.033,-0.009,1.013
2026/05/14 10:30:02.532,0.032,-0.006,1.014
2026/05/14 10:30:02.552,0.035,-0.006,1.011
2026/05/14 10:30:02.572,0.031,-0.007,1.011
2026/05/14 10:30:02.592,0.028,-0.005,1.016
2026/05/14 10:30:02.612,0.031,-0.008,1.013
2026/05/14 10:30:02.633,0.031,-0.005,1.012
2026/05/14 10:30:02.653,0.035,-0.007,1.019
2026/05/14 10:30:02.673,0.035,-0.01,1.016
2026/05/14 10:30:02.693,0.034,-0.005,1.012
2026/05/14 10:30:02.713,0.028,-0.005,1.017
2026/05/14 10:30:02.733,0.03,-0.003,1.012
2026/05/14 10:30:02.754,0.033,-0.007,1.016
2026/05/14 10:30:02.774,0.029,-0.005,1.013
2026/05/14 10:30:02.794,0.03,-0.006,1.01
2026/05/14 10:30:02.814,0.031,-0.006,1.018
2026/05/14 10:30:02.834,0.032,-0.003,1.001
2026/05/14 10:30:02.854,0.032,-0.007,1.015
2026/05/14 10:30:02.875,0.032,-0.005,1.014
2026/05/14 10:30:02.895,0.035,-0.006,1.01
2026/05/14 10:30:02.915,0.033,-0.011,1.014
2026/05/14 10:30:02.935,0.032,-0.003,1.014
2026/05/14 10:30:02.955,0.029,-0.006,1.013
2026/05/14 10:30:02.975,0.033,-0.006,1.017
2026/05/14 10:30:02.995,0.033,-0.007,1.013
2026/05/14 10:30:03.016,0.036,-0.008,1.009
2026/05/14 10:30:03.036,0.031,-0.009,1.016
2026/05/14 10:30:03.056,0.03,-0.008,1.014
2026/05/14 10:30:03.076,0.03,-0.005,1.012
2026/05/14 10:30:03.096,0.033,-0.004,1.016
2026/05/14 10:30:03.116,0.031,-0.007,1.014
2026/05/14 10:30:03.137,0.032,-0.004,1.014
2026/05/14 10:30:03.157,0.032,-0.006,1.014
2026/05/14 10:30:03.177,0.034,-0.007,1.018
2026/05/14 10:30:03.197,0.035,-0.006,1.011
2026/05/14 10:30:03.217,0.035,-0.007,1.014
2026/05/14 10:30:03.237,0.033,-0.002,1.014
2026/05/14 10:30:03.258,0.029,-0.007,1.014
2026/05/14 10:30:03.278,0.031,-0.007,1.01
2026/05/14 10:30:03.298,0.033,-0.007,1.014
2026/05/14 10:30:03.318,0.032,-0.003,1.014
2026/05/14 10:30:03.338,0.031,-0.003,1.013
2026/05/14 10:30:03.358,0.031,-0.002,1.016
2026/05/14 10:30:03.378,0.032,-0.007,1.015
2026/05/14 10:30:03.399,0.03,-0.005,1.011
2026/05/14 10:30:03.419,0.024,-0.008,1.01
2026/05/14 10:30:03.439,0.023,-0.007,1.003
2026/05/14 10:30:03.459,0.025,-0.006,1.011
2026/05/14 10:30:03.479,0.032,-0.015,1.021
2026/05/14 10:30:03.499,0.031,-0.006,1.024
2026/05/14 10:30:03.520,0.034,-0.012,1.02
2026/05/14 10:30:03.540,0.034,-0.013,1.018
2026/05/14 10:30:03.560,0.048,-0.018,1.026
2026/05/14 10:30:03.580,0.049,-0.016,1.005
2026/05/14 10:30:03.600,0.044,-0.012,1.014
2026/05/14 10:30:03.620,0.036,0.0,1.017
2026/05/14 10:30:03.640,0.029,0.005,1.023
2026/05/14 10:30:03.661,0.022,0.002,1.021
2026/05/14 10:30:03.681,0.024,-0.008,1.019
2026/05/14 10:30:03.701,0.026,-0.014,1.011
2026/05/14 10:30:03.721,0.029,-0.011,1.013
2026/05/14 10:30:03.741,0.037,-0.01,1.016
2026/05/14 10:30:03.761,0.034,-0.002,1.019
2026/05/14 10:30:03.782,0.033,-0.001,1.009
2026/05/14 10:30:03.802,0.031,-0.008,1.012
2026/05/14 10:30:03.822,0.03,-0.005,1.013
2026/05/14 10:30:03.842,0.027,-0.006,1.015
2026/05/14 10:30:03.862,0.026,0.001,1.015
2026/05/14 10:30:03.882,0.031,0.0,1.013
2026/05/14 10:30:03.903,0.037,-0.002,1.01
2026/05/14 10:30:03.923,0.04,-0.011,1.018
2026/05/14 10:30:03.943,0.036,-0.013,1.012
2026/05/14 10:30:03.963,0.028,-0.008,1.01
2026/05/14 10:30:03.983,0.037,-0.009,1.024
2026/05/14 10:30:04.003,0.029,-0.008,1.011
2026/05/14 10:30:04.023,0.027,0.0,1.015
2026/05/14 10:30:04.044,0.029,-0.004,1.011
2026/05/14 10:30:04.064,0.028,-0.006,1.006
2026/05/14 10:30:04.084,0.033,-0.007,1.017
2026/05/14 10:30:04.104,0.031,-0.003,1.015
2026/05/14 10:30:04.124,0.038,-0.007,1.019
2026/05/14 10:30:04.144,0.034,0.0,1.016
2026/05/14 10:30:04.165,0.033,-0.004,1.021
2026/05/14 10:30:04.185,0.029,-0.008,1.013
2026/05/14 10:30:04.205,0.031,-0.013,1.016
2026/05/14 10:30:04.225,0.029,-0.012,1.016
2026/05/14 10:30:04.245,0.033,-0.006,1.015
2026/05/14 10:30:04.265,0.028,-0.008,1.011
2026/05/14 10:30:04.286,0.037,-0.005,1.017
2026/05/14 10:30:04.306,0.03,-0.007,1.011
2026/05/14 10:30:04.326,0.035,-0.006,1.013
2026/05/14 10:30:04.346,0.038,-0.008,1.012
2026/05/14 10:30:04.366,0.032,-0.006,1.013
2026/05/14 10:30:04.386,0.032,-0.005,1.01
2026/05/14 10:30:04.406,0.031,-0.004,1.01
2026/05/14 10:30:04.427,0.029,-0.01,1.011
2026/05/14 10:30:04.447,0.031,-0.008,1.013
2026/05/14 10:30:04.467,0.034,-0.012,1.013
2026/05/14 10:30:04.487,0.036,-0.01,1.018
2026/05/14 10:30:04.507,0.033,-0.008,1.012
2026/05/14 10:30:04.527,0.031,-0.005,1.015
2026/05/14 10:30:04.548,0.029,-0.008,1.012
2026/05/14 10:30:04.568,0.031,-0.008,1.013
2026/05/14 10:30:04.588,0.032,-0.005,1.013
2026/05/14 10:30:04.608,0.033,-0.007,1.015
2026/05/14 10:30:04.628,0.034,-0.001,1.015
2026/05/14 10:30:04.648,0.031,-0.007,1.016
2026/05/14 10:30:04.668,0.032,-0.009,1.016
2026/05/14 10:30:04.689,0.032,-0.008,1.015
2026/05/14 10:30:04.709,0.032,-0.005,1.014
2026/05/14 10:30:04.729,0.032,-0.008,1.009
2026/05/14 10:30:04.749,0.028,-0.007,1.011
2026/05/14 10:30:04.769,0.032,-0.008,1.017
2026/05/14 10:30:04.789,0.029,-0.005,1.012
2026/05/14 10:30:04.810,0.033,-0.006,1.015
2026/05/14 10:30:04.830,0.032,-0.005,1.011
2026/05/14 10:30:04.850,0.035,-0.008,1.015
2026/05/14 10:30:04.870,0.032,0.002,1.014
2026/05/14 10:30:04.890,0.032,-0.006,1.013
2026/05/14 10:30:04.910,0.032,-0.005,1.015
2026/05/14 10:30:04.930,0.032,-0.005,1.011
2026/05/14 10:30:04.951,0.031,-0.01,1.014
2026/05/14 10:30:04.971,0.028,-0.008,1.012
2026/05/14 10:30:04.991,0.029,-0.005,1.014
2026/05/14 10:30:05.011,0.029,-0.008,1.015
2026/05/14 10:30:05.031,0.03,-0.005,1.016
2026/05/14 10:30:05.051,0.031,-0.005,1.013
2026/05/14 10:30:05.072,0.035,-0.006,1.012
2026/05/14 10:30:05.092,0.037,-0.009,1.012
2026/05/14 10:30:05.112,0.032,-0.002,1.021
2026/05/14 10:30:05.132,0.033,-0.006,1.009
2026/05/14 10:30:05.152,0.031,-0.008,1.019
2026/05/14 10:30:05.172,0.033,-0.005,1.017
2026/05/14 10:30:05.193,0.029,-0.005,1.016
2026/05/14 10:30:05.213,0.032,-0.01,1.01
2026/05/14 10:30:05.233,0.031,-0.01,1.012
2026/05/14 10:30:05.253,0.029,-0.01,1.014
2026/05/14 10:30:05.273,0.035,-0.008,1.015
2026/05/14 10:30:05.293,0.036,-0.009,1.009
2026/05/14 10:30:05.313,0.033,-0.006,1.01
2026/05/14 10:30:05.334,0.032,-0.005,1.014
2026/05/14 10:30:05.354,0.029,-0.006,1.017
2026/05/14 10:30:05.374,0.033,-0.006,1.017
2026/05/14 10:30:05.394,0.033,-0.008,1.02
2026/05/14 10:30:05.414,0.035,-0.007,1.016
2026/05/14 10:30:05.434,0.031,-0.007,1.01
2026/05/14 10:30:05.455,0.032,-0.008,1.016
2026/05/14 10:30:05.475,0.035,-0.008,1.015
2026/05/14 10:30:05.495,0.032,-0.009,1.015
2026/05/14 10:30:05.515,0.034,-0.007,1.017
2026/05/14 10:30:05.535,0.032,-0.009,1.014
2026/05/14 10:30:05.555,0.034,-0.011,1.013
2026/05/14 10:30:05.575,0.033,-0.006,1.019
2026/05/14 10:30:05.596,0.032,-0.008,1.016
2026/05/14 10:30:05.616,0.029,-0.005,1.011
2026/05/14 10:30:05.636,0.033,-0.006,1.016
2026/05/14 10:30:05.656,0.028,-0.006,1.013
2026/05/14 10:30:05.676,0.031,-0.005,1.012
2026/05/14 10:30:05.696,0.032,-0.005,1.012
2026/05/14 10:30:05.717,0.034,-0.009,1.016
2026/05/14 10:30:05.737,0.034,-0.005,1.012
2026/05/14 10:30:05.757,0.031,-0.007,1.014
2026/05/14 10:30:05.777,0.03,-0.005,1.021
2026/05/14 10:30:05.797,0.031,-0.004,1.016
2026/05/14 10:30:05.817,0.032,-0.004,1.017
2026/05/14 10:30:05.837,0.031,-0.002,1.014
2026/05/14 10:30:05.858,0.033,-0.005,1.009
2026/05/14 10:30:05.878,0.032,-0.005,1.015
2026/05/14 10:30:05.898,0.031,-0.007,1.016
2026/05/14 10:30:05.918,0.032,-0.009,1.013
2026/05/14 10:30:05.938,0.032,-0.008,1.012
2026/05/14 10:30:05.958,0.032,-0.009,1.014
2026/05/14 10:30:05.979,0.03,-0.004,1.016
2026/05/14 10:30:05.999,0.034,-0.007,1.013
2026/05/14 10:30:06.019,0.032,-0.006,1.016
2026/05/14 10:30:06.039,0.032,-0.006,1.013
2026/05/14 10:30:06.059,0.034,-0.007,1.015
2026/05/14 10:30:06.079,0.035,-0.008,1.013
2026/05/14 10:30:06.100,0.033,-0.005,1.015
2026/05/14 10:30:06.120,0.032,-0.008,1.01
2026/05/14 10:30:06.140,0.031,-0.005,1.013
2026/05/14 10:30:06.160,0.03,-0.008,1.014
2026/05/14 10:30:06.180,0.03,-0.008,1.013
2026/05/14 10:30:06.200,0.031,-0.009,1.021
2026/05/14 10:30:06.220,0.033,-0.006,1.012
2026/05/14 10:30:06.241,0.032,-0.004,1.016
2026/05/14 10:30:06.261,0.035,-0.008,1.016
2026/05/14 10:30:06.281,0.032,-0.006,1.001
2026/05/14 10:30:06.301,0.029,-0.006,1.017
2026/05/14 10:30:06.321,0.035,-0.011,1.011
2026/05/14 10:30:06.341,0.033,-0.006,1.015
2026/05/14 10:30:06.362,0.031,-0.006,1.014
2026/05/14 10:30:06.382,0.038,-0.011,1.013
2026/05/14 10:30:06.402,0.034,-0.005,1.018
2026/05/14 10:30:06.422,0.041,-0.009,1.039
2026/05/14 10:30:06.442,0.033,-0.014,1.015
2026/05/14 10:30:06.462,0.032,-0.009,1.014
2026/05/14 10:30:06.482,0.03,-0.004,1.009
2026/05/14 10:30:06.503,0.036,-0.008,1.021
2026/05/14 10:30:06.523,0.033,-0.005,1.014
2026/05/14 10:30:06.543,0.032,-0.007,1.012
2026/05/14 10:30:06.563,0.027,-0.003,1.001
2026/05/14 10:30:06.583,0.04,-0.012,1.031
2026/05/14 10:30:06.603,0.036,-0.005,1.006
2026/05/14 10:30:06.624,0.037,-0.011,1.022
2026/05/14 10:30:06.644,0.02,0.001,0.99
2026/05/14 10:30:06.664,0.033,-0.009,1.016
2026/05/14 10:30:06.684,0.031,-0.009,1.011
2026/05/14 10:30:06.704,0.027,-0.005,1.019
2026/05/14 10:30:06.724,0.032,-0.008,1.015
2026/05/14 10:30:06.744,0.035,-0.008,1.014
2026/05/14 10:30:06.765,0.027,-0.003,1.0
2026/05/14 10:30:06.785,0.036,-0.006,1.024
2026/05/14 10:30:06.805,0.028,-0.008,1.012
2026/05/14 10:30:06.825,0.034,-0.011,1.015
2026/05/14 10:30:06.845,0.029,-0.008,1.007
2026/05/14 10:30:06.865,0.031,-0.01,1.006
2026/05/14 10:30:06.886,0.029,-0.003,1.013
2026/05/14 10:30:06.906,0.032,-0.006,1.01
2026/05/14 10:30:06.926,0.035,-0.005,1.015
2026/05/14 10:30:06.946,0.031,-0.007,1.012
2026/05/14 10:30:06.966,0.032,-0.006,1.013
2026/05/14 10:30:06.986,0.03,-0.007,1.002
2026/05/14 10:30:07.007,0.035,-0.006,1.015
2026/05/14 10:30:07.027,0.031,-0.005,1.019
2026/05/14 10:30:07.047,0.031,-0.004,1.014
2026/05/14 10:30:07.067,0.03,-0.008,1.013
2026/05/14 10:30:07.087,0.028,-0.006,1.016
2026/05/14 10:30:07.107,0.03,-0.007,1.019
2026/05/14 10:30:07.127,0.03,-0.003,1.005
2026/05/14 10:30:07.148,0.033,-0.007,1.014
2026/05/14 10:30:07.168,0.032,-0.006,1.006
2026/05/14 10:30:07.188,0.029,-0.005,1.021
2026/05/14 10:30:07.208,0.03,-0.007,1.011
2026/05/14 10:30:07.228,0.033,-0.005,1.011
2026/05/14 10:30:07.248,0.029,-0.007,1.015
2026/05/14 10:30:07.269,0.029,-0.008,1.013
2026/05/14 10:30:07.289,0.033,-0.006,1.014
2026/05/14 10:30:07.309,0.033,-0.005,1.007
2026/05/14 10:30:07.329,0.036,-0.008,1.015
2026/05/14 10:30:07.349,0.031,-0.003,1.011
2026/05/14 10:30:07.369,0.033,-0.008,1.012
2026/05/14 10:30:07.389,0.03,-0.008,1.013
2026/05/14 10:30:07.410,0.032,-0.005,1.018
2026/05/14 10:30:07.430,0.031,-0.008,1.014
2026/05/14 10:30:07.450,0.032,-0.008,1.012
2026/05/14 10:30:07.470,0.03,-0.01,1.014
2026/05/14 10:30:07.490,0.03,-0.008,1.014
2026/05/14 10:30:07.510,0.031,-0.008,1.015
2026/05/14 10:30:07.531,0.03,-0.008,1.012
2026/05/14 10:30:07.551,0.033,-0.005,1.013
2026/05/14 10:30:07.571,0.033,-0.007,1.016
2026/05/14 10:30:07.591,0.03,-0.007,1.015
2026/05/14 10:30:07.611,0.034,-0.008,1.013
2026/05/14 10:30:07.631,0.034,-0.01,1.014
2026/05/14 10:30:07.652,0.032,-0.005,1.014
2026/05/14 10:30:07.672,0.032,-0.009,1.012
2026/05/14 10:30:07.692,0.031,-0.008,1.015
2026/05/14 10:30:07.712,0.031,-0.007,1.011
2026/05/14 10:30:07.732,0.029,-0.008,1.014
2026/05/14 10:30:07.752,0.032,-0.01,1.014
2026/05/14 10:30:07.772,0.033,-0.005,1.015
2026/05/14 10:30:07.793,0.032,-0.003,1.014
2026/05/14 10:30:07.813,0.032,-0.008,1.014
2026/05/14 10:30:07.833,0.034,-0.007,1.014
2026/05/14 10:30:07.853,0.03,-0.009,1.014
2026/05/14 10:30:07.873,0.032,-0.004,1.015
2026/05/14 10:30:07.893,0.031,-0.007,1.015
2026/05/14 10:30:07.914,0.033,-0.009,1.011
2026/05/14 10:30:07.934,0.033,-0.008,1.015
2026/05/14 10:30:07.954,0.031,-0.005,1.012
2026/05/14 10:30:07.974,0.033,-0.012,1.011
2026/05/14 10:30:07.994,0.033,-0.005,1.01
2026/05/14 10:30:08.014,0.028,-0.002,0.999
2026/05/14 10:30:08.034,0.025,-0.005,1.0
2026/05/14 10:30:08.055,0.032,-0.01,1.017
2026/05/14 10:30:08.075,0.03,-0.004,1.013
2026/05/14 10:30:08.095,0.032,-0.01,1.014
2026/05/14 10:30:08.115,0.031,-0.008,1.016
2026/05/14 10:30:08.135,0.034,-0.004,1.016
2026/05/14 10:30:08.155,0.031,-0.005,1.015
2026/05/14 10:30:08.176,0.03,-0.007,1.012
2026/05/14 10:30:08.196,0.031,-0.006,1.014
2026/05/14 10:30:08.216,0.032,-0.003,1.011
2026/05/14 10:30:08.236,0.03,-0.002,1.009
2026/05/14 10:30:08.256,0.037,-0.007,1.037
2026/05/14 10:30:08.276,0.036,-0.01,1.016
2026/05/14 10:30:08.297,0.04,-0.011,1.019
2026/05/14 10:30:08.317,0.036,-0.007,1.004
2026/05/14 10:30:08.337,0.039,0.02,1.049
2026/05/14 10:30:08.357,0.07,0.11,1.132
2026/05/14 10:30:08.377,0.053,0.011,1.097
2026/05/14 10:30:08.397,-0.004,-0.043,1.016
2026/05/14 10:30:08.417,0.019,-0.037,1.043
2026/05/14 10:30:08.438,0.034,-0.016,1.032
2026/05/14 10:30:08.458,0.027,0.004,1.005
2026/05/14 10:30:08.478,0.036,-0.001,1.015
2026/05/14 10:30:08.498,0.043,-0.007,1.015
2026/05/14 10:30:08.518,0.041,-0.021,1.019
2026/05/14 10:30:08.538,0.039,-0.014,1.027
2026/05/14 10:30:08.559,0.035,0.001,1.011
2026/05/14 10:30:08.579,0.033,0.015,1.024
2026/05/14 10:30:08.599,0.031,0.016,1.017
2026/05/14 10:30:08.619,0.028,0.007,1.004
2026/05/14 10:30:08.639,0.03,-0.013,1.009
2026/05/14 10:30:08.659,0.029,-0.02,1.013
2026/05/14 10:30:08.679,0.031,-0.016,1.018
2026/05/14 10:30:08.700,0.034,-0.011,1.01
2026/05/14 10:30:08.720,0.032,-0.005,1.013
2026/05/14 10:30:08.740,0.024,-0.007,1.011
2026/05/14 10:30:08.760,0.024,-0.018,1.015
2026/05/14 10:30:08.780,0.027,-0.015,1.016
2026/05/14 10:30:08.800,0.028,-0.009,1.012
2026/05/14 10:30:08.821,0.037,-0.002,1.013
2026/05/14 10:30:08.841,0.04,0.005,1.012
2026/05/14 10:30:08.861,0.037,0.002,1.012
2026/05/14 10:30:08.881,0.036,-0.003,1.014
2026/05/14 10:30:08.901,0.031,-0.007,1.017
2026/05/14 10:30:08.921,0.026,-0.007,1.015
2026/05/14 10:30:08.942,0.027,-0.006,1.009
2026/05/14 10:30:08.962,0.028,-0.003,1.014
2026/05/14 10:30:08.982,0.032,-0.007,1.013
2026/05/14 10:30:09.002,0.032,-0.012,1.016
2026/05/14 10:30:09.022,0.032,-0.017,1.013
2026/05/14 10:30:09.042,0.03,-0.015,1.013
2026/05/14 10:30:09.062,0.031,-0.007,1.012
2026/05/14 10:30:09.083,0.027,0.003,1.016
2026/05/14 10:30:09.103,0.032,-0.002,1.011
2026/05/14 10:30:09.123,0.032,-0.002,1.008
2026/05/14 10:30:09.143,0.034,-0.01,1.013
2026/05/14 10:30:09.163,0.037,-0.007,1.016
2026/05/14 10:30:09.183,0.031,-0.003,1.015
2026/05/14 10:30:09.204,0.033,-0.005,1.013
2026/05/14 10:30:09.224,0.03,-0.006,1.015
2026/05/14 10:30:09.244,0.029,-0.012,1.011
2026/05/14 10:30:09.264,0.026,-0.011,1.014
2026/05/14 10:30:09.284,0.031,-0.01,1.013
2026/05/14 10:30:09.304,0.031,-0.009,1.019
2026/05/14 10:30:09.324,0.032,-0.006,1.012
2026/05/14 10:30:09.345,0.032,-0.009,1.013
2026/05/14 10:30:09.365,0.032,-0.003,1.013
2026/05/14 10:30:09.385,0.035,-0.005,1.02
2026/05/14 10:30:09.405,0.036,-0.007,1.014
2026/05/14 10:30:09.425,0.032,-0.004,1.012
2026/05/14 10:30:09.445,0.031,-0.003,1.012
2026/05/14 10:30:09.466,0.029,-0.006,1.011
2026/05/14 10:30:09.486,0.029,-0.008,1.014
2026/05/14 10:30:09.506,0.03,-0.009,1.014
2026/05/14 10:30:09.526,0.033,-0.012,1.011
2026/05/14 10:30:09.546,0.033,-0.011,1.013
2026/05/14 10:30:09.566,0.03,-0.008,1.008
2026/05/14 10:30:09.586,0.032,-0.013,1.013
2026/05/14 10:30:09.607,0.03,-0.006,1.017
2026/05/14 10:30:09.627,0.029,-0.005,1.014
2026/05/14 10:30:09.647,0.034,-0.01,1.012
2026/05/14 10:30:09.667,0.038,-0.005,1.016
2026/05/14 10:30:09.687,0.033,-0.005,1.016
2026/05/14 10:30:09.707,0.032,-0.006,1.011
2026/05/14 10:30:09.728,0.032,-0.008,1.014
2026/05/14 10:30:09.748,0.032,-0.007,1.012
2026/05/14 10:30:09.768,0.027,-0.008,1.016
2026/05/14 10:30:09.788,0.029,-0.005,1.014
2026/05/14 10:30:09.808,0.029,-0.005,1.016
2026/05/14 10:30:09.828,0.033,-0.01,1.011
2026/05/14 10:30:09.849,0.032,-0.006,1.011
2026/05/14 10:30:09.869,0.032,-0.004,1.02
2026/05/14 10:30:09.889,0.034,-0.008,1.013
2026/05/14 10:30:09.909,0.033,-0.005,1.011
2026/05/14 10:30:09.929,0.032,-0.004,1.013
2026/05/14 10:30:09.949,0.036,-0.007,1.009
2026/05/14 10:30:09.969,0.031,-0.003,1.018
2026/05/14 10:30:09.990,0.031,-0.008,1.016
2026/05/14 10:30:10.010,0.03,-0.008,1.012
2026/05/14 10:30:10.030,0.031,-0.011,1.013
2026/05/14 10:30:10.050,0.025,-0.008,1.013
2026/05/14 10:30:10.070,0.033,-0.007,1.023
2026/05/14 10:30:10.090,0.031,-0.011,1.02
2026/05/14 10:30:10.111,0.03,-0.009,1.019
2026/05/14 10:30:10.131,0.034,-0.008,1.018
2026/05/14 10:30:10.151,0.033,-0.009,1.018
2026/05/14 10:30:10.171,0.035,-0.005,1.006
2026/05/14 10:30:10.191,0.029,-0.004,1.009
2026/05/14 10:30:10.211,0.035,-0.006,1.018
2026/05/14 10:30:10.231,0.034,-0.007,1.016
2026/05/14 10:30:10.252,0.031,-0.005,1.011
2026/05/14 10:30:10.272,0.033,-0.005,1.015
2026/05/14 10:30:10.292,0.031,-0.007,1.009
2026/05/14 10:30:10.312,0.03,-0.012,1.017
2026/05/14 10:30:10.332,0.029,-0.01,1.016
2026/05/14 10:30:10.352,0.035,-0.014,1.017
2026/05/14 10:30:10.373,0.033,-0.008,1.011
2026/05/14 10:30:10.393,0.031,-0.006,1.012
2026/05/14 10:30:10.413,0.033,-0.007,1.014
2026/05/14 10:30:10.433,0.033,-0.003,1.014
2026/05/14 10:30:10.453,0.033,-0.007,1.013
2026/05/14 10:30:10.473,0.031,-0.004,1.011
2026/05/14 10:30:10.494,0.035,-0.008,1.013
2026/05/14 10:30:10.514,0.03,-0.008,1.016
2026/05/14 10:30:10.534,0.031,-0.011,1.016
2026/05/14 10:30:10.554,0.029,-0.011,1.015
2026/05/14 10:30:10.574,0.031,-0.005,1.014
2026/05/14 10:30:10.594,0.029,-0.012,1.011
2026/05/14 10:30:10.614,0.03,-0.007,1.017
2026/05/14 10:30:10.635,0.031,-0.003,1.014
2026/05/14 10:30:10.655,0.035,-0.003,1.011
2026/05/14 10:30:10.675,0.034,-0.006,1.017
2026/05/14 10:30:10.695,0.033,-0.005,1.016
2026/05/14 10:30:10.715,0.032,-0.008,1.013
2026/05/14 10:30:10.735,0.036,-0.004,1.012
2026/05/14 10:30:10.756,0.031,-0.009,1.013
2026/05/14 10:30:10.776,0.031,-0.005,1.014
2026/05/14 10:30:10.796,0.035,-0.01,1.012
2026/05/14 10:30:10.816,0.032,-0.007,1.014
2026/05/14 10:30:10.836,0.033,-0.007,1.01
2026/05/14 10:30:10.856,0.032,-0.007,1.013
2026/05/14 10:30:10.876,0.032,-0.005,1.012
2026/05/14 10:30:10.897,0.03,-0.004,1.013
2026/05/14 10:30:10.917,0.032,-0.004,1.016
2026/05/14 10:30:10.937,0.032,-0.006,1.014
2026/05/14 10:30:10.957,0.034,-0.005,1.016
2026/05/14 10:30:10.977,0.03,-0.004,1.012
2026/05/14 10:30:10.997,0.033,-0.007,1.014
2026/05/14 10:30:11.018,0.031,-0.006,1.01
2026/05/14 10:30:11.038,0.03,-0.007,1.015
2026/05/14 10:30:11.058,0.029,-0.006,1.014
2026/05/14 10:30:11.078,0.032,-0.008,1.013
2026/05/14 10:30:11.098,0.031,-0.007,1.013
2026/05/14 10:30:11.118,0.029,-0.007,1.013
2026/05/14 10:30:11.138,0.035,-0.004,1.013
2026/05/14 10:30:11.159,0.036,-0.006,1.012
2026/05/14 10:30:11.179,0.033,-0.007,1.014
2026/05/14 10:30:11.199,0.035,-0.005,1.015
2026/05/14 10:30:11.219,0.032,-0.006,1.017
2026/05/14 10:30:11.239,0.033,-0.006,1.012
2026/05/14 10:30:11.259,0.031,-0.008,1.014
2026/05/14 10:30:11.280,0.03,-0.004,1.014
2026/05/14 10:30:11.300,0.028,-0.007,1.016
2026/05/14 10:30:11.320,0.033,-0.006,1.012
2026/05/14 10:30:11.340,0.03,-0.005,1.014
2026/05/14 10:30:11.360,0.032,-0.009,1.017
2026/05/14 10:30:11.380,0.031,-0.007,1.011
2026/05/14 10:30:11.401,0.033,-0.009,1.011
2026/05/14 10:30:11.421,0.032,-0.007,1.015
2026/05/14 10:30:11.441,0.034,-0.009,1.015
2026/05/14 10:30:11.461,0.03,-0.007,1.012
2026/05/14 10:30:11.481,0.03,-0.008,1.012
2026/05/14 10:30:11.501,0.032,-0.008,1.016
2026/05/14 10:30:11.521,0.032,-0.006,1.02
2026/05/14 10:30:11.542,0.031,-0.007,1.017
2026/05/14 10:30:11.562,0.028,-0.01,1.013
2026/05/14 10:30:11.582,0.029,-0.009,1.012
2026/05/14 10:30:11.602,0.032,-0.009,1.017
2026/05/14 10:30:11.622,0.035,-0.009,1.014
2026/05/14 10:30:11.642,0.032,-0.006,1.016
2026/05/14 10:30:11.663,0.034,-0.007,1.013
2026/05/14 10:30:11.683,0.032,-0.004,1.012
2026/05/14 10:30:11.703,0.027,-0.003,1.012
2026/05/14 10:30:11.723,0.034,-0.007,1.013
2026/05/14 10:30:11.743,0.035,-0.007,1.013
2026/05/14 10:30:11.763,0.03,-0.006,1.018
2026/05/14 10:30:11.783,0.03,-0.008,1.011
2026/05/14 10:30:11.804,0.033,-0.008,1.014
2026/05/14 10:30:11.824,0.031,-0.007,1.014
2026/05/14 10:30:11.844,0.031,-0.009,1.016
2026/05/14 10:30:11.864,0.032,-0.007,1.015
2026/05/14 10:30:11.884,0.033,-0.005,1.012
2026/05/14 10:30:11.904,0.032,-0.006,1.017
2026/05/14 10:30:11.925,0.032,-0.004,1.01
2026/05/14 10:30:11.945,0.032,-0.007,1.014
2026/05/14 10:30:11.965,0.031,-0.006,1.011
2026/05/14 10:30:11.985,0.031,-0.002,1.014
2026/05/14 10:30:12.005,0.032,-0.006,1.013
2026/05/14 10:30:12.025,0.03,-0.009,1.015
2026/05/14 10:30:12.045,0.031,-0.005,1.014
2026/05/14 10:30:12.066,0.031,-0.009,1.014
2026/05/14 10:30:12.086,0.033,-0.008,1.013
2026/05/14 10:30:12.106,0.03,-0.009,1.015
2026/05/14 10:30:12.126,0.029,-0.007,1.013
2026/05/14 10:30:12.146,0.031,-0.007,1.01
2026/05/14 10:30:12.166,0.035,-0.007,1.014
2026/05/14 10:30:12.187,0.035,-0.01,1.015
2026/05/14 10:30:12.207,0.035,-0.008,1.013
2026/05/14 10:30:12.227,0.029,-0.005,1.01
2026/05/14 10:30:12.247,0.032,-0.006,1.012
2026/05/14 10:30:12.267,0.031,-0.009,1.017
2026/05/14 10:30:12.287,0.031,-0.009,1.012
2026/05/14 10:30:12.308,0.03,-0.01,1.014
2026/05/14 10:30:12.328,0.032,-0.007,1.011
2026/05/14 10:30:12.348,0.033,-0.008,1.011
2026/05/14 10:30:12.368,0.032,-0.006,1.015
2026/05/14 10:30:12.388,0.028,-0.004,1.013
2026/05/14 10:30:12.408,0.032,-0.007,1.013
2026/05/14 10:30:12.428,0.031,-0.002,1.014
2026/05/14 10:30:12.449,0.032,-0.005,1.014
2026/05/14 10:30:12.469,0.031,-0.008,1.015
2026/05/14 10:30:12.489,0.032,-0.004,1.015
2026/05/14 10:30:12.509,0.035,-0.006,1.011
2026/05/14 10:30:12.529,0.032,-0.012,1.016
2026/05/14 10:30:12.549,0.03,-0.008,1.012
2026/05/14 10:30:12.570,0.031,-0.008,1.014
2026/05/14 10:30:12.590,0.029,-0.008,1.01
2026/05/14 10:30:12.610,0.03,-0.004,1.015
2026/05/14 10:30:12.630,0.031,-0.005,1.014
2026/05/14 10:30:12.650,0.031,-0.007,1.017
2026/05/14 10:30:12.670,0.031,-0.004,1.014
2026/05/14 10:30:12.690,0.033,-0.007,1.01
2026/05/14 10:30:12.711,0.032,-0.008,1.014
2026/05/14 10:30:12.731,0.033,-0.006,1.013
2026/05/14 10:30:12.751,0.029,-0.008,1.013
2026/05/14 10:30:12.771,0.034,-0.006,1.018
2026/05/14 10:30:12.791,0.029,-0.006,1.011
2026/05/14 10:30:12.811,0.031,-0.008,1.012
2026/05/14 10:30:12.832,0.031,-0.006,1.014
2026/05/14 10:30:12.852,0.029,-0.005,1.013
2026/05/14 10:30:12.872,0.034,-0.009,1.012
2026/05/14 10:30:12.892,0.032,-0.008,1.012
2026/05/14 10:30:12.912,0.034,-0.005,1.012
2026/05/14 10:30:12.932,0.032,-0.006,1.015
2026/05/14 10:30:12.952,0.034,-0.005,1.012
2026/05/14 10:30:12.973,0.033,-0.005,1.015
2026/05/14 10:30:12.993,0.031,-0.006,1.014
2026/05/14 10:30:13.013,0.034,-0.006,1.013
2026/05/14 10:30:13.033,0.03,-0.009,1.012
2026/05/14 10:30:13.053,0.033,-0.006,1.013
2026/05/14 10:30:13.073,0.033,-0.007,1.016
2026/05/14 10:30:13.094,0.03,-0.007,1.018
2026/05/14 10:30:13.114,0.032,-0.009,1.018
2026/05/14 10:30:13.134,0.034,-0.008,1.017
2026/05/14 10:30:13.154,0.033,-0.007,1.01
2026/05/14 10:30:13.174,0.034,-0.003,1.013
2026/05/14 10:30:13.194,0.032,-0.006,1.01
2026/05/14 10:30:13.214,0.031,-0.008,1.011
2026/05/14 10:30:13.235,0.032,-0.008,1.016
2026/05/14 10:30:13.255,0.032,-0.008,1.016
2026/05/14 10:30:13.275,0.031,-0.004,1.015
2026/05/14 10:30:13.295,0.032,-0.008,1.013
2026/05/14 10:30:13.315,0.029,-0.01,1.012
2026/05/14 10:30:13.335,0.03,-0.006,1.012
2026/05/14 10:30:13.356,0.03,-0.008,1.015
2026/05/14 10:30:13.376,0.031,-0.008,1.013
2026/05/14 10:30:13.396,0.035,-0.008,1.012
2026/05/14 10:30:13.416,0.033,-0.009,1.015
2026/05/14 10:30:13.436,0.031,-0.005,1.017
2026/05/14 10:30:13.456,0.031,-0.01,1.014
2026/05/14 10:30:13.476,0.032,-0.007,1.013
2026/05/14 10:30:13.497,0.033,-0.006,1.014
2026/05/14 10:30:13.517,0.029,-0.007,1.014
2026/05/14 10:30:13.537,0.031,-0.008,1.012
2026/05/14 10:30:13.557,0.032,-0.01,1.013
2026/05/14 10:30:13.577,0.031,-0.01,1.015
2026/05/14 10:30:13.597,0.031,-0.01,1.012
2026/05/14 10:30:13.618,0.033,-0.006,1.014
2026/05/14 10:30:13.638,0.033,-0.008,1.014
2026/05/14 10:30:13.658,0.036,-0.002,1.012
2026/05/14 10:30:13.678,0.033,-0.005,1.015
2026/05/14 10:30:13.698,0.031,-0.004,1.015
2026/05/14 10:30:13.718,0.034,-0.003,1.016
2026/05/14 10:30:13.739,0.032,-0.009,1.012
2026/05/14 10:30:13.759,0.034,-0.008,1.008
2026/05/14 10:30:13.779,0.031,-0.005,1.016
2026/05/14 10:30:13.799,0.032,-0.005,1.012
2026/05/14 10:30:13.819,0.031,-0.006,1.011
2026/05/14 10:30:13.839,0.031,-0.009,1.011
2026/05/14 10:30:13.859,0.033,-0.011,1.013
2026/05/14 10:30:13.880,0.035,-0.008,1.014
2026/05/14 10:30:13.900,0.034,-0.008,1.013
2026/05/14 10:30:13.920,0.034,-0.01,1.012
2026/05/14 10:30:13.940,0.03,-0.007,1.016
2026/05/14 10:30:13.960,0.032,-0.005,1.016
2026/05/14 10:30:13.980,0.035,-0.007,1.018
2026/05/14 10:30:14.001,0.029,-0.007,1.014
2026/05/14 10:30:14.021,0.029,-0.009,1.014
2026/05/14 10:30:14.041,0.033,-0.007,1.014
2026/05/14 10:30:14.061,0.03,-0.006,1.013
2026/05/14 10:30:14.081,0.029,-0.008,1.009
2026/05/14 10:30:14.101,0.032,-0.009,1.014
2026/05/14 10:30:14.121,0.032,-0.007,1.012
2026/05/14 10:30:14.142,0.032,-0.008,1.019
2026/05/14 10:30:14.162,0.032,-0.006,1.01
2026/05/14 10:30:14.182,0.034,-0.008,1.011
2026/05/14 10:30:14.202,0.036,-0.009,1.014
2026/05/14 10:30:14.222,0.034,-0.005,1.016
2026/05/14 10:30:14.242,0.032,-0.008,1.014
2026/05/14 10:30:14.263,0.032,-0.009,1.016
2026/05/14 10:30:14.283,0.032,-0.008,1.009
2026/05/14 10:30:14.303,0.031,-0.004,1.018
2026/05/14 10:30:14.323,0.036,-0.01,1.013
2026/05/14 10:30:14.343,0.03,-0.005,1.011
2026/05/14 10:30:14.363,0.03,-0.008,1.016
2026/05/14 10:30:14.383,0.032,-0.008,1.014
2026/05/14 10:30:14.404,0.034,-0.006,1.01
2026/05/14 10:30:14.424,0.03,-0.01,1.016
2026/05/14 10:30:14.444,0.034,-0.006,1.017
2026/05/14 10:30:14.464,0.031,-0.008,1.017
2026/05/14 10:30:14.484,0.03,-0.005,1.015
2026/05/14 10:30:14.504,0.031,-0.006,1.011
2026/05/14 10:30:14.525,0.031,-0.01,1.013
2026/05/14 10:30:14.545,0.031,-0.005,1.017
2026/05/14 10:30:14.565,0.034,-0.007,1.011
2026/05/14 10:30:14.585,0.03,-0.007,1.017
2026/05/14 10:30:14.605,0.033,-0.006,1.015
2026/05/14 10:30:14.625,0.03,-0.009,1.012
2026/05/14 10:30:14.645,0.031,-0.007,1.015
2026/05/14 10:30:14.666,0.033,-0.005,1.015
2026/05/14 10:30:14.686,0.032,-0.006,1.015
2026/05/14 10:30:14.706,0.032,-0.008,1.008
2026/05/14 10:30:14.726,0.029,-0.008,1.013
2026/05/14 10:30:14.746,0.031,-0.003,1.013
2026/05/14 10:30:14.766,0.027,-0.008,1.014
2026/05/14 10:30:14.787,0.031,-0.006,1.011
2026/05/14 10:30:14.807,0.031,-0.01,1.011
2026/05/14 10:30:14.827,0.034,-0.008,1.014
2026/05/14 10:30:14.847,0.029,-0.005,1.017
2026/05/14 10:30:14.867,0.034,-0.009,1.017
2026/05/14 10:30:14.887,0.034,-0.007,1.011
2026/05/14 10:30:14.908,0.031,-0.009,1.014
2026/05/14 10:30:14.928,0.03,-0.003,1.014
2026/05/14 10:30:14.948,0.03,-0.008,1.013
2026/05/14 10:30:14.968,0.035,-0.007,1.015
2026/05/14 10:30:14.988,0.032,-0.008,1.014
2026/05/14 10:30:15.008,0.028,-0.006,1.011
2026/05/14 10:30:15.028,0.032,-0.006,1.011
2026/05/14 10:30:15.049,0.034,-0.01,1.014
2026/05/14 10:30:15.069,0.035,-0.006,1.013
2026/05/14 10:30:15.089,0.036,-0.007,1.011
2026/05/14 10:30:15.109,0.033,-0.011,1.011
2026/05/14 10:30:15.129,0.033,-0.005,1.014
2026/05/14 10:30:15.149,0.033,-0.002,1.016
2026/05/14 10:30:15.170,0.032,-0.002,1.012
2026/05/14 10:30:15.190,0.032,-0.005,1.015
2026/05/14 10:30:15.210,0.035,-0.007,1.017
2026/05/14 10:30:15.230,0.031,-0.009,1.014
2026/05/14 10:30:15.250,0.035,-0.008,1.014
2026/05/14 10:30:15.270,0.031,-0.006,1.014
2026/05/14 10:30:15.290,0.031,-0.008,1.016
2026/05/14 10:30:15.311,0.034,-0.008,1.015
2026/05/14 10:30:15.331,0.03,-0.005,1.013
2026/05/14 10:30:15.351,0.029,-0.006,1.011
2026/05/14 10:30:15.371,0.033,-0.011,1.009
2026/05/14 10:30:15.391,0.029,-0.005,1.015
2026/05/14 10:30:15.411,0.032,-0.006,1.013
2026/05/14 10:30:15.432,0.031,-0.005,1.013
2026/05/14 10:30:15.452,0.03,-0.007,1.017
2026/05/14 10:30:15.472,0.032,-0.005,1.017
2026/05/14 10:30:15.492,0.033,-0.008,1.015
2026/05/14 10:30:15.512,0.034,-0.01,1.013
2026/05/14 10:30:15.532,0.028,-0.009,1.013
2026/05/14 10:30:15.552,0.032,-0.007,1.01
2026/05/14 10:30:15.573,0.032,-0.009,1.013
2026/05/14 10:30:15.593,0.031,-0.005,1.014
2026/05/14 10:30:15.613,0.032,-0.005,1.016
2026/05/14 10:30:15.633,0.031,-0.005,1.013
2026/05/14 10:30:15.653,0.03,-0.011,1.019
2026/05/14 10:30:15.673,0.031,-0.007,1.017
2026/05/14 10:30:15.694,0.031,-0.007,1.016
2026/05/14 10:30:15.714,0.031,-0.007,1.016
2026/05/14 10:30:15.734,0.029,-0.008,1.018
2026/05/14 10:30:15.754,0.034,-0.005,1.012
2026/05/14 10:30:15.774,0.036,-0.003,1.014
2026/05/14 10:30:15.794,0.029,-0.005,1.012
2026/05/14 10:30:15.815,0.033,-0.002,1.008
2026/05/14 10:30:15.835,0.032,-0.007,1.015
2026/05/14 10:30:15.855,0.026,-0.008,1.012
2026/05/14 10:30:15.875,0.031,-0.008,1.011
2026/05/14 10:30:15.895,0.036,-0.007,1.014
2026/05/14 10:30:15.915,0.032,-0.007,1.013
2026/05/14 10:30:15.935,0.036,-0.007,1.014
2026/05/14 10:30:15.956,0.032,-0.007,1.014
2026/05/14 10:30:15.976,0.033,-0.008,1.017
2026/05/14 10:30:15.996,0.03,-0.005,1.012
2026/05/14 10:30:16.016,0.031,-0.005,1.013
2026/05/14 10:30:16.036,0.03,-0.008,1.015
2026/05/14 10:30:16.056,0.033,-0.006,1.016
2026/05/14 10:30:16.077,0.033,-0.01,1.015
2026/05/14 10:30:16.097,0.029,-0.007,1.014
2026/05/14 10:30:16.117,0.029,-0.01,1.015
2026/05/14 10:30:16.137,0.035,-0.007,1.013
2026/05/14 10:30:16.157,0.032,-0.006,1.017
2026/05/14 10:30:16.177,0.035,-0.006,1.016
2026/05/14 10:30:16.197,0.036,-0.006,1.012
2026/05/14 10:30:16.218,0.033,-0.007,1.015
2026/05/14 10:30:16.238,0.031,-0.006,1.013
2026/05/14 10:30:16.258,0.028,-0.009,1.01
2026/05/14 10:30:16.278,0.032,-0.007,1.016
2026/05/14 10:30:16.298,0.033,-0.008,1.014
2026/05/14 10:30:16.318,0.025,-0.008,1.015
2026/05/14 10:30:16.339,0.033,-0.009,1.013
2026/05/14 10:30:16.359,0.032,-0.006,1.013
2026/05/14 10:30:16.379,0.034,-0.009,1.014
2026/05/14 10:30:16.399,0.029,-0.01,1.017
2026/05/14 10:30:16.419,0.028,-0.006,1.013
2026/05/14 10:30:16.439,0.036,-0.005,1.016
2026/05/14 10:30:16.460,0.03,-0.004,1.011
2026/05/14 10:30:16.480,0.03,-0.008,1.015
2026/05/14 10:30:16.500,0.035,-0.006,1.009
2026/05/14 10:30:16.520,0.035,-0.006,1.019
2026/05/14 10:30:16.540,0.031,-0.007,1.01
2026/05/14 10:30:16.560,0.031,-0.009,1.013
2026/05/14 10:30:16.580,0.031,-0.012,1.014
2026/05/14 10:30:16.601,0.032,-0.007,1.016
2026/05/14 10:30:16.621,0.031,-0.009,1.015
2026/05/14 10:30:16.641,0.031,-0.002,1.012
2026/05/14 10:30:16.661,0.032,-0.008,1.011
2026/05/14 10:30:16.681,0.038,-0.004,1.019
2026/05/14 10:30:16.701,0.033,-0.009,1.015
2026/05/14 10:30:16.722,0.031,-0.008,1.015
2026/05/14 10:30:16.742,0.035,-0.009,1.013
2026/05/14 10:30:16.762,0.033,-0.006,1.015
2026/05/14 10:30:16.782,0.03,-0.008,1.019
2026/05/14 10:30:16.802,0.028,-0.005,1.014
2026/05/14 10:30:16.822,0.029,-0.007,1.018
2026/05/14 10:30:16.842,0.033,-0.007,1.015
2026/05/14 10:30:16.863,0.03,-0.006,1.012
2026/05/14 10:30:16.883,0.031,-0.008,1.013
2026/05/14 10:30:16.903,0.032,-0.004,1.014
2026/05/14 10:30:16.923,0.033,-0.008,1.016
2026/05/14 10:30:16.943,0.032,-0.008,1.018
2026/05/14 10:30:16.963,0.032,-0.006,1.016
2026/05/14 10:30:16.984,0.032,-0.012,1.012
2026/05/14 10:30:17.004,0.031,-0.005,1.015
2026/05/14 10:30:17.024,0.032,-0.012,1.013
2026/05/14 10:30:17.044,0.032,-0.006,1.016
2026/05/14 10:30:17.064,0.033,-0.005,1.016
2026/05/14 10:30:17.084,0.03,-0.007,1.018
2026/05/14 10:30:17.104,0.032,-0.003,1.012
2026/05/14 10:30:17.125,0.03,-0.005,1.014
2026/05/14 10:30:17.145,0.032,-0.006,1.011
2026/05/14 10:30:17.165,0.032,-0.005,1.013
2026/05/14 10:30:17.185,0.032,-0.008,1.016
2026/05/14 10:30:17.205,0.033,-0.004,1.014
2026/05/14 10:30:17.225,0.031,-0.006,1.016
2026/05/14 10:30:17.246,0.034,-0.007,1.011
2026/05/14 10:30:17.266,0.034,-0.009,1.013
2026/05/14 10:30:17.286,0.033,-0.007,1.018
2026/05/14 10:30:17.306,0.032,-0.007,1.016
2026/05/14 10:30:17.326,0.033,-0.009,1.013
2026/05/14 10:30:17.346,0.032,-0.005,1.011
2026/05/14 10:30:17.367,0.031,-0.008,1.014
2026/05/14 10:30:17.387,0.033,-0.006,1.016
2026/05/14 10:30:17.407,0.032,-0.007,1.014
2026/05/14 10:30:17.427,0.033,-0.005,1.015
2026/05/14 10:30:17.447,0.033,-0.009,1.012
2026/05/14 10:30:17.467,0.033,-0.009,1.012
2026/05/14 10:30:17.487,0.032,-0.007,1.019
2026/05/14 10:30:17.508,0.032,-0.008,1.013
2026/05/14 10:30:17.528,0.033,-0.007,1.017
2026/05/14 10:30:17.548,0.034,-0.008,1.016
2026/05/14 10:30:17.568,0.029,-0.005,1.016
2026/05/14 10:30:17.588,0.035,-0.006,1.015
2026/05/14 10:30:17.608,0.031,-0.005,1.011
2026/05/14 10:30:17.629,0.036,-0.006,1.016
2026/05/14 10:30:17.649,0.034,-0.002,1.01
2026/05/14 10:30:17.669,0.031,-0.008,1.011
2026/05/14 10:30:17.689,0.031,-0.005,1.012
2026/05/14 10:30:17.709,0.029,-0.008,1.013
2026/05/14 10:30:17.729,0.032,-0.011,1.011
2026/05/14 10:30:17.749,0.03,-0.006,1.011
2026/05/14 10:30:17.770,0.032,-0.008,1.011
2026/05/14 10:30:17.790,0.03,-0.008,1.013
2026/05/14 10:30:17.810,0.031,-0.008,1.012
2026/05/14 10:30:17.830,0.029,-0.008,1.008
2026/05/14 10:30:17.850,0.034,-0.006,1.014
2026/05/14 10:30:17.870,0.034,-0.011,1.015
2026/05/14 10:30:17.891,0.034,-0.008,1.011
2026/05/14 10:30:17.911,0.031,-0.004,1.016
2026/05/14 10:30:17.931,0.033,-0.009,1.016
2026/05/14 10:30:17.951,0.028,-0.007,1.015
2026/05/14 10:30:17.971,0.035,-0.008,1.018
2026/05/14 10:30:17.991,0.031,-0.007,1.016
2026/05/14 10:30:18.012,0.032,-0.008,1.015
2026/05/14 10:30:18.032,0.033,-0.009,1.015
2026/05/14 10:30:18.052,0.03,-0.007,1.017
2026/05/14 10:30:18.072,0.032,-0.006,1.013
2026/05/14 10:30:18.092,0.032,-0.008,1.015
2026/05/14 10:30:18.112,0.033,-0.006,1.008
2026/05/14 10:30:18.132,0.03,-0.007,1.014
2026/05/14 10:30:18.153,0.031,-0.005,1.015
2026/05/14 10:30:18.173,0.035,-0.007,1.017
2026/05/14 10:30:18.193,0.034,-0.008,1.01
2026/05/14 10:30:18.213,0.031,-0.006,1.012
2026/05/14 10:30:18.233,0.034,-0.008,1.015
2026/05/14 10:30:18.253,0.032,-0.007,1.011
2026/05/14 10:30:18.274,0.032,-0.01,1.015
2026/05/14 10:30:18.294,0.034,-0.006,1.015
2026/05/14 10:30:18.314,0.035,-0.008,1.014
2026/05/14 10:30:18.334,0.033,-0.004,1.014
2026/05/14 10:30:18.354,0.03,-0.009,1.013
2026/05/14 10:30:18.374,0.033,-0.008,1.017
2026/05/14 10:30:18.394,0.027,-0.007,1.015
2026/05/14 10:30:18.415,0.036,-0.005,1.014
2026/05/14 10:30:18.435,0.031,-0.005,1.013
2026/05/14 10:30:18.455,0.033,-0.005,1.013
2026/05/14 10:30:18.475,0.032,-0.005,1.016
2026/05/14 10:30:18.495,0.034,-0.005,1.015
2026/05/14 10:30:18.515,0.031,-0.006,1.014
2026/05/14 10:30:18.536,0.03,-0.008,1.015
2026/05/14 10:30:18.556,0.031,-0.003,1.011
2026/05/14 10:30:18.576,0.03,-0.007,1.015
2026/05/14 10:30:18.596,0.029,-0.005,1.011
2026/05/14 10:30:18.616,0.033,-0.007,1.015
2026/05/14 10:30:18.636,0.031,-0.005,1.018
2026/05/14 10:30:18.657,0.027,-0.007,1.014
2026/05/14 10:30:18.677,0.03,-0.008,1.016
2026/05/14 10:30:18.697,0.029,-0.006,1.013
2026/05/14 10:30:18.717,0.033,-0.008,1.008
2026/05/14 10:30:18.737,0.031,-0.005,1.013
2026/05/14 10:30:18.757,0.032,-0.006,1.012
2026/05/14 10:30:18.777,0.034,-0.004,1.01
2026/05/14 10:30:18.798,0.032,-0.008,1.011
2026/05/14 10:30:18.818,0.037,-0.011,1.014
2026/05/14 10:30:18.838,0.034,-0.008,1.017
2026/05/14 10:30:18.858,0.028,-0.006,1.01
2026/05/14 10:30:18.878,0.031,-0.007,1.014
2026/05/14 10:30:18.898,0.033,-0.005,1.013
2026/05/14 10:30:18.919,0.032,-0.009,1.015
2026/05/14 10:30:18.939,0.029,-0.011,1.014
2026/05/14 10:30:18.959,0.032,-0.008,1.017
2026/05/14 10:30:18.979,0.033,-0.005,1.014
2026/05/14 10:30:18.999,0.03,-0.008,1.016
2026/05/14 10:30:19.019,0.033,-0.005,1.011
2026/05/14 10:30:19.040,0.033,-0.008,1.013
2026/05/14 10:30:19.060,0.032,-0.005,1.016
2026/05/14 10:30:19.080,0.035,-0.009,1.012
2026/05/14 10:30:19.100,0.031,-0.009,1.013
2026/05/14 10:30:19.120,0.028,-0.013,1.007
2026/05/14 10:30:19.140,0.033,-0.007,1.014
2026/05/14 10:30:19.160,0.025,-0.007,1.01
2026/05/14 10:30:19.181,0.033,-0.011,1.022
2026/05/14 10:30:19.201,0.04,-0.002,1.022
2026/05/14 10:30:19.221,0.031,-0.005,1.014
2026/05/14 10:30:19.241,0.033,-0.005,1.012
2026/05/14 10:30:19.261,0.031,0.001,1.016
2026/05/14 10:30:19.281,0.029,-0.009,1.021
2026/05/14 10:30:19.302,0.029,-0.004,1.003
2026/05/14 10:30:19.322,0.03,-0.006,1.011
2026/05/14 10:30:19.342,0.032,-0.006,1.015
2026/05/14 10:30:19.362,0.03,-0.008,1.016
2026/05/14 10:30:19.382,0.028,-0.012,1.01
2026/05/14 10:30:19.402,0.028,-0.012,1.001
2026/05/14 10:30:19.422,0.032,-0.008,1.017
2026/05/14 10:30:19.443,0.031,-0.009,1.013
2026/05/14 10:30:19.463,0.033,-0.006,1.026
2026/05/14 10:30:19.483,0.041,-0.004,1.016
2026/05/14 10:30:19.503,0.039,-0.006,1.018
2026/05/14 10:30:19.523,0.031,-0.005,1.013
2026/05/14 10:30:19.543,0.031,-0.005,1.015
2026/05/14 10:30:19.564,0.032,-0.005,1.01
2026/05/14 10:30:19.584,0.028,-0.005,1.005
2026/05/14 10:30:19.604,0.027,-0.009,0.994
2026/05/14 10:30:19.624,0.025,-0.009,0.99
2026/05/14 10:30:19.644,0.03,-0.008,0.995
2026/05/14 10:30:19.664,0.026,-0.009,1.008
2026/05/14 10:30:19.685,0.029,-0.01,1.008
2026/05/14 10:30:19.705,0.028,-0.006,1.027
2026/05/14 10:30:19.725,0.024,-0.009,0.993
2026/05/14 10:30:19.745,0.031,-0.005,1.018
2026/05/14 10:30:19.765,0.035,-0.007,1.018
2026/05/14 10:30:19.785,0.035,-0.004,1.01
2026/05/14 10:30:19.805,0.03,-0.005,1.009
2026/05/14 10:30:19.826,0.035,-0.009,1.017
2026/05/14 10:30:19.846,0.03,-0.006,1.012
2026/05/14 10:30:19.866,0.031,-0.009,1.016
2026/05/14 10:30:19.886,0.032,-0.012,1.012
2026/05/14 10:30:19.906,0.032,-0.01,1.017
2026/05/14 10:30:19.926,0.033,-0.007,1.016
2026/05/14 10:30:19.947,0.032,-0.007,1.009
2026/05/14 10:30:19.967,0.031,-0.008,1.009
2026/05/14 10:30:19.987,0.03,-0.005,1.012
2026/05/14 10:30:20.007,0.03,-0.005,1.01
2026/05/14 10:30:20.027,0.031,-0.004,1.013
2026/05/14 10:30:20.047,0.032,-0.009,1.012
2026/05/14 10:30:20.068,0.036,-0.012,1.011
2026/05/14 10:30:20.088,0.035,-0.006,1.015
2026/05/14 10:30:20.108,0.035,-0.01,1.012
2026/05/14 10:30:20.128,0.032,-0.006,1.017
2026/05/14 10:30:20.148,0.031,-0.009,1.018
2026/05/14 10:30:20.168,0.028,-0.006,1.015
2026/05/14 10:30:20.188,0.031,-0.012,1.016
2026/05/14 10:30:20.209,0.026,-0.01,1.014
2026/05/14 10:30:20.229,0.024,-0.002,0.996
2026/05/14 10:30:20.249,0.039,-0.008,1.037
2026/05/14 10:30:20.269,0.033,-0.009,1.007
2026/05/14 10:30:20.289,0.033,-0.011,1.013
2026/05/14 10:30:20.309,0.028,-0.003,1.014
2026/05/14 10:30:20.330,0.031,-0.007,1.021
2026/05/14 10:30:20.350,0.029,-0.005,1.01
2026/05/14 10:30:20.370,0.034,-0.006,1.017
2026/05/14 10:30:20.390,0.029,-0.009,1.015
2026/05/14 10:30:20.410,0.03,-0.009,1.015
2026/05/14 10:30:20.430,0.033,-0.012,1.017
2026/05/14 10:30:20.450,0.033,-0.005,1.011
2026/05/14 10:30:20.471,0.034,-0.006,1.012
2026/05/14 10:30:20.491,0.027,-0.006,1.016
2026/05/14 10:30:20.511,0.034,-0.005,1.013
2026/05/14 10:30:20.531,0.027,-0.005,1.009
2026/05/14 10:30:20.551,0.029,-0.005,1.007
2026/05/14 10:30:20.571,0.03,-0.004,1.005
2026/05/14 10:30:20.592,0.033,-0.006,1.025
2026/05/14 10:30:20.612,0.032,-0.01,1.009
2026/05/14 10:30:20.632,0.032,-0.009,1.021
2026/05/14 10:30:20.652,0.031,-0.012,1.012
2026/05/14 10:30:20.672,0.032,-0.009,1.016
2026/05/14 10:30:20.692,0.036,-0.006,1.014
2026/05/14 10:30:20.713,0.03,-0.006,1.01
2026/05/14 10:30:20.733,0.038,-0.006,1.014
2026/05/14 10:30:20.753,0.034,-0.009,1.014
2026/05/14 10:30:20.773,0.031,-0.004,1.011
2026/05/14 10:30:20.793,0.037,-0.007,1.011
2026/05/14 10:30:20.813,0.032,-0.005,1.015
2026/05/14 10:30:20.833,0.032,-0.007,1.016
2026/05/14 10:30:20.854,0.032,-0.007,1.019
2026/05/14 10:30:20.874,0.032,-0.012,1.011
2026/05/14 10:30:20.894,0.032,-0.01,1.012
2026/05/14 10:30:20.914,0.031,-0.006,1.008
2026/05/14 10:30:20.934,0.03,-0.003,1.003
2026/05/14 10:30:20.954,0.033,-0.005,1.014
2026/05/14 10:30:20.975,0.032,-0.008,1.019
2026/05/14 10:30:20.995,0.033,-0.002,1.019
2026/05/14 10:30:21.015,0.033,-0.009,1.018
2026/05/14 10:30:21.035,0.029,-0.006,1.004
2026/05/14 10:30:21.055,0.033,-0.008,1.026
2026/05/14 10:30:21.075,0.03,-0.005,1.01
2026/05/14 10:30:21.096,0.031,-0.008,1.016
2026/05/14 10:30:21.116,0.035,-0.01,1.015
2026/05/14 10:30:21.136,0.027,-0.009,0.997
2026/05/14 10:30:21.156,0.032,-0.005,1.025
2026/05/14 10:30:21.176,0.031,-0.006,1.014
2026/05/14 10:30:21.196,0.032,-0.007,1.011
2026/05/14 10:30:21.216,0.032,-0.006,1.024
2026/05/14 10:30:21.237,0.032,-0.008,1.022
2026/05/14 10:30:21.257,0.033,-0.009,1.017
2026/05/14 10:30:21.277,0.033,-0.006,1.015
2026/05/14 10:30:21.297,0.032,-0.008,1.014
2026/05/14 10:30:21.317,0.03,-0.01,1.01
2026/05/14 10:30:21.337,0.032,-0.009,1.024
2026/05/14 10:30:21.358,0.031,-0.01,1.01
2026/05/14 10:30:21.378,0.032,-0.004,1.012
2026/05/14 10:30:21.398,0.032,-0.001,1.015
2026/05/14 10:30:21.418,0.035,-0.007,1.019
2026/05/14 10:30:21.438,0.032,-0.005,1.012
2026/05/14 10:30:21.458,0.031,-0.006,1.018
2026/05/14 10:30:21.478,0.029,-0.004,1.003
2026/05/14 10:30:21.499,0.025,-0.003,0.991
2026/05/14 10:30:21.519,0.035,-0.007,1.02
2026/05/14 10:30:21.539,0.033,-0.005,1.019
2026/05/14 10:30:21.559,0.036,-0.007,1.018
2026/05/14 10:30:21.579,0.03,-0.01,1.003
2026/05/14 10:30:21.599,0.029,-0.007,1.008
2026/05/14 10:30:21.620,0.034,-0.005,1.013
2026/05/14 10:30:21.640,0.033,-0.007,1.013
2026/05/14 10:30:21.660,0.032,-0.006,1.016
2026/05/14 10:30:21.680,0.031,-0.008,1.016
2026/05/14 10:30:21.700,0.034,-0.01,1.012
2026/05/14 10:30:21.720,0.03,-0.007,1.011
2026/05/14 10:30:21.741,0.032,-0.006,1.009
2026/05/14 10:30:21.761,0.031,-0.006,1.01
2026/05/14 10:30:21.781,0.03,-0.006,1.012
2026/05/14 10:30:21.801,0.034,-0.007,1.016
2026/05/14 10:30:21.821,0.035,-0.007,1.016
2026/05/14 10:30:21.841,0.032,-0.004,1.022
2026/05/14 10:30:21.861,0.03,-0.005,1.016
2026/05/14 10:30:21.882,0.03,-0.005,1.007
2026/05/14 10:30:21.902,0.027,-0.006,1.007
2026/05/14 10:30:21.922,0.033,-0.007,1.009
2026/05/14 10:30:21.942,0.032,-0.006,1.012
2026/05/14 10:30:21.962,0.028,-0.007,1.013
2026/05/14 10:30:21.982,0.031,-0.006,1.007
2026/05/14 10:30:22.003,0.031,-0.008,1.008
2026/05/14 10:30:22.023,0.026,-0.006,1.012
2026/05/14 10:30:22.043,0.031,-0.005,1.013
2026/05/14 10:30:22.063,0.029,-0.009,1.01
2026/05/14 10:30:22.083,0.034,-0.008,1.014
2026/05/14 10:30:22.103,0.034,-0.006,1.013
2026/05/14 10:30:22.123,0.032,-0.006,1.011
2026/05/14 10:30:22.144,0.031,-0.006,1.015
2026/05/14 10:30:22.164,0.032,-0.007,1.015
2026/05/14 10:30:22.184,0.029,-0.008,1.016
2026/05/14 10:30:22.204,0.029,-0.007,1.011
2026/05/14 10:30:22.224,0.036,-0.009,1.015
2026/05/14 10:30:22.244,0.03,-0.006,1.013
2026/05/14 10:30:22.265,0.032,-0.008,1.018
2026/05/14 10:30:22.285,0.032,-0.005,1.009
2026/05/14 10:30:22.305,0.033,-0.008,1.007
2026/05/14 10:30:22.325,0.031,-0.009,1.014
2026/05/14 10:30:22.345,0.033,-0.01,1.01
2026/05/14 10:30:22.365,0.033,-0.007,1.014
2026/05/14 10:30:22.386,0.032,-0.01,1.019
2026/05/14 10:30:22.406,0.03,-0.01,1.009
2026/05/14 10:30:22.426,0.033,-0.007,1.018
2026/05/14 10:30:22.446,0.033,-0.01,1.014
2026/05/14 10:30:22.466,0.028,-0.008,1.014
2026/05/14 10:30:22.486,0.034,-0.008,1.014
2026/05/14 10:30:22.506,0.033,-0.004,1.011
2026/05/14 10:30:22.527,0.031,-0.006,1.014
2026/05/14 10:30:22.547,0.032,-0.004,1.009
2026/05/14 10:30:22.567,0.035,-0.009,1.015
2026/05/14 10:30:22.587,0.028,-0.006,1.012
2026/05/14 10:30:22.607,0.03,-0.006,1.013
2026/05/14 10:30:22.627,0.031,-0.006,1.017
2026/05/14 10:30:22.648,0.028,-0.005,1.013
2026/05/14 10:30:22.668,0.032,-0.006,1.014
2026/05/14 10:30:22.688,0.031,-0.005,1.014
2026/05/14 10:30:22.708,0.03,-0.004,1.018
2026/05/14 10:30:22.728,0.032,-0.002,1.012
2026/05/14 10:30:22.748,0.031,-0.009,1.013
2026/05/14 10:30:22.768,0.031,-0.007,1.012
2026/05/14 10:30:22.789,0.032,-0.008,1.014
2026/05/14 10:30:22.809,0.029,-0.004,1.01
2026/05/14 10:30:22.829,0.033,-0.005,1.013
2026/05/14 10:30:22.849,0.03,-0.006,1.008
2026/05/14 10:30:22.869,0.032,-0.008,1.015
2026/05/14 10:30:22.889,0.032,-0.011,1.013
2026/05/14 10:30:22.910,0.03,-0.008,1.01
2026/05/14 10:30:22.930,0.033,-0.006,1.011
2026/05/14 10:30:22.950,0.034,-0.005,1.015
2026/05/14 10:30:22.970,0.034,-0.009,1.015
2026/05/14 10:30:22.990,0.028,-0.005,1.017
2026/05/14 10:30:23.010,0.033,-0.007,1.016
2026/05/14 10:30:23.031,0.031,-0.006,1.007
2026/05/14 10:30:23.051,0.035,-0.002,1.012
2026/05/14 10:30:23.071,0.032,-0.008,1.013
2026/05/14 10:30:23.091,0.034,-0.009,1.019
2026/05/14 10:30:23.111,0.034,-0.009,1.022
2026/05/14 10:30:23.131,0.033,-0.005,1.012
2026/05/14 10:30:23.151,0.033,-0.007,1.012
2026/05/14 10:30:23.172,0.033,-0.007,1.016
2026/05/14 10:30:23.192,0.032,-0.007,1.013
2026/05/14 10:30:23.212,0.031,-0.006,1.014
2026/05/14 10:30:23.232,0.032,-0.005,1.015
2026/05/14 10:30:23.252,0.033,-0.01,1.013
2026/05/14 10:30:23.272,0.031,-0.006,1.011
2026/05/14 10:30:23.293,0.031,-0.005,1.014
2026/05/14 10:30:23.313,0.031,-0.006,1.015
2026/05/14 10:30:23.333,0.033,-0.011,1.015
2026/05/14 10:30:23.353,0.033,-0.005,1.014
2026/05/14 10:30:23.373,0.031,-0.008,1.013
2026/05/14 10:30:23.393,0.034,-0.008,1.014
2026/05/14 10:30:23.414,0.029,-0.004,1.015
2026/05/14 10:30:23.434,0.031,-0.007,1.015
2026/05/14 10:30:23.454,0.029,-0.008,1.01
2026/05/14 10:30:23.474,0.032,-0.001,1.013
2026/05/14 10:30:23.494,0.033,-0.004,1.019
2026/05/14 10:30:23.514,0.034,-0.007,1.011
2026/05/14 10:30:23.534,0.033,-0.008,1.014
2026/05/14 10:30:23.555,0.035,-0.007,1.012
2026/05/14 10:30:23.575,0.031,-0.006,1.014
2026/05/14 10:30:23.595,0.034,-0.007,1.015
2026/05/14 10:30:23.615,0.032,-0.007,1.011
2026/05/14 10:30:23.635,0.031,-0.007,1.013
2026/05/14 10:30:23.655,0.03,-0.008,1.014
2026/05/14 10:30:23.676,0.033,-0.007,1.014
2026/05/14 10:30:23.696,0.03,-0.005,1.017
2026/05/14 10:30:23.716,0.031,-0.005,1.013
2026/05/14 10:30:23.736,0.029,-0.012,1.016
2026/05/14 10:30:23.756,0.033,-0.008,1.014
2026/05/14 10:30:23.776,0.027,-0.005,1.015
2026/05/14 10:30:23.796,0.032,-0.006,1.016
2026/05/14 10:30:23.817,0.03,-0.008,1.014
2026/05/14 10:30:23.837,0.032,-0.008,1.014
2026/05/14 10:30:23.857,0.032,-0.003,1.014
2026/05/14 10:30:23.877,0.034,-0.004,1.012
2026/05/14 10:30:23.897,0.031,-0.008,1.013
2026/05/14 10:30:23.917,0.032,-0.004,1.017
2026/05/14 10:30:23.938,0.035,-0.006,1.016
2026/05/14 10:30:23.958,0.031,-0.008,1.014
2026/05/14 10:30:23.978,0.027,-0.008,1.013
2026/05/14 10:30:23.998,0.03,-0.008,1.013
2026/05/14 10:30:24.018,0.03,-0.007,1.012
2026/05/14 10:30:24.038,0.03,-0.003,1.015
2026/05/14 10:30:24.059,0.03,-0.006,1.011
2026/05/14 10:30:24.079,0.032,-0.008,1.012
2026/05/14 10:30:24.099,0.031,-0.003,1.014
2026/05/14 10:30:24.119,0.032,-0.007,1.02
2026/05/14 10:30:24.139,0.032,-0.006,1.015
2026/05/14 10:30:24.159,0.027,-0.001,0.996
2026/05/14 10:30:24.179,0.154,-0.075,1.39
2026/05/14 10:30:24.200,0.04,0.0,1.024
2026/05/14 10:30:24.220,-0.018,0.046,0.796
2026/05/14 10:30:24.240,0.058,-0.024,1.071
2026/05/14 10:30:24.260,0.025,-0.013,1.015
2026/05/14 10:30:24.280,0.042,-0.015,1.015
2026/05/14 10:30:24.300,0.026,-0.012,1.011
2026/05/14 10:30:24.321,0.038,-0.022,1.032
2026/05/14 10:30:24.341,0.032,-0.012,1.016
2026/05/14 10:30:24.361,0.033,-0.006,1.03
2026/05/14 10:30:24.381,0.032,-0.002,1.021
2026/05/14 10:30:24.401,0.042,0.0,1.03
2026/05/14 10:30:24.421,0.031,-0.006,0.965
2026/05/14 10:30:24.442,0.056,-0.011,0.973
2026/05/14 10:30:24.462,0.032,0.017,1.007
2026/05/14 10:30:24.482,0.036,-0.009,1.014
2026/05/14 10:30:24.502,0.025,-0.008,1.007
2026/05/14 10:30:24.522,0.021,-0.02,1.028
2026/05/14 10:30:24.542,0.01,-0.015,0.998
2026/05/14 10:30:24.562,0.0,-0.006,0.985
2026/05/14 10:30:24.583,0.013,-0.008,0.973
2026/05/14 10:30:24.603,0.043,-0.013,1.049
2026/05/14 10:30:24.623,0.051,-0.01,1.026
2026/05/14 10:30:24.643,0.036,0.005,1.004
2026/05/14 10:30:24.663,0.034,-0.01,0.99
2026/05/14 10:30:24.683,0.033,-0.003,1.014
2026/05/14 10:30:24.704,0.028,-0.001,1.017
2026/05/14 10:30:24.724,0.027,-0.001,1.021
2026/05/14 10:30:24.744,0.026,0.003,1.011
2026/05/14 10:30:24.764,0.034,-0.009,1.011
2026/05/14 10:30:24.784,0.036,-0.013,1.011
2026/05/14 10:30:24.804,0.042,-0.014,1.015
2026/05/14 10:30:24.824,0.022,-0.006,1.017
2026/05/14 10:30:24.845,0.036,-0.012,1.026
2026/05/14 10:30:24.865,0.022,-0.009,1.009
2026/05/14 10:30:24.885,0.031,-0.016,1.021
2026/05/14 10:30:24.905,0.018,-0.007,1.006
2026/05/14 10:30:24.925,0.034,-0.005,1.015
2026/05/14 10:30:24.945,0.029,0.004,0.981
2026/05/14 10:30:24.966,0.052,0.001,1.04
2026/05/14 10:30:24.986,0.048,-0.005,1.013
2026/05/14 10:30:25.006,0.05,-0.012,1.065
2026/05/14 10:30:25.026,0.035,-0.01,1.017
2026/05/14 10:30:25.046,0.022,-0.005,1.004
2026/05/14 10:30:25.066,0.013,-0.011,1.011
2026/05/14 10:30:25.087,0.019,-0.014,1.011
2026/05/14 10:30:25.107,0.027,-0.014,1.02
2026/05/14 10:30:25.127,0.031,-0.005,1.002
2026/05/14 10:30:25.147,0.049,-0.005,1.028
2026/05/14 10:30:25.167,0.012,0.048,0.843
2026/05/14 10:30:25.187,0.071,-0.012,1.041
2026/05/14 10:30:25.207,0.152,0.082,0.903
2026/05/14 10:30:25.228,0.124,0.019,0.98
2026/05/14 10:30:25.248,-0.113,-0.02,0.84
2026/05/14 10:30:25.268,-0.018,-0.067,1.222
2026/05/14 10:30:25.288,-0.031,0.012,0.811
2026/05/14 10:30:25.308,0.009,-0.001,1.207
2026/05/14 10:30:25.328,0.036,-0.027,1.028
2026/05/14 10:30:25.349,0.039,-0.018,1.047
2026/05/14 10:30:25.369,0.039,-0.015,1.03
2026/05/14 10:30:25.389,0.036,-0.005,0.991
2026/05/14 10:30:25.409,0.075,0.008,0.979
2026/05/14 10:30:25.429,0.029,-0.007,1.051
2026/05/14 10:30:25.449,0.051,-0.015,1.008
2026/05/14 10:30:25.469,-0.015,-0.012,1.019
2026/05/14 10:30:25.490,0.042,-0.006,0.994
2026/05/14 10:30:25.510,0.038,-0.011,1.023
2026/05/14 10:30:25.530,0.042,-0.006,1.03
2026/05/14 10:30:25.550,0.028,0.003,1.002
2026/05/14 10:30:25.570,0.033,-0.011,1.011
2026/05/14 10:30:25.590,0.03,-0.002,0.999
2026/05/14 10:30:25.611,0.03,-0.009,1.019
2026/05/14 10:30:25.631,0.022,-0.004,1.021
2026/05/14 10:30:25.651,0.025,-0.001,1.008
2026/05/14 10:30:25.671,0.028,-0.01,1.014
2026/05/14 10:30:25.691,0.029,-0.02,1.027
2026/05/14 10:30:25.711,0.038,-0.025,1.116
2026/05/14 10:30:25.732,0.01,0.024,0.963
2026/05/14 10:30:25.752,0.05,0.006,1.012
2026/05/14 10:30:25.772,0.02,-0.011,1.086
2026/05/14 10:30:25.792,0.013,0.011,1.119
2026/05/14 10:30:25.812,0.037,-0.021,0.972
2026/05/14 10:30:25.832,0.045,-0.012,1.033
2026/05/14 10:30:25.852,0.009,-0.01,0.989
2026/05/14 10:30:25.873,0.029,0.019,1.016
2026/05/14 10:30:25.893,0.044,0.006,1.057
2026/05/14 10:30:25.913,0.059,0.006,1.024
2026/05/14 10:30:25.933,0.059,-0.005,1.039
2026/05/14 10:30:25.953,0.04,-0.013,1.014
2026/05/14 10:30:25.973,0.031,-0.026,1.018
2026/05/14 10:30:25.994,0.023,-0.021,1.006
2026/05/14 10:30:26.014,0.036,-0.023,1.017
2026/05/14 10:30:26.034,0.024,-0.025,1.017
2026/05/14 10:30:26.054,0.014,-0.021,1.039
2026/05/14 10:30:26.074,0.021,-0.015,1.026
2026/05/14 10:30:26.094,0.026,0.001,1.006
2026/05/14 10:30:26.114,0.057,0.001,1.028
2026/05/14 10:30:26.135,0.013,-0.08,1.006
2026/05/14 10:30:26.155,0.074,0.001,0.947
2026/05/14 10:30:26.175,0.043,-0.005,0.995
2026/05/14 10:30:26.195,0.038,-0.016,1.031
2026/05/14 10:30:26.215,0.04,-0.005,1.017
2026/05/14 10:30:26.235,0.028,-0.009,1.028
2026/05/14 10:30:26.256,0.019,-0.007,1.012
