Timestamp,ACC X,ACC Y,ACC Z
2026/05/14 10:33:50.402,0.159,-0.113,0.993
2026/05/14 10:33:50.421,0.162,-0.11,0.991
2026/05/14 10:33:50.440,0.159,-0.108,0.992
2026/05/14 10:33:50.459,0.16,-0.112,0.994
2026/05/14 10:33:50.479,0.164,-0.107,0.991
2026/05/14 10:33:50.498,0.157,-0.115,0.993
2026/05/14 10:33:50.517,0.158,-0.114,0.994
2026/05/14 10:33:50.536,0.16,-0.114,0.991
2026/05/14 10:33:50.556,0.162,-0.113,0.995
2026/05/14 10:33:50.575,0.159,-0.109,0.99
2026/05/14 10:33:50.594,0.159,-0.117,0.992
2026/05/14 10:33:50.613,0.156,-0.112,0.994
2026/05/14 10:33:50.632,0.161,-0.112,0.991
2026/05/14 10:33:50.652,0.16,-0.111,0.994
2026/05/14 10:33:50.671,0.161,-0.11,0.993
2026/05/14 10:33:50.690,0.16,-0.107,0.992
2026/05/14 10:33:50.709,0.158,-0.107,0.99
2026/05/14 10:33:50.729,0.157,-0.112,0.996
2026/05/14 10:33:50.748,0.162,-0.114,0.995
2026/05/14 10:33:50.767,0.16,-0.114,0.992
2026/05/14 10:33:50.786,0.161,-0.114,0.995
2026/05/14 10:33:50.806,0.161,-0.11,0.998
2026/05/14 10:33:50.825,0.159,-0.114,0.995
2026/05/14 10:33:50.844,0.158,-0.109,0.994
2026/05/14 10:33:50.863,0.161,-0.11,0.994
2026/05/14 10:33:50.882,0.159,-0.114,0.993
2026/05/14 10:33:50.902,0.159,-0.111,0.991
2026/05/14 10:33:50.921,0.163,-0.113,0.99
2026/05/14 10:33:50.940,0.159,-0.113,0.992
2026/05/14 10:33:50.959,0.16,-0.113,0.995
2026/05/14 10:33:50.979,0.157,-0.115,0.99
2026/05/14 10:33:50.998,0.16,-0.111,0.993
2026/05/14 10:33:51.017,0.157,-0.113,0.998
2026/05/14 10:33:51.036,0.161,-0.112,0.992
2026/05/14 10:33:51.056,0.157,-0.112,0.991
2026/05/14 10:33:51.075,0.159,-0.113,0.995
2026/05/14 10:33:51.094,0.161,-0.114,0.992
2026/05/14 10:33:51.113,0.16,-0.111,0.993
2026/05/14 10:33:51.132,0.158,-0.108,0.994
2026/05/14 10:33:51.152,0.159,-0.111,0.991
2026/05/14 10:33:51.171,0.156,-0.114,0.989
2026/05/14 10:33:51.190,0.16,-0.111,0.994
2026/05/14 10:33:51.209,0.16,-0.113,0.995
2026/05/14 10:33:51.229,0.161,-0.114,0.992
2026/05/14 10:33:51.248,0.156,-0.114,0.994
2026/05/14 10:33:51.267,0.16,-0.109,0.987
2026/05/14 10:33:51.286,0.159,-0.111,0.993
2026/05/14 10:33:51.306,0.157,-0.106,0.989
2026/05/14 10:33:51.325,0.161,-0.112,0.995
2026/05/14 10:33:51.344,0.161,-0.109,0.992
2026/05/14 10:33:51.363,0.161,-0.112,0.991
2026/05/14 10:33:51.382,0.162,-0.114,0.992
2026/05/14 10:33:51.402,0.157,-0.114,0.995
2026/05/14 10:33:51.421,0.155,-0.11,0.991
2026/05/14 10:33:51.440,0.156,-0.112,0.992
2026/05/14 10:33:51.459,0.162,-0.111,0.988
2026/05/14 10:33:51.479,0.159,-0.115,0.989
2026/05/14 10:33:51.498,0.158,-0.107,0.992
2026/05/14 10:33:51.517,0.164,-0.116,0.995
2026/05/14 10:33:51.536,0.16,-0.113,0.993
2026/05/14 10:33:51.556,0.161,-0.112,0.995
2026/05/14 10:33:51.575,0.16,-0.113,0.996
2026/05/14 10:33:51.594,0.159,-0.113,0.995
2026/05/14 10:33:51.613,0.161,-0.107,0.99
2026/05/14 10:33:51.632,0.157,-0.113,0.995
2026/05/14 10:33:51.652,0.161,-0.11,0.992
2026/05/14 10:33:51.671,0.158,-0.111,0.995
2026/05/14 10:33:51.690,0.158,-0.111,0.99
2026/05/14 10:33:51.709,0.159,-0.11,0.992
2026/05/14 10:33:51.729,0.163,-0.112,0.991
2026/05/14 10:33:51.748,0.159,-0.109,0.991
2026/05/14 10:33:51.767,0.16,-0.106,0.989
2026/05/14 10:33:51.786,0.161,-0.109,0.992
2026/05/14 10:33:51.806,0.159,-0.109,0.99
2026/05/14 10:33:51.825,0.155,-0.113,0.991
2026/05/14 10:33:51.844,0.161,-0.115,0.995
2026/05/14 10:33:51.863,0.161,-0.112,0.995
2026/05/14 10:33:51.882,0.164,-0.106,0.99
2026/05/14 10:33:51.902,0.161,-0.107,0.993
2026/05/14 10:33:51.921,0.159,-0.109,0.992
2026/05/14 10:33:51.940,0.157,-0.108,0.995
2026/05/14 10:33:51.959,0.158,-0.11,0.994
2026/05/14 10:33:51.979,0.159,-0.113,0.991
2026/05/14 10:33:51.998,0.16,-0.111,0.99
2026/05/14 10:33:52.017,0.161,-0.114,0.993
2026/05/14 10:33:52.036,0.159,-0.112,0.994
2026/05/14 10:33:52.056,0.16,-0.113,0.991
2026/05/14 10:33:52.075,0.159,-0.115,0.994
2026/05/14 10:33:52.094,0.157,-0.112,0.994
2026/05/14 10:33:52.113,0.155,-0.111,0.996
2026/05/14 10:33:52.132,0.162,-0.11,0.99
2026/05/14 10:33:52.152,0.161,-0.111,0.998
2026/05/14 10:33:52.171,0.158,-0.108,0.99
2026/05/14 10:33:52.190,0.161,-0.114,0.993
2026/05/14 10:33:52.209,0.16,-0.116,0.992
2026/05/14 10:33:52.229,0.16,-0.116,0.99
2026/05/14 10:33:52.248,0.157,-0.112,0.991
2026/05/14 10:33:52.267,0.159,-0.117,0.991
2026/05/14 10:33:52.286,0.159,-0.115,0.992
2026/05/14 10:33:52.306,0.162,-0.112,0.995
2026/05/14 10:33:52.325,0.162,-0.113,0.992
2026/05/14 10:33:52.344,0.162,-0.112,0.995
2026/05/14 10:33:52.363,0.163,-0.112,0.996
2026/05/14 10:33:52.382,0.159,-0.111,0.996
2026/05/14 10:33:52.402,0.16,-0.111,0.995
2026/05/14 10:33:52.421,0.164,-0.115,0.99
2026/05/14 10:33:52.440,0.159,-0.107,0.997
2026/05/14 10:33:52.459,0.159,-0.111,0.994
2026/05/14 10:33:52.479,0.162,-0.113,0.998
2026/05/14 10:33:52.498,0.161,-0.112,0.993
2026/05/14 10:33:52.517,0.158,-0.114,0.99
2026/05/14 10:33:52.536,0.153,-0.098,0.95
2026/05/14 10:33:52.556,0.18,-0.151,0.952
2026/05/14 10:33:52.575,0.169,-0.113,0.991
2026/05/14 10:33:52.594,0.192,-0.133,0.983
2026/05/14 10:33:52.613,0.146,-0.096,0.975
2026/05/14 10:33:52.632,0.158,-0.111,1.021
2026/05/14 10:33:52.652,0.171,-0.114,0.969
2026/05/14 10:33:52.671,0.175,-0.118,0.98
2026/05/14 10:33:52.690,0.177,-0.114,0.989
2026/05/14 10:33:52.709,0.169,-0.117,0.99
2026/05/14 10:33:52.729,0.16,-0.108,1.012
2026/05/14 10:33:52.748,0.154,-0.106,0.997
2026/05/14 10:33:52.767,0.143,-0.103,1.0
2026/05/14 10:33:52.786,0.156,-0.107,0.986
2026/05/14 10:33:52.806,0.164,-0.111,0.984
2026/05/14 10:33:52.825,0.168,-0.117,0.995
2026/05/14 10:33:52.844,0.158,-0.116,0.995
2026/05/14 10:33:52.863,0.16,-0.116,0.997
2026/05/14 10:33:52.881,0.162,-0.113,0.994
2026/05/14 10:33:52.900,0.158,-0.116,0.998
2026/05/14 10:33:52.919,0.147,-0.109,0.986
2026/05/14 10:33:52.938,0.15,-0.111,0.991
2026/05/14 10:33:52.956,0.156,-0.114,0.998
2026/05/14 10:33:52.975,0.163,-0.111,0.999
2026/05/14 10:33:52.994,0.167,-0.112,0.99
2026/05/14 10:33:53.013,0.168,-0.109,0.991
2026/05/14 10:33:53.031,0.163,-0.114,0.99
2026/05/14 10:33:53.050,0.163,-0.11,0.994
2026/05/14 10:33:53.069,0.155,-0.112,0.998
2026/05/14 10:33:53.088,0.153,-0.11,0.993
2026/05/14 10:33:53.106,0.157,-0.114,0.996
2026/05/14 10:33:53.125,0.157,-0.115,0.993
2026/05/14 10:33:53.144,0.163,-0.115,0.989
2026/05/14 10:33:53.163,0.166,-0.111,0.992
2026/05/14 10:33:53.181,0.164,-0.115,0.995
2026/05/14 10:33:53.200,0.158,-0.111,0.994
2026/05/14 10:33:53.219,0.157,-0.114,0.998
2026/05/14 10:33:53.237,0.156,-0.11,0.993
2026/05/14 10:33:53.256,0.158,-0.106,0.995
2026/05/14 10:33:53.275,0.163,-0.109,0.994
2026/05/14 10:33:53.294,0.163,-0.113,0.991
2026/05/14 10:33:53.312,0.164,-0.109,0.989
2026/05/14 10:33:53.331,0.159,-0.112,0.992
2026/05/14 10:33:53.350,0.159,-0.115,0.997
2026/05/14 10:33:53.369,0.157,-0.114,0.991
2026/05/14 10:33:53.387,0.159,-0.112,0.994
2026/05/14 10:33:53.406,0.162,-0.107,0.998
2026/05/14 10:33:53.425,0.157,-0.111,0.993
2026/05/14 10:33:53.444,0.163,-0.111,0.995
2026/05/14 10:33:53.462,0.161,-0.112,0.99
2026/05/14 10:33:53.481,0.162,-0.109,0.995
2026/05/14 10:33:53.500,0.161,-0.111,0.996
2026/05/14 10:33:53.519,0.156,-0.113,0.995
2026/05/14 10:33:53.537,0.16,-0.114,0.989
2026/05/14 10:33:53.556,0.164,-0.111,0.997
2026/05/14 10:33:53.575,0.162,-0.113,0.989
2026/05/14 10:33:53.594,0.157,-0.115,0.99
2026/05/14 10:33:53.612,0.161,-0.115,0.993
2026/05/14 10:33:53.631,0.161,-0.109,0.995
2026/05/14 10:33:53.650,0.16,-0.108,0.992
2026/05/14 10:33:53.668,0.158,-0.112,0.994
2026/05/14 10:33:53.687,0.16,-0.108,0.997
2026/05/14 10:33:53.706,0.162,-0.109,0.995
2026/05/14 10:33:53.725,0.156,-0.113,0.994
2026/05/14 10:33:53.743,0.158,-0.109,0.99
2026/05/14 10:33:53.762,0.159,-0.112,0.994
2026/05/14 10:33:53.781,0.157,-0.113,0.995
2026/05/14 10:33:53.800,0.162,-0.112,0.991
2026/05/14 10:33:53.818,0.161,-0.115,0.995
2026/05/14 10:33:53.837,0.157,-0.114,0.988
2026/05/14 10:33:53.856,0.162,-0.116,0.993
2026/05/14 10:33:53.875,0.162,-0.114,0.994
2026/05/14 10:33:53.893,0.161,-0.112,0.996
2026/05/14 10:33:53.912,0.16,-0.112,0.993
2026/05/14 10:33:53.931,0.16,-0.112,0.995
2026/05/14 10:33:53.950,0.16,-0.109,0.997
2026/05/14 10:33:53.968,0.158,-0.11,0.992
2026/05/14 10:33:53.987,0.162,-0.112,0.996
2026/05/14 10:33:54.006,0.159,-0.112,0.996
2026/05/14 10:33:54.025,0.159,-0.112,0.997
2026/05/14 10:33:54.043,0.156,-0.114,0.991
2026/05/14 10:33:54.062,0.156,-0.114,0.995
2026/05/14 10:33:54.081,0.159,-0.112,0.99
2026/05/14 10:33:54.100,0.161,-0.111,0.997
2026/05/14 10:33:54.118,0.161,-0.114,0.994
2026/05/14 10:33:54.137,0.165,-0.108,0.993
2026/05/14 10:33:54.156,0.158,-0.11,0.998
2026/05/14 10:33:54.174,0.159,-0.112,0.994
2026/05/14 10:33:54.193,0.16,-0.113,0.994
2026/05/14 10:33:54.212,0.16,-0.111,0.996
2026/05/14 10:33:54.231,0.16,-0.115,0.995
2026/05/14 10:33:54.249,0.161,-0.109,0.997
2026/05/14 10:33:54.268,0.162,-0.113,0.992
2026/05/14 10:33:54.287,0.16,-0.109,0.991
2026/05/14 10:33:54.306,0.164,-0.111,0.992
2026/05/14 10:33:54.324,0.163,-0.115,0.993
2026/05/14 10:33:54.343,0.161,-0.114,0.992
2026/05/14 10:33:54.362,0.157,-0.115,0.993
2026/05/14 10:33:54.381,0.161,-0.111,0.992
2026/05/14 10:33:54.399,0.167,-0.113,0.992
2026/05/14 10:33:54.418,0.162,-0.114,0.991
2026/05/14 10:33:54.437,0.162,-0.114,0.99
2026/05/14 10:33:54.456,0.16,-0.111,0.995
2026/05/14 10:33:54.474,0.158,-0.107,0.99
2026/05/14 10:33:54.493,0.155,-0.108,0.993
2026/05/14 10:33:54.512,0.16,-0.111,0.995
2026/05/14 10:33:54.531,0.163,-0.111,0.996
2026/05/14 10:33:54.549,0.157,-0.109,0.992
2026/05/14 10:33:54.568,0.158,-0.107,0.991
2026/05/14 10:33:54.587,0.157,-0.11,0.991
2026/05/14 10:33:54.605,0.159,-0.11,0.995
2026/05/14 10:33:54.624,0.157,-0.112,0.995
2026/05/14 10:33:54.643,0.16,-0.109,0.991
2026/05/14 10:33:54.662,0.161,-0.116,0.991
2026/05/14 10:33:54.680,0.161,-0.112,0.994
2026/05/14 10:33:54.699,0.163,-0.111,0.995
2026/05/14 10:33:54.718,0.16,-0.11,0.995
2026/05/14 10:33:54.737,0.16,-0.111,0.993
2026/05/14 10:33:54.755,0.157,-0.113,0.994
2026/05/14 10:33:54.774,0.159,-0.108,0.999
2026/05/14 10:33:54.793,0.158,-0.11,0.994
2026/05/14 10:33:54.812,0.162,-0.11,0.994
2026/05/14 10:33:54.830,0.158,-0.115,0.992
2026/05/14 10:33:54.849,0.158,-0.112,0.994
2026/05/14 10:33:54.868,0.161,-0.109,0.989
2026/05/14 10:33:54.887,0.156,-0.112,0.999
2026/05/14 10:33:54.905,0.162,-0.111,0.99
2026/05/14 10:33:54.924,0.158,-0.108,0.996
2026/05/14 10:33:54.943,0.16,-0.111,0.995
2026/05/14 10:33:54.962,0.161,-0.107,0.995
2026/05/14 10:33:54.980,0.162,-0.109,0.991
2026/05/14 10:33:54.999,0.163,-0.109,0.996
2026/05/14 10:33:55.018,0.157,-0.109,0.994
2026/05/14 10:33:55.036,0.161,-0.114,0.991
2026/05/14 10:33:55.055,0.156,-0.111,0.994
2026/05/14 10:33:55.074,0.159,-0.111,0.992
2026/05/14 10:33:55.093,0.159,-0.115,0.995
2026/05/14 10:33:55.111,0.158,-0.114,0.995
2026/05/14 10:33:55.130,0.158,-0.113,0.996
2026/05/14 10:33:55.149,0.158,-0.11,0.992
2026/05/14 10:33:55.168,0.159,-0.112,0.994
2026/05/14 10:33:55.186,0.161,-0.109,0.991
2026/05/14 10:33:55.205,0.161,-0.11,0.995
2026/05/14 10:33:55.224,0.162,-0.109,0.99
2026/05/14 10:33:55.243,0.159,-0.111,0.993
2026/05/14 10:33:55.261,0.157,-0.11,0.996
2026/05/14 10:33:55.280,0.16,-0.111,0.99
2026/05/14 10:33:55.299,0.16,-0.112,0.997
2026/05/14 10:33:55.318,0.162,-0.115,0.993
2026/05/14 10:33:55.336,0.159,-0.111,0.996
2026/05/14 10:33:55.355,0.16,-0.108,0.989
2026/05/14 10:33:55.374,0.161,-0.111,0.992
2026/05/14 10:33:55.393,0.159,-0.112,0.992
2026/05/14 10:33:55.411,0.159,-0.113,0.996
2026/05/14 10:33:55.430,0.163,-0.108,0.999
2026/05/14 10:33:55.449,0.165,-0.112,0.998
2026/05/14 10:33:55.467,0.163,-0.106,0.997
2026/05/14 10:33:55.486,0.155,-0.108,0.991
2026/05/14 10:33:55.505,0.156,-0.113,0.995
2026/05/14 10:33:55.524,0.164,-0.112,0.992
2026/05/14 10:33:55.542,0.157,-0.11,0.988
2026/05/14 10:33:55.561,0.161,-0.109,0.995
2026/05/14 10:33:55.580,0.163,-0.111,0.997
2026/05/14 10:33:55.599,0.163,-0.112,0.991
2026/05/14 10:33:55.617,0.159,-0.111,0.991
2026/05/14 10:33:55.636,0.16,-0.109,0.998
2026/05/14 10:33:55.655,0.16,-0.111,0.992
2026/05/14 10:33:55.674,0.16,-0.11,0.993
2026/05/14 10:33:55.692,0.158,-0.108,0.994
2026/05/14 10:33:55.711,0.156,-0.11,0.995
2026/05/14 10:33:55.730,0.158,-0.114,0.995
2026/05/14 10:33:55.749,0.16,-0.112,0.99
2026/05/14 10:33:55.767,0.157,-0.111,0.994
2026/05/14 10:33:55.786,0.156,-0.113,0.993
2026/05/14 10:33:55.805,0.16,-0.11,0.995
2026/05/14 10:33:55.824,0.16,-0.114,0.992
2026/05/14 10:33:55.842,0.161,-0.112,0.996
2026/05/14 10:33:55.861,0.161,-0.11,0.994
2026/05/14 10:33:55.880,0.16,-0.114,0.992
2026/05/14 10:33:55.899,0.159,-0.112,0.991
2026/05/14 10:33:55.917,0.161,-0.116,0.994
2026/05/14 10:33:55.936,0.158,-0.113,0.994
2026/05/14 10:33:55.955,0.158,-0.111,0.996
2026/05/14 10:33:55.974,0.157,-0.109,0.997
2026/05/14 10:33:55.992,0.159,-0.112,0.994
2026/05/14 10:33:56.011,0.164,-0.109,0.991
2026/05/14 10:33:56.030,0.162,-0.108,0.991
2026/05/14 10:33:56.048,0.161,-0.11,0.994
2026/05/14 10:33:56.067,0.159,-0.11,0.992
2026/05/14 10:33:56.086,0.158,-0.112,0.994
2026/05/14 10:33:56.105,0.157,-0.113,0.992
2026/05/14 10:33:56.123,0.159,-0.113,0.996
2026/05/14 10:33:56.142,0.159,-0.116,0.99
2026/05/14 10:33:56.161,0.159,-0.117,0.992
2026/05/14 10:33:56.180,0.159,-0.109,0.996
2026/05/14 10:33:56.198,0.161,-0.107,0.995
2026/05/14 10:33:56.217,0.16,-0.114,0.989
2026/05/14 10:33:56.236,0.159,-0.108,0.995
2026/05/14 10:33:56.255,0.16,-0.109,0.994
2026/05/14 10:33:56.273,0.16,-0.111,0.99
2026/05/14 10:33:56.292,0.156,-0.111,0.994
2026/05/14 10:33:56.311,0.159,-0.11,0.993
2026/05/14 10:33:56.330,0.159,-0.114,0.994
2026/05/14 10:33:56.348,0.162,-0.114,0.997
2026/05/14 10:33:56.367,0.163,-0.109,0.994
2026/05/14 10:33:56.386,0.163,-0.113,0.998
2026/05/14 10:33:56.405,0.163,-0.109,1.003
2026/05/14 10:33:56.423,0.161,-0.112,0.989
2026/05/14 10:33:56.442,0.157,-0.11,0.991
2026/05/14 10:33:56.461,0.164,-0.111,0.999
2026/05/14 10:33:56.480,0.16,-0.111,0.998
2026/05/14 10:33:56.498,0.156,-0.11,0.991
2026/05/14 10:33:56.517,0.168,-0.108,1.01
2026/05/14 10:33:56.536,0.16,-0.11,0.996
2026/05/14 10:33:56.555,0.163,-0.108,0.992
2026/05/14 10:33:56.573,0.161,-0.113,0.987
2026/05/14 10:33:56.592,0.165,-0.113,0.995
2026/05/14 10:33:56.611,0.163,-0.115,0.993
2026/05/14 10:33:56.629,0.16,-0.114,0.996
2026/05/14 10:33:56.648,0.161,-0.109,0.986
2026/05/14 10:33:56.667,0.161,-0.111,0.998
2026/05/14 10:33:56.686,0.161,-0.108,0.995
2026/05/14 10:33:56.704,0.162,-0.11,0.996
2026/05/14 10:33:56.723,0.163,-0.106,0.997
2026/05/14 10:33:56.742,0.161,-0.109,0.995
2026/05/14 10:33:56.761,0.16,-0.11,0.998
2026/05/14 10:33:56.779,0.161,-0.112,0.994
2026/05/14 10:33:56.798,0.155,-0.113,0.988
2026/05/14 10:33:56.817,0.163,-0.111,0.998
2026/05/14 10:33:56.836,0.159,-0.115,1.0
2026/05/14 10:33:56.854,0.159,-0.111,0.998
2026/05/14 10:33:56.873,0.164,-0.11,0.994
2026/05/14 10:33:56.892,0.162,-0.113,0.99
2026/05/14 10:33:56.911,0.158,-0.112,0.999
2026/05/14 10:33:56.929,0.164,-0.108,0.996
2026/05/14 10:33:56.948,0.157,-0.113,0.991
2026/05/14 10:33:56.967,0.159,-0.105,0.993
2026/05/14 10:33:56.986,0.157,-0.11,0.994
2026/05/14 10:33:57.004,0.158,-0.111,0.996
2026/05/14 10:33:57.023,0.157,-0.115,0.991
2026/05/14 10:33:57.042,0.159,-0.112,0.999
2026/05/14 10:33:57.061,0.158,-0.111,0.992
2026/05/14 10:33:57.079,0.16,-0.11,0.993
2026/05/14 10:33:57.098,0.161,-0.112,0.992
2026/05/14 10:33:57.117,0.16,-0.112,0.993
2026/05/14 10:33:57.136,0.157,-0.112,0.996
2026/05/14 10:33:57.154,0.161,-0.11,0.995
2026/05/14 10:33:57.173,0.162,-0.107,0.995
2026/05/14 10:33:57.192,0.163,-0.11,0.996
2026/05/14 10:33:57.210,0.162,-0.111,0.996
2026/05/14 10:33:57.229,0.161,-0.111,0.998
2026/05/14 10:33:57.248,0.161,-0.111,0.992
2026/05/14 10:33:57.267,0.161,-0.11,0.995
2026/05/14 10:33:57.285,0.162,-0.11,0.996
2026/05/14 10:33:57.304,0.16,-0.112,0.99
2026/05/14 10:33:57.323,0.156,-0.111,0.993
2026/05/14 10:33:57.342,0.159,-0.111,0.992
2026/05/14 10:33:57.360,0.16,-0.109,0.99
2026/05/14 10:33:57.379,0.159,-0.114,0.991
2026/05/14 10:33:57.398,0.163,-0.113,0.994
2026/05/14 10:33:57.417,0.16,-0.112,0.992
2026/05/14 10:33:57.435,0.16,-0.11,0.992
2026/05/14 10:33:57.454,0.156,-0.111,0.995
2026/05/14 10:33:57.473,0.158,-0.112,0.996
2026/05/14 10:33:57.492,0.157,-0.112,0.992
2026/05/14 10:33:57.510,0.16,-0.11,0.991
2026/05/14 10:33:57.529,0.156,-0.105,0.994
2026/05/14 10:33:57.548,0.161,-0.112,0.993
2026/05/14 10:33:57.567,0.161,-0.115,0.994
2026/05/14 10:33:57.585,0.158,-0.115,0.995
2026/05/14 10:33:57.604,0.163,-0.111,0.996
2026/05/14 10:33:57.623,0.161,-0.114,0.995
2026/05/14 10:33:57.642,0.16,-0.112,0.99
2026/05/14 10:33:57.660,0.161,-0.113,0.995
2026/05/14 10:33:57.679,0.162,-0.107,0.999
2026/05/14 10:33:57.698,0.16,-0.106,0.995
2026/05/14 10:33:57.717,0.158,-0.112,0.991
2026/05/14 10:33:57.735,0.163,-0.112,0.982
2026/05/14 10:33:57.754,0.169,-0.106,1.004
2026/05/14 10:33:57.773,0.159,-0.111,0.991
2026/05/14 10:33:57.791,0.162,-0.112,0.995
2026/05/14 10:33:57.810,0.16,-0.115,0.992
2026/05/14 10:33:57.829,0.158,-0.116,0.992
2026/05/14 10:33:57.848,0.156,-0.11,0.987
2026/05/14 10:33:57.866,0.155,-0.114,0.994
2026/05/14 10:33:57.885,0.159,-0.111,0.995
2026/05/14 10:33:57.904,0.157,-0.108,0.99
2026/05/14 10:33:57.923,0.163,-0.112,0.994
2026/05/14 10:33:57.941,0.16,-0.11,0.992
2026/05/14 10:33:57.960,0.16,-0.109,0.992
2026/05/14 10:33:57.979,0.158,-0.109,0.998
2026/05/14 10:33:57.998,0.156,-0.114,0.994
2026/05/14 10:33:58.016,0.156,-0.112,0.996
2026/05/14 10:33:58.035,0.159,-0.113,0.997
2026/05/14 10:33:58.054,0.156,-0.117,0.991
2026/05/14 10:33:58.073,0.159,-0.114,0.988
2026/05/14 10:33:58.091,0.162,-0.111,0.994
2026/05/14 10:33:58.110,0.16,-0.112,0.994
2026/05/14 10:33:58.129,0.156,-0.111,0.992
2026/05/14 10:33:58.148,0.159,-0.11,0.997
2026/05/14 10:33:58.166,0.161,-0.109,0.993
2026/05/14 10:33:58.185,0.16,-0.11,0.995
2026/05/14 10:33:58.204,0.163,-0.109,0.99
2026/05/14 10:33:58.223,0.164,-0.111,0.993
2026/05/14 10:33:58.241,0.161,-0.11,0.996
2026/05/14 10:33:58.260,0.159,-0.111,0.988
2026/05/14 10:33:58.279,0.159,-0.115,0.994
2026/05/14 10:33:58.298,0.159,-0.111,0.992
2026/05/14 10:33:58.316,0.159,-0.11,0.997
2026/05/14 10:33:58.335,0.155,-0.11,0.993
2026/05/14 10:33:58.354,0.16,-0.11,0.993
2026/05/14 10:33:58.372,0.155,-0.111,0.993
2026/05/14 10:33:58.391,0.162,-0.109,0.992
2026/05/14 10:33:58.410,0.161,-0.111,0.991
2026/05/14 10:33:58.429,0.159,-0.112,0.994
2026/05/14 10:33:58.447,0.158,-0.11,0.992
2026/05/14 10:33:58.466,0.161,-0.112,0.992
2026/05/14 10:33:58.485,0.157,-0.106,0.993
2026/05/14 10:33:58.504,0.161,-0.107,0.996
2026/05/14 10:33:58.522,0.162,-0.11,0.996
2026/05/14 10:33:58.541,0.163,-0.112,0.993
2026/05/14 10:33:58.560,0.163,-0.108,0.994
2026/05/14 10:33:58.579,0.162,-0.114,0.991
2026/05/14 10:33:58.597,0.154,-0.111,0.99
2026/05/14 10:33:58.616,0.16,-0.111,0.995
2026/05/14 10:33:58.635,0.156,-0.104,0.993
2026/05/14 10:33:58.654,0.159,-0.106,0.996
2026/05/14 10:33:58.672,0.157,-0.111,0.997
2026/05/14 10:33:58.691,0.161,-0.105,0.99
2026/05/14 10:33:58.710,0.16,-0.111,0.992
2026/05/14 10:33:58.729,0.163,-0.11,0.99
2026/05/14 10:33:58.747,0.16,-0.111,0.994
2026/05/14 10:33:58.766,0.163,-0.113,0.991
2026/05/14 10:33:58.785,0.158,-0.115,0.989
2026/05/14 10:33:58.804,0.16,-0.115,0.99
2026/05/14 10:33:58.822,0.163,-0.115,0.997
2026/05/14 10:33:58.841,0.159,-0.114,0.996
2026/05/14 10:33:58.860,0.16,-0.109,0.995
2026/05/14 10:33:58.879,0.158,-0.108,0.994
2026/05/14 10:33:58.897,0.158,-0.112,0.994
2026/05/14 10:33:58.916,0.161,-0.113,0.994
2026/05/14 10:33:58.935,0.161,-0.114,0.991
2026/05/14 10:33:58.953,0.159,-0.113,0.995
2026/05/14 10:33:58.972,0.157,-0.115,0.995
2026/05/14 10:33:58.991,0.162,-0.112,0.991
2026/05/14 10:33:59.010,0.161,-0.112,0.994
2026/05/14 10:33:59.028,0.162,-0.11,0.991
2026/05/14 10:33:59.047,0.164,-0.108,0.996
2026/05/14 10:33:59.066,0.157,-0.104,0.995
2026/05/14 10:33:59.085,0.157,-0.11,0.995
2026/05/14 10:33:59.103,0.157,-0.112,0.994
2026/05/14 10:33:59.122,0.158,-0.106,0.994
2026/05/14 10:33:59.141,0.158,-0.112,0.994
2026/05/14 10:33:59.160,0.16,-0.11,0.992
2026/05/14 10:33:59.178,0.163,-0.111,0.995
2026/05/14 10:33:59.197,0.153,-0.113,0.996
2026/05/14 10:33:59.216,0.13,-0.115,1.014
2026/05/14 10:33:59.235,0.162,-0.113,0.99
2026/05/14 10:33:59.253,0.164,-0.11,0.995
2026/05/14 10:33:59.272,0.168,-0.105,0.991
2026/05/14 10:33:59.291,0.195,-0.12,1.016
2026/05/14 10:33:59.310,0.178,-0.111,0.996
2026/05/14 10:33:59.328,0.173,-0.122,0.99
2026/05/14 10:33:59.347,0.158,-0.115,1.006
2026/05/14 10:33:59.366,0.139,-0.117,0.992
2026/05/14 10:33:59.385,0.143,-0.119,0.996
2026/05/14 10:33:59.403,0.147,-0.115,0.989
2026/05/14 10:33:59.422,0.153,-0.12,0.991
2026/05/14 10:33:59.441,0.165,-0.11,0.988
2026/05/14 10:33:59.460,0.172,-0.108,0.989
2026/05/14 10:33:59.478,0.172,-0.104,0.994
2026/05/14 10:33:59.497,0.17,-0.102,0.989
2026/05/14 10:33:59.516,0.157,-0.103,0.995
2026/05/14 10:33:59.534,0.151,-0.097,0.997
2026/05/14 10:33:59.553,0.156,-0.105,0.995
2026/05/14 10:33:59.572,0.16,-0.108,0.992
2026/05/14 10:33:59.591,0.158,-0.113,0.993
2026/05/14 10:33:59.609,0.163,-0.118,0.989
2026/05/14 10:33:59.628,0.161,-0.123,0.998
2026/05/14 10:33:59.647,0.16,-0.122,0.992
2026/05/14 10:33:59.666,0.159,-0.119,0.988
2026/05/14 10:33:59.684,0.155,-0.117,0.992
2026/05/14 10:33:59.703,0.154,-0.116,0.993
2026/05/14 10:33:59.722,0.163,-0.112,1.0
2026/05/14 10:33:59.741,0.165,-0.104,0.991
2026/05/14 10:33:59.759,0.161,-0.102,0.993
2026/05/14 10:33:59.778,0.165,-0.1,0.996
2026/05/14 10:33:59.797,0.16,-0.103,0.989
2026/05/14 10:33:59.816,0.161,-0.104,0.99
2026/05/14 10:33:59.834,0.159,-0.106,0.992
2026/05/14 10:33:59.853,0.158,-0.114,0.992
2026/05/14 10:33:59.872,0.16,-0.12,0.992
2026/05/14 10:33:59.891,0.159,-0.125,0.99
2026/05/14 10:33:59.909,0.157,-0.124,0.995
2026/05/14 10:33:59.928,0.161,-0.118,0.993
2026/05/14 10:33:59.947,0.158,-0.114,0.993
2026/05/14 10:33:59.966,0.166,-0.11,0.99
2026/05/14 10:33:59.984,0.164,-0.107,0.995
2026/05/14 10:34:00.003,0.164,-0.102,0.994
2026/05/14 10:34:00.022,0.159,-0.104,0.996
2026/05/14 10:34:00.041,0.163,-0.102,0.993
2026/05/14 10:34:00.059,0.163,-0.107,0.991
2026/05/14 10:34:00.078,0.16,-0.106,0.991
2026/05/14 10:34:00.097,0.162,-0.115,0.994
2026/05/14 10:34:00.116,0.157,-0.114,0.995
2026/05/14 10:34:00.134,0.16,-0.117,0.993
2026/05/14 10:34:00.153,0.158,-0.116,0.989
2026/05/14 10:34:00.172,0.163,-0.118,0.994
2026/05/14 10:34:00.190,0.158,-0.114,0.994
2026/05/14 10:34:00.209,0.165,-0.109,0.992
2026/05/14 10:34:00.228,0.164,-0.106,0.991
2026/05/14 10:34:00.247,0.16,-0.102,0.995
2026/05/14 10:34:00.265,0.157,-0.107,0.994
2026/05/14 10:34:00.284,0.158,-0.108,0.994
2026/05/14 10:34:00.303,0.156,-0.11,0.996
2026/05/14 10:34:00.322,0.16,-0.107,0.992
2026/05/14 10:34:00.340,0.156,-0.114,0.994
2026/05/14 10:34:00.359,0.157,-0.114,0.992
2026/05/14 10:34:00.378,0.159,-0.115,0.993
2026/05/14 10:34:00.397,0.159,-0.112,0.994
2026/05/14 10:34:00.415,0.159,-0.112,0.993
2026/05/14 10:34:00.434,0.161,-0.109,0.988
2026/05/14 10:34:00.453,0.164,-0.113,0.993
2026/05/14 10:34:00.472,0.162,-0.109,0.993
2026/05/14 10:34:00.490,0.164,-0.106,0.995
2026/05/14 10:34:00.509,0.16,-0.106,0.995
2026/05/14 10:34:00.528,0.16,-0.106,0.993
2026/05/14 10:34:00.547,0.164,-0.115,0.992
2026/05/14 10:34:00.565,0.161,-0.112,0.992
2026/05/14 10:34:00.584,0.163,-0.114,0.995
2026/05/14 10:34:00.603,0.16,-0.113,0.99
2026/05/14 10:34:00.622,0.163,-0.111,0.99
2026/05/14 10:34:00.640,0.16,-0.111,0.994
2026/05/14 10:34:00.659,0.164,-0.114,0.991
2026/05/14 10:34:00.678,0.164,-0.115,0.985
2026/05/14 10:34:00.696,0.162,-0.108,1.0
2026/05/14 10:34:00.715,0.156,-0.107,0.991
2026/05/14 10:34:00.734,0.162,-0.107,0.992
2026/05/14 10:34:00.753,0.156,-0.106,0.995
2026/05/14 10:34:00.771,0.159,-0.114,0.991
2026/05/14 10:34:00.790,0.164,-0.112,0.995
2026/05/14 10:34:00.809,0.162,-0.112,0.993
2026/05/14 10:34:00.828,0.166,-0.108,0.993
2026/05/14 10:34:00.846,0.156,-0.113,0.993
2026/05/14 10:34:00.865,0.162,-0.113,0.994
2026/05/14 10:34:00.884,0.156,-0.116,0.993
2026/05/14 10:34:00.903,0.156,-0.115,0.99
2026/05/14 10:34:00.921,0.163,-0.113,0.993
2026/05/14 10:34:00.940,0.163,-0.107,0.996
2026/05/14 10:34:00.959,0.158,-0.111,0.995
2026/05/14 10:34:00.978,0.157,-0.106,0.997
2026/05/14 10:34:00.996,0.158,-0.108,0.991
2026/05/14 10:34:01.015,0.163,-0.109,0.993
2026/05/14 10:34:01.034,0.163,-0.109,0.988
2026/05/14 10:34:01.053,0.158,-0.112,0.992
2026/05/14 10:34:01.071,0.162,-0.113,0.995
2026/05/14 10:34:01.090,0.159,-0.112,0.993
2026/05/14 10:34:01.109,0.154,-0.112,0.987
2026/05/14 10:34:01.128,0.162,-0.11,0.999
2026/05/14 10:34:01.146,0.157,-0.106,0.997
2026/05/14 10:34:01.165,0.165,-0.109,0.994
2026/05/14 10:34:01.184,0.165,-0.107,0.995
2026/05/14 10:34:01.203,0.162,-0.107,0.991
2026/05/14 10:34:01.221,0.161,-0.103,0.991
2026/05/14 10:34:01.240,0.158,-0.105,0.993
2026/05/14 10:34:01.259,0.158,-0.11,0.995
2026/05/14 10:34:01.277,0.151,-0.119,0.993
2026/05/14 10:34:01.296,0.156,-0.123,0.991
2026/05/14 10:34:01.315,0.172,-0.125,1.015
2026/05/14 10:34:01.334,0.159,-0.119,0.992
2026/05/14 10:34:01.352,0.159,-0.112,0.988
2026/05/14 10:34:01.371,0.156,-0.104,0.983
2026/05/14 10:34:01.390,0.155,-0.108,0.987
2026/05/14 10:34:01.409,0.159,-0.104,1.001
2026/05/14 10:34:01.427,0.16,-0.101,0.995
2026/05/14 10:34:01.446,0.16,-0.101,0.994
2026/05/14 10:34:01.465,0.161,-0.104,0.989
2026/05/14 10:34:01.484,0.166,-0.105,0.992
2026/05/14 10:34:01.502,0.164,-0.111,0.991
2026/05/14 10:34:01.521,0.158,-0.116,0.994
2026/05/14 10:34:01.540,0.16,-0.113,0.997
2026/05/14 10:34:01.559,0.171,-0.12,1.012
2026/05/14 10:34:01.577,0.161,-0.127,1.012
2026/05/14 10:34:01.596,0.154,-0.118,0.993
2026/05/14 10:34:01.615,0.163,-0.113,0.983
2026/05/14 10:34:01.634,0.167,-0.105,1.007
2026/05/14 10:34:01.652,0.201,-0.117,1.025
2026/05/14 10:34:01.671,0.189,-0.122,1.029
2026/05/14 10:34:01.690,0.148,-0.105,0.971
2026/05/14 10:34:01.709,0.148,-0.1,0.972
2026/05/14 10:34:01.727,0.157,-0.107,0.99
2026/05/14 10:34:01.746,0.154,-0.117,0.978
2026/05/14 10:34:01.765,0.154,-0.119,0.981
2026/05/14 10:34:01.783,0.162,-0.123,1.002
2026/05/14 10:34:01.802,0.176,-0.117,1.003
2026/05/14 10:34:01.821,0.159,-0.117,0.982
2026/05/14 10:34:01.840,0.162,-0.104,0.992
2026/05/14 10:34:01.858,0.16,-0.105,1.001
2026/05/14 10:34:01.877,0.164,-0.106,0.998
2026/05/14 10:34:01.896,0.159,-0.105,0.999
2026/05/14 10:34:01.915,0.166,-0.107,0.988
2026/05/14 10:34:01.933,0.14,-0.117,0.952
2026/05/14 10:34:01.952,0.179,-0.113,1.022
2026/05/14 10:34:01.971,0.16,-0.118,0.998
2026/05/14 10:34:01.990,0.156,-0.116,0.987
2026/05/14 10:34:02.008,0.161,-0.124,0.995
2026/05/14 10:34:02.027,0.154,-0.118,0.987
2026/05/14 10:34:02.046,0.156,-0.115,0.989
2026/05/14 10:34:02.065,0.161,-0.108,0.993
2026/05/14 10:34:02.083,0.139,-0.094,0.942
2026/05/14 10:34:02.102,0.153,-0.099,0.975
2026/05/14 10:34:02.121,0.161,-0.097,0.989
2026/05/14 10:34:02.140,0.148,-0.114,1.011
2026/05/14 10:34:02.158,0.151,-0.101,0.959
2026/05/14 10:34:02.177,0.144,-0.091,0.99
2026/05/14 10:34:02.196,0.176,-0.107,1.005
2026/05/14 10:34:02.215,0.149,-0.116,0.952
2026/05/14 10:34:02.233,0.171,-0.102,1.019
2026/05/14 10:34:02.252,0.172,-0.129,1.034
2026/05/14 10:34:02.271,0.157,-0.125,1.0
2026/05/14 10:34:02.290,0.15,-0.118,0.987
2026/05/14 10:34:02.308,0.168,-0.109,1.004
2026/05/14 10:34:02.327,0.163,-0.105,0.99
2026/05/14 10:34:02.346,0.167,-0.093,0.992
2026/05/14 10:34:02.364,0.166,-0.1,0.986
2026/05/14 10:34:02.383,0.165,-0.101,0.994
2026/05/14 10:34:02.402,0.16,-0.107,0.988
2026/05/14 10:34:02.421,0.154,-0.11,0.989
2026/05/14 10:34:02.439,0.157,-0.111,0.992
2026/05/14 10:34:02.458,0.158,-0.115,0.994
2026/05/14 10:34:02.477,0.153,-0.12,0.994
2026/05/14 10:34:02.496,0.158,-0.125,0.99
2026/05/14 10:34:02.514,0.162,-0.119,0.995
2026/05/14 10:34:02.533,0.163,-0.12,0.993
2026/05/14 10:34:02.552,0.16,-0.107,0.993
2026/05/14 10:34:02.571,0.159,-0.103,0.993
2026/05/14 10:34:02.589,0.159,-0.102,0.993
2026/05/14 10:34:02.608,0.163,-0.099,0.995
2026/05/14 10:34:02.627,0.163,-0.099,0.988
2026/05/14 10:34:02.646,0.164,-0.107,0.992
2026/05/14 10:34:02.664,0.164,-0.108,0.993
2026/05/14 10:34:02.683,0.164,-0.107,0.992
2026/05/14 10:34:02.702,0.157,-0.118,0.988
2026/05/14 10:34:02.721,0.157,-0.119,0.991
2026/05/14 10:34:02.739,0.157,-0.118,0.994
2026/05/14 10:34:02.758,0.163,-0.117,0.992
2026/05/14 10:34:02.777,0.159,-0.115,0.991
2026/05/14 10:34:02.795,0.158,-0.113,0.992
2026/05/14 10:34:02.814,0.163,-0.109,0.993
2026/05/14 10:34:02.833,0.163,-0.106,0.988
2026/05/14 10:34:02.852,0.165,-0.106,0.993
2026/05/14 10:34:02.870,0.163,-0.101,0.994
2026/05/14 10:34:02.889,0.157,-0.104,0.987
2026/05/14 10:34:02.908,0.161,-0.109,0.99
2026/05/14 10:34:02.927,0.155,-0.113,0.993
2026/05/14 10:34:02.945,0.155,-0.117,0.989
2026/05/14 10:34:02.964,0.159,-0.122,0.996
2026/05/14 10:34:02.983,0.158,-0.116,0.993
2026/05/14 10:34:03.002,0.158,-0.114,0.994
2026/05/14 10:34:03.020,0.158,-0.11,0.995
2026/05/14 10:34:03.039,0.159,-0.11,0.991
2026/05/14 10:34:03.058,0.16,-0.108,0.996
2026/05/14 10:34:03.077,0.161,-0.106,0.989
2026/05/14 10:34:03.095,0.164,-0.104,0.992
2026/05/14 10:34:03.114,0.167,-0.106,0.992
2026/05/14 10:34:03.133,0.163,-0.106,0.991
2026/05/14 10:34:03.152,0.161,-0.109,0.993
2026/05/14 10:34:03.170,0.156,-0.109,0.994
2026/05/14 10:34:03.189,0.16,-0.12,0.995
2026/05/14 10:34:03.208,0.158,-0.122,0.99
2026/05/14 10:34:03.227,0.156,-0.119,0.989
2026/05/14 10:34:03.245,0.158,-0.115,0.993
2026/05/14 10:34:03.264,0.16,-0.113,0.994
2026/05/14 10:34:03.283,0.161,-0.11,0.994
2026/05/14 10:34:03.301,0.165,-0.11,0.995
2026/05/14 10:34:03.320,0.162,-0.105,0.995
2026/05/14 10:34:03.339,0.157,-0.108,0.994
2026/05/14 10:34:03.358,0.16,-0.103,0.993
2026/05/14 10:34:03.376,0.161,-0.11,0.992
2026/05/14 10:34:03.395,0.159,-0.108,0.99
2026/05/14 10:34:03.414,0.16,-0.117,0.994
2026/05/14 10:34:03.433,0.155,-0.118,0.988
2026/05/14 10:34:03.451,0.156,-0.116,0.992
2026/05/14 10:34:03.470,0.155,-0.116,0.99
2026/05/14 10:34:03.489,0.158,-0.114,0.995
2026/05/14 10:34:03.508,0.158,-0.115,0.996
2026/05/14 10:34:03.526,0.157,-0.114,0.996
2026/05/14 10:34:03.545,0.16,-0.109,0.996
2026/05/14 10:34:03.564,0.162,-0.11,0.993
2026/05/14 10:34:03.583,0.158,-0.104,0.995
2026/05/14 10:34:03.601,0.158,-0.107,0.993
2026/05/14 10:34:03.620,0.155,-0.106,0.989
2026/05/14 10:34:03.639,0.159,-0.111,0.995
2026/05/14 10:34:03.658,0.157,-0.113,0.988
2026/05/14 10:34:03.676,0.16,-0.114,0.993
2026/05/14 10:34:03.695,0.158,-0.115,0.994
2026/05/14 10:34:03.714,0.156,-0.116,0.992
2026/05/14 10:34:03.733,0.159,-0.114,0.994
2026/05/14 10:34:03.751,0.162,-0.111,0.988
2026/05/14 10:34:03.770,0.163,-0.11,0.992
2026/05/14 10:34:03.789,0.157,-0.107,0.992
2026/05/14 10:34:03.807,0.161,-0.107,0.991
2026/05/14 10:34:03.826,0.159,-0.111,0.989
2026/05/14 10:34:03.845,0.157,-0.108,0.99
2026/05/14 10:34:03.864,0.158,-0.108,0.994
2026/05/14 10:34:03.882,0.162,-0.114,0.991
2026/05/14 10:34:03.901,0.158,-0.113,0.993
2026/05/14 10:34:03.920,0.159,-0.116,0.99
2026/05/14 10:34:03.939,0.16,-0.117,0.996
2026/05/14 10:34:03.957,0.156,-0.113,0.993
2026/05/14 10:34:03.976,0.161,-0.115,0.991
2026/05/14 10:34:03.995,0.157,-0.111,0.99
2026/05/14 10:34:04.014,0.166,-0.108,0.997
2026/05/14 10:34:04.032,0.165,-0.106,0.994
2026/05/14 10:34:04.051,0.159,-0.105,0.991
2026/05/14 10:34:04.070,0.161,-0.107,0.991
2026/05/14 10:34:04.089,0.163,-0.107,0.995
2026/05/14 10:34:04.107,0.162,-0.107,0.99
2026/05/14 10:34:04.126,0.16,-0.114,0.994
2026/05/14 10:34:04.145,0.16,-0.117,0.991
2026/05/14 10:34:04.164,0.158,-0.112,0.991
2026/05/14 10:34:04.182,0.156,-0.109,0.991
2026/05/14 10:34:04.201,0.164,-0.117,0.996
2026/05/14 10:34:04.220,0.159,-0.113,0.99
2026/05/14 10:34:04.239,0.157,-0.109,0.989
2026/05/14 10:34:04.257,0.162,-0.109,0.989
2026/05/14 10:34:04.276,0.16,-0.107,0.987
2026/05/14 10:34:04.295,0.159,-0.108,0.993
2026/05/14 10:34:04.313,0.162,-0.11,0.991
2026/05/14 10:34:04.332,0.161,-0.109,0.993
2026/05/14 10:34:04.351,0.157,-0.107,0.998
2026/05/14 10:34:04.370,0.16,-0.112,0.992
2026/05/14 10:34:04.388,0.162,-0.116,0.991
2026/05/14 10:34:04.407,0.164,-0.111,0.992
2026/05/14 10:34:04.426,0.162,-0.109,0.99
2026/05/14 10:34:04.445,0.157,-0.113,0.991
2026/05/14 10:34:04.463,0.158,-0.112,0.992
2026/05/14 10:34:04.482,0.158,-0.11,0.993
2026/05/14 10:34:04.501,0.161,-0.111,0.989
2026/05/14 10:34:04.520,0.161,-0.107,0.995
2026/05/14 10:34:04.538,0.162,-0.11,0.992
2026/05/14 10:34:04.557,0.162,-0.107,0.989
2026/05/14 10:34:04.576,0.158,-0.111,0.993
2026/05/14 10:34:04.595,0.161,-0.113,0.991
2026/05/14 10:34:04.613,0.159,-0.111,0.992
2026/05/14 10:34:04.632,0.157,-0.115,0.989
2026/05/14 10:34:04.651,0.16,-0.112,0.991
2026/05/14 10:34:04.670,0.159,-0.117,0.995
2026/05/14 10:34:04.688,0.161,-0.113,0.99
2026/05/14 10:34:04.707,0.159,-0.114,0.992
2026/05/14 10:34:04.726,0.161,-0.112,0.994
2026/05/14 10:34:04.745,0.161,-0.111,0.991
2026/05/14 10:34:04.763,0.159,-0.107,0.995
2026/05/14 10:34:04.782,0.164,-0.108,0.993
2026/05/14 10:34:04.801,0.161,-0.111,0.992
2026/05/14 10:34:04.820,0.159,-0.113,0.993
2026/05/14 10:34:04.838,0.159,-0.107,0.99
2026/05/14 10:34:04.857,0.158,-0.116,0.995
2026/05/14 10:34:04.876,0.163,-0.11,0.992
2026/05/14 10:34:04.894,0.162,-0.115,0.99
2026/05/14 10:34:04.913,0.158,-0.116,0.986
2026/05/14 10:34:04.932,0.161,-0.114,0.996
2026/05/14 10:34:04.951,0.159,-0.117,0.994
2026/05/14 10:34:04.969,0.164,-0.109,0.991
2026/05/14 10:34:04.988,0.157,-0.11,0.991
2026/05/14 10:34:05.007,0.158,-0.109,0.993
2026/05/14 10:34:05.026,0.163,-0.107,0.994
2026/05/14 10:34:05.044,0.163,-0.107,0.991
2026/05/14 10:34:05.063,0.159,-0.105,0.99
2026/05/14 10:34:05.082,0.158,-0.116,0.991
2026/05/14 10:34:05.101,0.163,-0.112,0.993
2026/05/14 10:34:05.119,0.157,-0.114,0.988
2026/05/14 10:34:05.138,0.161,-0.115,0.994
2026/05/14 10:34:05.157,0.159,-0.11,0.99
2026/05/14 10:34:05.176,0.158,-0.114,0.987
2026/05/14 10:34:05.194,0.16,-0.115,0.99
2026/05/14 10:34:05.213,0.16,-0.114,0.992
2026/05/14 10:34:05.232,0.161,-0.109,0.99
2026/05/14 10:34:05.251,0.159,-0.106,0.993
2026/05/14 10:34:05.269,0.159,-0.11,0.987
2026/05/14 10:34:05.288,0.155,-0.107,0.997
2026/05/14 10:34:05.307,0.16,-0.112,0.987
2026/05/14 10:34:05.326,0.163,-0.109,0.988
2026/05/14 10:34:05.344,0.16,-0.116,0.993
2026/05/14 10:34:05.363,0.162,-0.107,0.993
2026/05/14 10:34:05.382,0.155,-0.114,0.992
2026/05/14 10:34:05.401,0.158,-0.115,0.992
2026/05/14 10:34:05.419,0.16,-0.112,0.995
2026/05/14 10:34:05.438,0.161,-0.112,0.994
2026/05/14 10:34:05.457,0.161,-0.109,0.99
2026/05/14 10:34:05.475,0.161,-0.112,0.989
2026/05/14 10:34:05.494,0.161,-0.109,0.993
2026/05/14 10:34:05.513,0.164,-0.108,0.996
2026/05/14 10:34:05.532,0.165,-0.114,0.991
2026/05/14 10:34:05.550,0.159,-0.11,0.991
2026/05/14 10:34:05.569,0.158,-0.11,0.995
2026/05/14 10:34:05.588,0.158,-0.114,0.994
2026/05/14 10:34:05.607,0.158,-0.109,0.992
2026/05/14 10:34:05.625,0.16,-0.113,0.994
2026/05/14 10:34:05.644,0.159,-0.114,0.991
2026/05/14 10:34:05.663,0.159,-0.108,0.994
2026/05/14 10:34:05.682,0.165,-0.113,0.992
2026/05/14 10:34:05.700,0.162,-0.108,0.99
2026/05/14 10:34:05.719,0.164,-0.11,0.989
2026/05/14 10:34:05.738,0.162,-0.108,0.989
2026/05/14 10:34:05.757,0.158,-0.109,0.99
2026/05/14 10:34:05.775,0.16,-0.108,0.994
2026/05/14 10:34:05.794,0.164,-0.111,0.991
2026/05/14 10:34:05.813,0.156,-0.11,0.991
2026/05/14 10:34:05.832,0.158,-0.109,0.99
2026/05/14 10:34:05.850,0.161,-0.114,0.989
2026/05/14 10:34:05.869,0.159,-0.111,0.992
2026/05/14 10:34:05.888,0.16,-0.115,0.993
2026/05/14 10:34:05.907,0.163,-0.112,0.992
2026/05/14 10:34:05.925,0.162,-0.11,0.998
2026/05/14 10:34:05.944,0.161,-0.112,0.993
2026/05/14 10:34:05.963,0.161,-0.112,0.994
2026/05/14 10:34:05.981,0.162,-0.108,0.995
2026/05/14 10:34:06.000,0.161,-0.112,0.99
2026/05/14 10:34:06.019,0.159,-0.111,0.992
2026/05/14 10:34:06.038,0.158,-0.11,0.992
2026/05/14 10:34:06.056,0.158,-0.108,0.99
2026/05/14 10:34:06.075,0.158,-0.112,0.995
2026/05/14 10:34:06.094,0.16,-0.112,0.994
2026/05/14 10:34:06.113,0.164,-0.113,0.993
2026/05/14 10:34:06.131,0.161,-0.114,0.989
2026/05/14 10:34:06.150,0.159,-0.114,0.994
2026/05/14 10:34:06.169,0.16,-0.111,0.993
2026/05/14 10:34:06.188,0.159,-0.109,0.992
2026/05/14 10:34:06.206,0.161,-0.108,0.996
2026/05/14 10:34:06.225,0.158,-0.105,0.994
2026/05/14 10:34:06.244,0.161,-0.112,0.994
2026/05/14 10:34:06.263,0.164,-0.113,0.99
2026/05/14 10:34:06.281,0.16,-0.109,0.993
2026/05/14 10:34:06.300,0.16,-0.114,0.994
2026/05/14 10:34:06.319,0.162,-0.111,0.991
2026/05/14 10:34:06.338,0.161,-0.113,0.99
2026/05/14 10:34:06.356,0.157,-0.114,0.993
2026/05/14 10:34:06.375,0.162,-0.109,0.994
2026/05/14 10:34:06.394,0.161,-0.114,0.993
2026/05/14 10:34:06.413,0.157,-0.11,0.993
2026/05/14 10:34:06.431,0.159,-0.111,0.992
2026/05/14 10:34:06.450,0.158,-0.107,0.991
2026/05/14 10:34:06.469,0.16,-0.112,0.991
2026/05/14 10:34:06.488,0.159,-0.108,0.993
2026/05/14 10:34:06.506,0.159,-0.113,0.996
2026/05/14 10:34:06.525,0.16,-0.113,0.99
2026/05/14 10:34:06.544,0.16,-0.113,0.993
2026/05/14 10:34:06.562,0.159,-0.113,0.992
2026/05/14 10:34:06.581,0.157,-0.11,0.992
2026/05/14 10:34:06.600,0.16,-0.117,0.993
2026/05/14 10:34:06.619,0.159,-0.113,0.992
2026/05/14 10:34:06.637,0.16,-0.111,0.994
2026/05/14 10:34:06.656,0.16,-0.114,0.995
2026/05/14 10:34:06.675,0.16,-0.111,0.991
2026/05/14 10:34:06.694,0.159,-0.11,0.991
2026/05/14 10:34:06.712,0.164,-0.111,0.995
2026/05/14 10:34:06.731,0.162,-0.107,0.988
2026/05/14 10:34:06.750,0.159,-0.11,0.993
2026/05/14 10:34:06.769,0.159,-0.111,0.987
2026/05/14 10:34:06.787,0.155,-0.109,0.993
2026/05/14 10:34:06.806,0.158,-0.113,0.993
2026/05/14 10:34:06.825,0.161,-0.111,0.996
2026/05/14 10:34:06.844,0.159,-0.111,0.994
2026/05/14 10:34:06.862,0.158,-0.112,0.991
2026/05/14 10:34:06.881,0.161,-0.112,0.991
2026/05/14 10:34:06.900,0.164,-0.11,0.994
2026/05/14 10:34:06.919,0.16,-0.115,0.997
2026/05/14 10:34:06.937,0.164,-0.113,0.992
2026/05/14 10:34:06.956,0.161,-0.111,0.995
2026/05/14 10:34:06.975,0.16,-0.109,0.994
2026/05/14 10:34:06.994,0.161,-0.109,0.988
2026/05/14 10:34:07.012,0.159,-0.112,0.993
2026/05/14 10:34:07.031,0.161,-0.112,0.993
2026/05/14 10:34:07.050,0.159,-0.112,0.989
2026/05/14 10:34:07.069,0.158,-0.113,0.992
2026/05/14 10:34:07.087,0.163,-0.112,0.995
2026/05/14 10:34:07.106,0.161,-0.108,0.988
2026/05/14 10:34:07.125,0.164,-0.11,0.995
2026/05/14 10:34:07.143,0.157,-0.112,0.985
2026/05/14 10:34:07.162,0.16,-0.113,0.99
2026/05/14 10:34:07.181,0.161,-0.11,0.994
2026/05/14 10:34:07.200,0.16,-0.112,0.993
2026/05/14 10:34:07.218,0.156,-0.111,0.992
2026/05/14 10:34:07.237,0.161,-0.11,0.992
2026/05/14 10:34:07.256,0.157,-0.107,0.987
2026/05/14 10:34:07.275,0.158,-0.107,0.99
2026/05/14 10:34:07.293,0.164,-0.114,0.993
2026/05/14 10:34:07.312,0.16,-0.108,0.99
2026/05/14 10:34:07.331,0.16,-0.11,0.995
2026/05/14 10:34:07.350,0.155,-0.117,0.988
2026/05/14 10:34:07.368,0.16,-0.111,0.994
2026/05/14 10:34:07.387,0.16,-0.11,0.989
2026/05/14 10:34:07.406,0.16,-0.114,1.0
2026/05/14 10:34:07.425,0.16,-0.115,0.99
2026/05/14 10:34:07.443,0.159,-0.109,0.992
2026/05/14 10:34:07.462,0.159,-0.111,0.993
2026/05/14 10:34:07.481,0.161,-0.112,0.997
2026/05/14 10:34:07.500,0.159,-0.111,0.996
2026/05/14 10:34:07.518,0.159,-0.109,0.992
2026/05/14 10:34:07.537,0.159,-0.105,0.992
2026/05/14 10:34:07.556,0.162,-0.116,0.993
2026/05/14 10:34:07.575,0.156,-0.115,0.99
2026/05/14 10:34:07.593,0.157,-0.115,0.995
2026/05/14 10:34:07.612,0.16,-0.114,0.991
2026/05/14 10:34:07.631,0.159,-0.113,0.993
2026/05/14 10:34:07.649,0.155,-0.107,0.993
2026/05/14 10:34:07.668,0.159,-0.113,0.993
2026/05/14 10:34:07.687,0.161,-0.112,0.99
2026/05/14 10:34:07.706,0.159,-0.107,0.996
2026/05/14 10:34:07.724,0.157,-0.115,0.993
2026/05/14 10:34:07.743,0.161,-0.114,0.991
2026/05/14 10:34:07.762,0.162,-0.11,0.991
2026/05/14 10:34:07.781,0.157,-0.112,0.99
2026/05/14 10:34:07.799,0.158,-0.112,0.993
2026/05/14 10:34:07.818,0.159,-0.116,0.991
2026/05/14 10:34:07.837,0.161,-0.112,0.995
2026/05/14 10:34:07.856,0.16,-0.112,0.991
2026/05/14 10:34:07.874,0.158,-0.114,0.993
2026/05/14 10:34:07.893,0.156,-0.109,0.992
2026/05/14 10:34:07.912,0.159,-0.111,0.992
2026/05/14 10:34:07.931,0.162,-0.111,0.991
2026/05/14 10:34:07.949,0.162,-0.112,0.99
2026/05/14 10:34:07.968,0.163,-0.105,0.991
2026/05/14 10:34:07.987,0.162,-0.107,0.995
2026/05/14 10:34:08.006,0.157,-0.111,0.993
2026/05/14 10:34:08.024,0.162,-0.117,0.993
2026/05/14 10:34:08.043,0.163,-0.11,0.989
2026/05/14 10:34:08.062,0.161,-0.112,0.99
2026/05/14 10:34:08.081,0.162,-0.111,1.001
2026/05/14 10:34:08.099,0.157,-0.119,0.992
2026/05/14 10:34:08.118,0.156,-0.114,0.992
2026/05/14 10:34:08.137,0.16,-0.114,0.988
2026/05/14 10:34:08.155,0.158,-0.107,0.992
2026/05/14 10:34:08.174,0.157,-0.107,0.991
2026/05/14 10:34:08.193,0.159,-0.107,0.992
2026/05/14 10:34:08.212,0.162,-0.107,0.995
2026/05/14 10:34:08.230,0.159,-0.112,0.996
2026/05/14 10:34:08.249,0.162,-0.11,0.992
2026/05/14 10:34:08.268,0.156,-0.106,0.989
2026/05/14 10:34:08.287,0.158,-0.106,0.995
2026/05/14 10:34:08.305,0.161,-0.112,0.995
2026/05/14 10:34:08.324,0.158,-0.117,0.991
2026/05/14 10:34:08.343,0.159,-0.114,0.994
2026/05/14 10:34:08.362,0.16,-0.114,0.991
2026/05/14 10:34:08.380,0.157,-0.114,0.991
2026/05/14 10:34:08.399,0.157,-0.11,0.987
2026/05/14 10:34:08.418,0.155,-0.11,0.99
2026/05/14 10:34:08.437,0.161,-0.106,0.997
2026/05/14 10:34:08.455,0.159,-0.109,0.994
2026/05/14 10:34:08.474,0.16,-0.107,0.993
2026/05/14 10:34:08.493,0.161,-0.115,0.993
2026/05/14 10:34:08.512,0.161,-0.114,0.991
2026/05/14 10:34:08.530,0.156,-0.109,0.991
2026/05/14 10:34:08.549,0.163,-0.109,0.994
2026/05/14 10:34:08.568,0.153,-0.118,0.994
2026/05/14 10:34:08.587,0.154,-0.115,0.999
2026/05/14 10:34:08.605,0.155,-0.112,0.999
2026/05/14 10:34:08.624,0.164,-0.113,0.991
2026/05/14 10:34:08.643,0.166,-0.112,0.992
2026/05/14 10:34:08.661,0.167,-0.112,0.993
2026/05/14 10:34:08.680,0.161,-0.113,0.995
2026/05/14 10:34:08.699,0.155,-0.112,0.991
2026/05/14 10:34:08.718,0.156,-0.11,0.997
2026/05/14 10:34:08.736,0.158,-0.105,0.993
2026/05/14 10:34:08.755,0.159,-0.104,0.989
2026/05/14 10:34:08.774,0.168,-0.109,0.993
2026/05/14 10:34:08.793,0.164,-0.104,0.997
2026/05/14 10:34:08.811,0.157,-0.113,0.989
2026/05/14 10:34:08.830,0.156,-0.113,0.991
2026/05/14 10:34:08.849,0.155,-0.115,0.993
2026/05/14 10:34:08.868,0.159,-0.111,0.998
2026/05/14 10:34:08.886,0.161,-0.11,0.994
2026/05/14 10:34:08.905,0.163,-0.114,0.991
2026/05/14 10:34:08.924,0.158,-0.114,0.992
2026/05/14 10:34:08.943,0.162,-0.112,0.99
2026/05/14 10:34:08.961,0.162,-0.105,0.989
2026/05/14 10:34:08.980,0.161,-0.107,0.992
2026/05/14 10:34:08.999,0.163,-0.109,0.993
2026/05/14 10:34:09.018,0.162,-0.111,0.988
2026/05/14 10:34:09.036,0.158,-0.113,0.993
2026/05/14 10:34:09.055,0.158,-0.114,0.994
2026/05/14 10:34:09.074,0.16,-0.111,0.997
2026/05/14 10:34:09.093,0.155,-0.111,0.992
2026/05/14 10:34:09.111,0.161,-0.114,0.989
2026/05/14 10:34:09.130,0.159,-0.114,0.993
2026/05/14 10:34:09.149,0.161,-0.119,0.994
2026/05/14 10:34:09.167,0.161,-0.112,0.993
2026/05/14 10:34:09.186,0.158,-0.112,0.993
2026/05/14 10:34:09.205,0.159,-0.109,0.991
2026/05/14 10:34:09.224,0.162,-0.118,0.992
2026/05/14 10:34:09.242,0.162,-0.115,0.994
2026/05/14 10:34:09.261,0.16,-0.104,0.991
2026/05/14 10:34:09.280,0.154,-0.104,0.99
2026/05/14 10:34:09.299,0.154,-0.105,0.994
2026/05/14 10:34:09.317,0.159,-0.104,0.994
2026/05/14 10:34:09.336,0.16,-0.108,0.992
2026/05/14 10:34:09.355,0.161,-0.112,0.994
2026/05/14 10:34:09.374,0.165,-0.112,0.996
2026/05/14 10:34:09.392,0.167,-0.11,0.994
2026/05/14 10:34:09.411,0.164,-0.112,0.989
2026/05/14 10:34:09.430,0.159,-0.111,0.992
2026/05/14 10:34:09.449,0.155,-0.115,0.992
2026/05/14 10:34:09.467,0.155,-0.114,0.991
2026/05/14 10:34:09.486,0.154,-0.113,0.994
2026/05/14 10:34:09.505,0.161,-0.11,0.993
2026/05/14 10:34:09.524,0.165,-0.113,0.991
2026/05/14 10:34:09.542,0.163,-0.107,0.988
2026/05/14 10:34:09.561,0.161,-0.105,0.989
2026/05/14 10:34:09.580,0.16,-0.111,0.992
2026/05/14 10:34:09.599,0.158,-0.109,1.012
2026/05/14 10:34:09.617,0.156,-0.11,1.002
2026/05/14 10:34:09.636,0.154,-0.114,0.986
2026/05/14 10:34:09.655,0.165,-0.115,0.991
2026/05/14 10:34:09.674,0.162,-0.12,0.998
2026/05/14 10:34:09.692,0.156,-0.115,0.99
2026/05/14 10:34:09.711,0.154,-0.119,0.989
2026/05/14 10:34:09.730,0.159,-0.11,0.995
2026/05/14 10:34:09.749,0.163,-0.107,0.994
2026/05/14 10:34:09.767,0.16,-0.107,0.985
2026/05/14 10:34:09.786,0.163,-0.104,0.992
2026/05/14 10:34:09.805,0.165,-0.111,0.995
2026/05/14 10:34:09.823,0.16,-0.108,0.99
2026/05/14 10:34:09.842,0.154,-0.106,0.991
2026/05/14 10:34:09.861,0.158,-0.11,0.993
2026/05/14 10:34:09.880,0.16,-0.117,0.997
2026/05/14 10:34:09.898,0.162,-0.116,0.984
2026/05/14 10:34:09.917,0.162,-0.114,0.991
2026/05/14 10:34:09.936,0.16,-0.113,0.989
2026/05/14 10:34:09.955,0.164,-0.115,0.993
2026/05/14 10:34:09.973,0.156,-0.11,0.99
2026/05/14 10:34:09.992,0.155,-0.11,0.993
2026/05/14 10:34:10.011,0.163,-0.111,0.995
2026/05/14 10:34:10.030,0.162,-0.108,0.996
2026/05/14 10:34:10.048,0.162,-0.104,0.995
2026/05/14 10:34:10.067,0.162,-0.108,0.99
2026/05/14 10:34:10.086,0.166,-0.109,0.99
2026/05/14 10:34:10.105,0.161,-0.111,0.994
2026/05/14 10:34:10.123,0.154,-0.109,0.989
2026/05/14 10:34:10.142,0.159,-0.11,0.992
2026/05/14 10:34:10.161,0.159,-0.112,0.994
2026/05/14 10:34:10.180,0.159,-0.114,0.995
2026/05/14 10:34:10.198,0.158,-0.115,0.98
2026/05/14 10:34:10.217,0.16,-0.113,0.993
2026/05/14 10:34:10.236,0.166,-0.107,0.997
2026/05/14 10:34:10.255,0.163,-0.109,0.99
2026/05/14 10:34:10.273,0.154,-0.108,0.99
2026/05/14 10:34:10.292,0.158,-0.111,0.989
2026/05/14 10:34:10.311,0.163,-0.107,0.993
2026/05/14 10:34:10.330,0.157,-0.11,0.989
2026/05/14 10:34:10.348,0.161,-0.11,0.993
2026/05/14 10:34:10.367,0.162,-0.112,0.992
2026/05/14 10:34:10.386,0.162,-0.108,0.995
2026/05/14 10:34:10.404,0.16,-0.112,0.989
2026/05/14 10:34:10.423,0.154,-0.111,0.991
2026/05/14 10:34:10.442,0.158,-0.111,0.989
2026/05/14 10:34:10.461,0.16,-0.112,0.994
2026/05/14 10:34:10.479,0.155,-0.109,0.992
2026/05/14 10:34:10.498,0.158,-0.112,0.991
2026/05/14 10:34:10.517,0.155,-0.112,0.992
2026/05/14 10:34:10.536,0.16,-0.107,0.992
2026/05/14 10:34:10.554,0.16,-0.11,0.99
2026/05/14 10:34:10.573,0.159,-0.106,0.99
2026/05/14 10:34:10.592,0.158,-0.107,0.99
2026/05/14 10:34:10.611,0.156,-0.111,0.996
2026/05/14 10:34:10.629,0.158,-0.112,0.993
2026/05/14 10:34:10.648,0.16,-0.109,0.995
2026/05/14 10:34:10.667,0.162,-0.114,0.99
2026/05/14 10:34:10.686,0.162,-0.109,0.989
2026/05/14 10:34:10.704,0.163,-0.114,0.992
2026/05/14 10:34:10.723,0.161,-0.113,0.993
2026/05/14 10:34:10.742,0.156,-0.11,0.992
2026/05/14 10:34:10.761,0.156,-0.111,0.997
2026/05/14 10:34:10.779,0.162,-0.107,0.989
2026/05/14 10:34:10.798,0.166,-0.106,0.99
2026/05/14 10:34:10.817,0.164,-0.107,0.995
2026/05/14 10:34:10.836,0.16,-0.111,0.993
2026/05/14 10:34:10.854,0.156,-0.111,0.991
2026/05/14 10:34:10.873,0.154,-0.116,0.994
2026/05/14 10:34:10.892,0.159,-0.111,0.994
2026/05/14 10:34:10.911,0.162,-0.119,0.993
2026/05/14 10:34:10.929,0.161,-0.111,0.985
2026/05/14 10:34:10.948,0.159,-0.112,0.991
2026/05/14 10:34:10.967,0.157,-0.109,0.99
2026/05/14 10:34:10.985,0.157,-0.115,0.994
2026/05/14 10:34:11.004,0.157,-0.117,0.994
2026/05/14 10:34:11.023,0.155,-0.111,0.992
2026/05/14 10:34:11.042,0.16,-0.108,0.994
2026/05/14 10:34:11.060,0.162,-0.108,0.998
2026/05/14 10:34:11.079,0.163,-0.109,0.991
2026/05/14 10:34:11.098,0.159,-0.109,0.989
2026/05/14 10:34:11.117,0.157,-0.112,0.996
2026/05/14 10:34:11.135,0.163,-0.115,0.995
2026/05/14 10:34:11.154,0.163,-0.113,0.996
2026/05/14 10:34:11.173,0.159,-0.116,0.987
2026/05/14 10:34:11.192,0.157,-0.111,0.994
2026/05/14 10:34:11.210,0.154,-0.116,0.99
2026/05/14 10:34:11.229,0.157,-0.114,0.993
2026/05/14 10:34:11.248,0.161,-0.108,0.99
2026/05/14 10:34:11.267,0.162,-0.104,0.99
2026/05/14 10:34:11.285,0.165,-0.111,0.992
2026/05/14 10:34:11.304,0.166,-0.108,0.993
2026/05/14 10:34:11.323,0.156,-0.111,0.991
2026/05/14 10:34:11.342,0.155,-0.114,0.991
2026/05/14 10:34:11.360,0.156,-0.116,0.994
2026/05/14 10:34:11.379,0.158,-0.113,0.993
2026/05/14 10:34:11.398,0.153,-0.115,0.991
2026/05/14 10:34:11.417,0.16,-0.113,0.993
2026/05/14 10:34:11.435,0.164,-0.113,0.991
2026/05/14 10:34:11.454,0.165,-0.112,0.99
2026/05/14 10:34:11.473,0.158,-0.109,0.991
2026/05/14 10:34:11.492,0.157,-0.107,0.99
2026/05/14 10:34:11.510,0.157,-0.113,0.992
2026/05/14 10:34:11.529,0.159,-0.112,0.996
2026/05/14 10:34:11.548,0.158,-0.112,0.992
2026/05/14 10:34:11.567,0.164,-0.11,0.989
2026/05/14 10:34:11.585,0.165,-0.113,0.997
2026/05/14 10:34:11.604,0.163,-0.111,0.99
2026/05/14 10:34:11.623,0.158,-0.113,0.985
2026/05/14 10:34:11.641,0.158,-0.109,0.988
2026/05/14 10:34:11.660,0.156,-0.114,0.988
2026/05/14 10:34:11.679,0.159,-0.116,0.987
2026/05/14 10:34:11.698,0.163,-0.111,0.995
2026/05/14 10:34:11.716,0.16,-0.112,0.994
2026/05/14 10:34:11.735,0.159,-0.112,0.991
2026/05/14 10:34:11.754,0.162,-0.111,0.993
2026/05/14 10:34:11.773,0.159,-0.107,0.993
2026/05/14 10:34:11.791,0.16,-0.112,0.989
2026/05/14 10:34:11.810,0.159,-0.111,0.991
2026/05/14 10:34:11.829,0.158,-0.111,0.996
2026/05/14 10:34:11.848,0.156,-0.115,0.995
2026/05/14 10:34:11.866,0.155,-0.112,0.991
2026/05/14 10:34:11.885,0.159,-0.116,0.988
2026/05/14 10:34:11.904,0.16,-0.116,0.995
2026/05/14 10:34:11.923,0.163,-0.114,0.995
2026/05/14 10:34:11.941,0.159,-0.109,0.993
2026/05/14 10:34:11.960,0.156,-0.109,0.991
2026/05/14 10:34:11.979,0.158,-0.111,0.997
2026/05/14 10:34:11.998,0.154,-0.107,0.991
2026/05/14 10:34:12.016,0.156,-0.11,0.991
2026/05/14 10:34:12.035,0.164,-0.107,0.992
2026/05/14 10:34:12.054,0.165,-0.107,0.993
2026/05/14 10:34:12.073,0.163,-0.11,0.996
2026/05/14 10:34:12.091,0.155,-0.108,0.987
2026/05/14 10:34:12.110,0.16,-0.111,0.979
2026/05/14 10:34:12.129,0.165,-0.115,0.991
2026/05/14 10:34:12.148,0.161,-0.118,0.99
2026/05/14 10:34:12.166,0.163,-0.115,0.997
2026/05/14 10:34:12.185,0.157,-0.114,0.995
2026/05/14 10:34:12.204,0.157,-0.113,0.994
2026/05/14 10:34:12.222,0.158,-0.113,0.989
2026/05/14 10:34:12.241,0.163,-0.113,0.992
2026/05/14 10:34:12.260,0.166,-0.107,0.99
2026/05/14 10:34:12.279,0.163,-0.107,0.992
2026/05/14 10:34:12.297,0.163,-0.104,0.995
2026/05/14 10:34:12.316,0.156,-0.105,0.999
2026/05/14 10:34:12.335,0.154,-0.11,0.997
2026/05/14 10:34:12.354,0.164,-0.114,0.99
2026/05/14 10:34:12.372,0.165,-0.115,0.996
2026/05/14 10:34:12.391,0.169,-0.111,0.993
2026/05/14 10:34:12.410,0.161,-0.116,0.993
2026/05/14 10:34:12.429,0.152,-0.115,0.996
2026/05/14 10:34:12.447,0.15,-0.119,0.994
2026/05/14 10:34:12.466,0.155,-0.117,0.991
2026/05/14 10:34:12.485,0.158,-0.109,0.985
2026/05/14 10:34:12.504,0.161,-0.106,0.995
2026/05/14 10:34:12.522,0.171,-0.105,0.99
2026/05/14 10:34:12.541,0.168,-0.101,0.994
2026/05/14 10:34:12.560,0.16,-0.108,0.99
2026/05/14 10:34:12.579,0.155,-0.108,0.994
2026/05/14 10:34:12.597,0.155,-0.111,0.995
2026/05/14 10:34:12.616,0.155,-0.114,0.993
2026/05/14 10:34:12.635,0.161,-0.113,0.992
2026/05/14 10:34:12.654,0.162,-0.114,0.992
2026/05/14 10:34:12.672,0.16,-0.115,0.993
2026/05/14 10:34:12.691,0.16,-0.119,0.988
2026/05/14 10:34:12.710,0.159,-0.115,0.993
2026/05/14 10:34:12.729,0.163,-0.115,0.991
2026/05/14 10:34:12.747,0.16,-0.112,0.998
2026/05/14 10:34:12.766,0.158,-0.105,0.992
2026/05/14 10:34:12.785,0.16,-0.106,0.992
2026/05/14 10:34:12.804,0.159,-0.112,0.995
2026/05/14 10:34:12.822,0.157,-0.106,0.99
2026/05/14 10:34:12.841,0.165,-0.111,0.993
2026/05/14 10:34:12.860,0.162,-0.113,0.995
2026/05/14 10:34:12.878,0.161,-0.114,0.997
2026/05/14 10:34:12.897,0.161,-0.114,0.986
2026/05/14 10:34:12.916,0.156,-0.116,0.991
2026/05/14 10:34:12.935,0.158,-0.116,0.99
2026/05/14 10:34:12.953,0.157,-0.11,0.993
2026/05/14 10:34:12.972,0.161,-0.108,0.991
2026/05/14 10:34:12.991,0.162,-0.107,0.991
2026/05/14 10:34:13.010,0.163,-0.109,0.994
2026/05/14 10:34:13.028,0.162,-0.105,0.992
2026/05/14 10:34:13.047,0.161,-0.105,0.994
2026/05/14 10:34:13.066,0.157,-0.111,1.0
2026/05/14 10:34:13.085,0.157,-0.111,0.994
2026/05/14 10:34:13.103,0.161,-0.11,0.992
2026/05/14 10:34:13.122,0.155,-0.113,0.994
2026/05/14 10:34:13.141,0.162,-0.116,0.986
2026/05/14 10:34:13.160,0.161,-0.113,0.995
2026/05/14 10:34:13.178,0.161,-0.117,0.992
2026/05/14 10:34:13.197,0.157,-0.113,0.991
2026/05/14 10:34:13.216,0.155,-0.113,0.995
2026/05/14 10:34:13.235,0.158,-0.114,0.991
2026/05/14 10:34:13.253,0.158,-0.109,0.993
2026/05/14 10:34:13.272,0.158,-0.108,0.993
2026/05/14 10:34:13.291,0.166,-0.108,0.994
2026/05/14 10:34:13.310,0.161,-0.105,0.992
2026/05/14 10:34:13.328,0.162,-0.106,0.995
2026/05/14 10:34:13.347,0.16,-0.111,0.991
2026/05/14 10:34:13.366,0.158,-0.111,0.99
2026/05/14 10:34:13.385,0.162,-0.114,0.989
2026/05/14 10:34:13.403,0.159,-0.113,0.995
2026/05/14 10:34:13.422,0.157,-0.115,0.995
2026/05/14 10:34:13.441,0.158,-0.117,0.995
2026/05/14 10:34:13.460,0.161,-0.114,0.993
2026/05/14 10:34:13.478,0.159,-0.111,0.995
2026/05/14 10:34:13.497,0.157,-0.108,0.993
2026/05/14 10:34:13.516,0.159,-0.113,0.988
2026/05/14 10:34:13.534,0.157,-0.114,0.994
2026/05/14 10:34:13.553,0.161,-0.112,0.992
2026/05/14 10:34:13.572,0.159,-0.11,0.999
2026/05/14 10:34:13.591,0.165,-0.11,0.99
2026/05/14 10:34:13.609,0.161,-0.115,0.992
2026/05/14 10:34:13.628,0.161,-0.113,0.992
2026/05/14 10:34:13.647,0.158,-0.113,0.991
2026/05/14 10:34:13.666,0.161,-0.117,0.993
2026/05/14 10:34:13.684,0.16,-0.111,0.991
2026/05/14 10:34:13.703,0.161,-0.112,0.993
2026/05/14 10:34:13.722,0.16,-0.112,0.994
2026/05/14 10:34:13.741,0.158,-0.112,0.995
2026/05/14 10:34:13.759,0.155,-0.112,0.994
2026/05/14 10:34:13.778,0.158,-0.109,0.992
2026/05/14 10:34:13.797,0.162,-0.108,0.998
2026/05/14 10:34:13.816,0.16,-0.113,0.987
2026/05/14 10:34:13.834,0.162,-0.109,0.99
2026/05/14 10:34:13.853,0.159,-0.114,0.994
2026/05/14 10:34:13.872,0.162,-0.112,0.989
2026/05/14 10:34:13.891,0.158,-0.107,0.992
2026/05/14 10:34:13.909,0.165,-0.11,0.992
2026/05/14 10:34:13.928,0.162,-0.115,0.993
2026/05/14 10:34:13.947,0.159,-0.114,0.988
2026/05/14 10:34:13.966,0.156,-0.112,0.995
2026/05/14 10:34:13.984,0.159,-0.11,0.995
2026/05/14 10:34:14.003,0.161,-0.11,0.994
2026/05/14 10:34:14.022,0.159,-0.115,0.99
2026/05/14 10:34:14.041,0.16,-0.11,0.992
2026/05/14 10:34:14.059,0.159,-0.109,0.991
2026/05/14 10:34:14.078,0.16,-0.106,0.993
2026/05/14 10:34:14.097,0.162,-0.111,0.993
2026/05/14 10:34:14.116,0.163,-0.117,0.993
2026/05/14 10:34:14.134,0.159,-0.112,0.993
2026/05/14 10:34:14.153,0.163,-0.111,0.987
2026/05/14 10:34:14.172,0.158,-0.112,0.993
2026/05/14 10:34:14.190,0.158,-0.112,0.996
2026/05/14 10:34:14.209,0.162,-0.11,0.994
2026/05/14 10:34:14.228,0.157,-0.113,0.991
2026/05/14 10:34:14.247,0.16,-0.109,0.995
2026/05/14 10:34:14.265,0.161,-0.115,0.994
2026/05/14 10:34:14.284,0.156,-0.111,0.994
2026/05/14 10:34:14.303,0.158,-0.109,0.995
2026/05/14 10:34:14.322,0.158,-0.11,0.992
2026/05/14 10:34:14.340,0.158,-0.114,0.993
2026/05/14 10:34:14.359,0.161,-0.115,0.991
2026/05/14 10:34:14.378,0.162,-0.111,0.994
2026/05/14 10:34:14.397,0.158,-0.114,0.99
2026/05/14 10:34:14.415,0.164,-0.117,0.994
2026/05/14 10:34:14.434,0.153,-0.111,0.995
2026/05/14 10:34:14.453,0.154,-0.107,0.993
2026/05/14 10:34:14.472,0.156,-0.109,0.995
2026/05/14 10:34:14.490,0.159,-0.111,0.993
2026/05/14 10:34:14.509,0.162,-0.105,0.991
2026/05/14 10:34:14.528,0.165,-0.108,0.992
2026/05/14 10:34:14.547,0.164,-0.111,0.993
2026/05/14 10:34:14.565,0.164,-0.112,0.994
2026/05/14 10:34:14.584,0.159,-0.114,0.992
2026/05/14 10:34:14.603,0.156,-0.114,0.994
2026/05/14 10:34:14.622,0.152,-0.11,0.993
2026/05/14 10:34:14.640,0.159,-0.114,0.995
2026/05/14 10:34:14.659,0.158,-0.115,0.994
2026/05/14 10:34:14.678,0.163,-0.113,0.995
2026/05/14 10:34:14.697,0.158,-0.111,0.992
2026/05/14 10:34:14.715,0.159,-0.106,0.993
2026/05/14 10:34:14.734,0.159,-0.109,0.99
2026/05/14 10:34:14.753,0.159,-0.109,0.993
2026/05/14 10:34:14.771,0.162,-0.113,0.998
2026/05/14 10:34:14.790,0.166,-0.111,0.99
2026/05/14 10:34:14.809,0.16,-0.113,0.99
2026/05/14 10:34:14.828,0.161,-0.113,0.991
2026/05/14 10:34:14.846,0.16,-0.113,0.994
2026/05/14 10:34:14.865,0.158,-0.115,0.994
2026/05/14 10:34:14.884,0.153,-0.107,0.991
2026/05/14 10:34:14.903,0.157,-0.112,0.995
2026/05/14 10:34:14.921,0.16,-0.109,0.993
2026/05/14 10:34:14.940,0.16,-0.108,0.994
2026/05/14 10:34:14.959,0.162,-0.113,0.99
2026/05/14 10:34:14.978,0.162,-0.108,0.993
2026/05/14 10:34:14.996,0.159,-0.109,0.995
2026/05/14 10:34:15.015,0.161,-0.119,0.99
2026/05/14 10:34:15.034,0.162,-0.119,0.99
2026/05/14 10:34:15.053,0.161,-0.118,0.99
2026/05/14 10:34:15.071,0.152,-0.109,0.993
2026/05/14 10:34:15.090,0.149,-0.113,0.991
2026/05/14 10:34:15.109,0.155,-0.105,0.995
2026/05/14 10:34:15.128,0.164,-0.111,0.997
2026/05/14 10:34:15.146,0.165,-0.109,0.992
2026/05/14 10:34:15.165,0.166,-0.11,0.987
2026/05/14 10:34:15.184,0.169,-0.105,0.994
2026/05/14 10:34:15.203,0.165,-0.107,0.995
2026/05/14 10:34:15.221,0.155,-0.112,0.996
2026/05/14 10:34:15.240,0.154,-0.111,0.994
2026/05/14 10:34:15.259,0.156,-0.116,1.005
2026/05/14 10:34:15.278,0.154,-0.112,0.996
2026/05/14 10:34:15.296,0.155,-0.113,0.988
2026/05/14 10:34:15.315,0.167,-0.113,0.999
2026/05/14 10:34:15.334,0.171,-0.114,0.991
2026/05/14 10:34:15.353,0.169,-0.111,0.99
2026/05/14 10:34:15.371,0.156,-0.114,0.988
2026/05/14 10:34:15.390,0.154,-0.11,0.993
2026/05/14 10:34:15.409,0.15,-0.106,0.993
2026/05/14 10:34:15.427,0.155,-0.107,0.99
2026/05/14 10:34:15.446,0.157,-0.109,0.992
2026/05/14 10:34:15.465,0.165,-0.111,0.99
2026/05/14 10:34:15.484,0.166,-0.11,0.985
2026/05/14 10:34:15.502,0.167,-0.114,0.991
2026/05/14 10:34:15.521,0.163,-0.115,0.995
2026/05/14 10:34:15.540,0.156,-0.11,0.989
2026/05/14 10:34:15.559,0.154,-0.114,0.995
2026/05/14 10:34:15.577,0.149,-0.114,0.993
2026/05/14 10:34:15.596,0.162,-0.113,1.008
2026/05/14 10:34:15.615,0.165,-0.11,0.991
2026/05/14 10:34:15.634,0.166,-0.112,0.987
2026/05/14 10:34:15.652,0.168,-0.111,0.992
2026/05/14 10:34:15.671,0.162,-0.111,0.996
2026/05/14 10:34:15.690,0.156,-0.108,0.989
2026/05/14 10:34:15.709,0.153,-0.11,0.991
2026/05/14 10:34:15.727,0.153,-0.112,0.995
2026/05/14 10:34:15.746,0.159,-0.111,0.992
2026/05/14 10:34:15.765,0.165,-0.111,0.987
2026/05/14 10:34:15.784,0.17,-0.114,0.99
2026/05/14 10:34:15.802,0.168,-0.114,0.992
2026/05/14 10:34:15.821,0.163,-0.113,0.991
2026/05/14 10:34:15.840,0.158,-0.111,0.99
2026/05/14 10:34:15.859,0.155,-0.111,0.996
2026/05/14 10:34:15.877,0.155,-0.11,0.993
2026/05/14 10:34:15.896,0.155,-0.108,0.995
2026/05/14 10:34:15.915,0.16,-0.114,0.983
2026/05/14 10:34:15.934,0.164,-0.109,0.993
2026/05/14 10:34:15.952,0.165,-0.109,0.994
2026/05/14 10:34:15.971,0.165,-0.109,0.992
2026/05/14 10:34:15.990,0.161,-0.109,0.988
2026/05/14 10:34:16.008,0.159,-0.114,0.993
2026/05/14 10:34:16.027,0.154,-0.112,0.994
2026/05/14 10:34:16.046,0.158,-0.109,0.988
2026/05/14 10:34:16.065,0.161,-0.111,0.987
2026/05/14 10:34:16.083,0.169,-0.114,0.991
2026/05/14 10:34:16.102,0.164,-0.11,0.99
2026/05/14 10:34:16.121,0.166,-0.11,0.991
2026/05/14 10:34:16.140,0.158,-0.11,0.995
2026/05/14 10:34:16.158,0.16,-0.111,0.995
2026/05/14 10:34:16.177,0.158,-0.11,0.993
2026/05/14 10:34:16.196,0.158,-0.11,0.989
2026/05/14 10:34:16.215,0.162,-0.112,0.991
2026/05/14 10:34:16.233,0.164,-0.112,0.992
2026/05/14 10:34:16.252,0.167,-0.109,0.987
2026/05/14 10:34:16.271,0.163,-0.112,0.988
2026/05/14 10:34:16.290,0.154,-0.109,0.985
2026/05/14 10:34:16.308,0.157,-0.112,0.994
2026/05/14 10:34:16.327,0.156,-0.11,0.987
2026/05/14 10:34:16.346,0.155,-0.111,0.992
2026/05/14 10:34:16.365,0.161,-0.105,0.994
2026/05/14 10:34:16.383,0.165,-0.112,0.996
2026/05/14 10:34:16.402,0.161,-0.113,0.995
2026/05/14 10:34:16.421,0.161,-0.106,0.992
2026/05/14 10:34:16.440,0.161,-0.111,0.997
2026/05/14 10:34:16.458,0.157,-0.113,0.99
2026/05/14 10:34:16.477,0.159,-0.111,0.993
2026/05/14 10:34:16.496,0.157,-0.111,0.988
2026/05/14 10:34:16.515,0.161,-0.11,0.992
2026/05/14 10:34:16.533,0.162,-0.114,0.997
2026/05/14 10:34:16.552,0.162,-0.115,0.988
2026/05/14 10:34:16.571,0.16,-0.109,0.984
2026/05/14 10:34:16.590,0.156,-0.11,0.989
2026/05/14 10:34:16.608,0.161,-0.107,0.996
2026/05/14 10:34:16.627,0.162,-0.111,0.997
2026/05/14 10:34:16.646,0.157,-0.109,0.994
2026/05/14 10:34:16.664,0.157,-0.112,0.993
2026/05/14 10:34:16.683,0.157,-0.109,0.99
2026/05/14 10:34:16.702,0.157,-0.111,0.992
2026/05/14 10:34:16.721,0.162,-0.113,0.989
2026/05/14 10:34:16.739,0.159,-0.113,0.993
2026/05/14 10:34:16.758,0.155,-0.112,0.994
2026/05/14 10:34:16.777,0.158,-0.109,0.988
2026/05/14 10:34:16.796,0.158,-0.112,0.997
2026/05/14 10:34:16.814,0.158,-0.114,0.989
2026/05/14 10:34:16.833,0.16,-0.113,0.992
2026/05/14 10:34:16.852,0.154,-0.111,0.993
2026/05/14 10:34:16.871,0.16,-0.112,0.988
2026/05/14 10:34:16.889,0.16,-0.109,0.996
2026/05/14 10:34:16.908,0.155,-0.112,0.993
2026/05/14 10:34:16.927,0.158,-0.108,0.997
2026/05/14 10:34:16.946,0.162,-0.112,0.99
2026/05/14 10:34:16.964,0.158,-0.107,0.995
2026/05/14 10:34:16.983,0.159,-0.114,0.994
2026/05/14 10:34:17.002,0.161,-0.111,0.991
2026/05/14 10:34:17.021,0.155,-0.113,0.993
2026/05/14 10:34:17.039,0.162,-0.111,0.993
2026/05/14 10:34:17.058,0.158,-0.114,0.991
2026/05/14 10:34:17.077,0.162,-0.111,0.996
2026/05/14 10:34:17.096,0.156,-0.111,0.995
2026/05/14 10:34:17.114,0.158,-0.112,0.993
2026/05/14 10:34:17.133,0.163,-0.11,0.992
2026/05/14 10:34:17.152,0.158,-0.112,0.991
2026/05/14 10:34:17.171,0.161,-0.11,0.995
2026/05/14 10:34:17.189,0.16,-0.112,0.992
2026/05/14 10:34:17.208,0.158,-0.114,0.994
2026/05/14 10:34:17.227,0.159,-0.115,0.992
2026/05/14 10:34:17.246,0.157,-0.113,0.992
2026/05/14 10:34:17.264,0.16,-0.112,0.995
2026/05/14 10:34:17.283,0.159,-0.115,0.991
2026/05/14 10:34:17.302,0.157,-0.107,0.994
2026/05/14 10:34:17.321,0.16,-0.113,0.991
2026/05/14 10:34:17.339,0.16,-0.109,0.992
2026/05/14 10:34:17.358,0.158,-0.114,0.995
2026/05/14 10:34:17.377,0.161,-0.11,0.993
2026/05/14 10:34:17.395,0.156,-0.11,0.994
2026/05/14 10:34:17.414,0.161,-0.111,0.992
2026/05/14 10:34:17.433,0.158,-0.111,0.995
2026/05/14 10:34:17.452,0.159,-0.111,0.989
2026/05/14 10:34:17.470,0.159,-0.113,0.993
2026/05/14 10:34:17.489,0.159,-0.116,0.991
2026/05/14 10:34:17.508,0.162,-0.112,0.993
2026/05/14 10:34:17.527,0.165,-0.114,0.993
2026/05/14 10:34:17.545,0.159,-0.111,0.993
2026/05/14 10:34:17.564,0.16,-0.111,0.995
2026/05/14 10:34:17.583,0.159,-0.11,0.993
2026/05/14 10:34:17.602,0.158,-0.113,0.993
2026/05/14 10:34:17.620,0.159,-0.111,0.992
2026/05/14 10:34:17.639,0.159,-0.111,0.995
2026/05/14 10:34:17.658,0.158,-0.113,0.991
2026/05/14 10:34:17.677,0.16,-0.11,0.99
2026/05/14 10:34:17.695,0.157,-0.112,0.996
2026/05/14 10:34:17.714,0.161,-0.109,0.992
2026/05/14 10:34:17.733,0.16,-0.115,0.993
2026/05/14 10:34:17.752,0.159,-0.113,0.996
2026/05/14 10:34:17.770,0.161,-0.111,0.995
2026/05/14 10:34:17.789,0.158,-0.112,0.992
2026/05/14 10:34:17.808,0.155,-0.115,0.994
2026/05/14 10:34:17.827,0.158,-0.107,0.989
2026/05/14 10:34:17.845,0.163,-0.113,0.992
2026/05/14 10:34:17.864,0.16,-0.113,0.995
2026/05/14 10:34:17.883,0.163,-0.108,0.996
2026/05/14 10:34:17.902,0.156,-0.114,0.993
2026/05/14 10:34:17.920,0.161,-0.109,0.992
2026/05/14 10:34:17.939,0.16,-0.112,0.99
2026/05/14 10:34:17.958,0.162,-0.114,0.995
2026/05/14 10:34:17.977,0.158,-0.108,0.993
2026/05/14 10:34:17.995,0.158,-0.112,0.994
2026/05/14 10:34:18.014,0.158,-0.113,0.99
2026/05/14 10:34:18.033,0.16,-0.109,0.988
2026/05/14 10:34:18.051,0.159,-0.111,0.993
2026/05/14 10:34:18.070,0.155,-0.111,0.99
2026/05/14 10:34:18.089,0.157,-0.104,0.995
2026/05/14 10:34:18.108,0.157,-0.108,1.002
2026/05/14 10:34:18.126,0.157,-0.103,0.99
2026/05/14 10:34:18.145,0.162,-0.115,0.982
2026/05/14 10:34:18.164,0.167,-0.113,0.985
2026/05/14 10:34:18.183,0.16,-0.114,0.998
2026/05/14 10:34:18.201,0.157,-0.118,0.993
2026/05/14 10:34:18.220,0.159,-0.117,0.993
2026/05/14 10:34:18.239,0.16,-0.117,0.988
2026/05/14 10:34:18.258,0.16,-0.114,0.988
2026/05/14 10:34:18.276,0.159,-0.114,0.989
2026/05/14 10:34:18.295,0.156,-0.109,0.991
2026/05/14 10:34:18.314,0.162,-0.104,0.997
2026/05/14 10:34:18.333,0.155,-0.105,0.993
2026/05/14 10:34:18.351,0.157,-0.111,0.988
2026/05/14 10:34:18.370,0.16,-0.108,0.992
2026/05/14 10:34:18.389,0.164,-0.112,0.991
2026/05/14 10:34:18.408,0.163,-0.118,0.996
2026/05/14 10:34:18.426,0.157,-0.11,0.989
2026/05/14 10:34:18.445,0.161,-0.114,0.992
2026/05/14 10:34:18.464,0.159,-0.11,0.994
2026/05/14 10:34:18.483,0.157,-0.105,0.996
2026/05/14 10:34:18.501,0.156,-0.105,0.992
2026/05/14 10:34:18.520,0.159,-0.113,0.994
2026/05/14 10:34:18.539,0.159,-0.113,0.995
2026/05/14 10:34:18.558,0.162,-0.111,0.989
2026/05/14 10:34:18.576,0.157,-0.112,0.995
2026/05/14 10:34:18.595,0.167,-0.113,0.994
2026/05/14 10:34:18.614,0.16,-0.111,0.994
2026/05/14 10:34:18.633,0.156,-0.114,0.989
2026/05/14 10:34:18.651,0.157,-0.111,0.989
2026/05/14 10:34:18.670,0.155,-0.11,0.993
2026/05/14 10:34:18.689,0.158,-0.108,0.996
2026/05/14 10:34:18.707,0.157,-0.109,0.992
2026/05/14 10:34:18.726,0.164,-0.111,0.99
2026/05/14 10:34:18.745,0.161,-0.113,0.992
2026/05/14 10:34:18.764,0.16,-0.113,0.99
2026/05/14 10:34:18.782,0.163,-0.117,0.994
2026/05/14 10:34:18.801,0.156,-0.111,0.994
2026/05/14 10:34:18.820,0.158,-0.112,0.994
2026/05/14 10:34:18.839,0.156,-0.113,0.993
2026/05/14 10:34:18.857,0.16,-0.114,0.996
2026/05/14 10:34:18.876,0.16,-0.113,0.988
2026/05/14 10:34:18.895,0.163,-0.115,0.987
2026/05/14 10:34:18.914,0.163,-0.106,0.995
2026/05/14 10:34:18.932,0.163,-0.111,0.993
2026/05/14 10:34:18.951,0.162,-0.112,0.993
2026/05/14 10:34:18.970,0.158,-0.115,0.992
2026/05/14 10:34:18.989,0.159,-0.116,0.989
2026/05/14 10:34:19.007,0.159,-0.115,0.992
2026/05/14 10:34:19.026,0.164,-0.114,0.996
2026/05/14 10:34:19.045,0.165,-0.111,0.995
2026/05/14 10:34:19.064,0.162,-0.109,0.989
2026/05/14 10:34:19.082,0.162,-0.116,0.991
2026/05/14 10:34:19.101,0.157,-0.114,0.995
2026/05/14 10:34:19.120,0.161,-0.108,0.998
2026/05/14 10:34:19.139,0.157,-0.109,0.993
2026/05/14 10:34:19.157,0.162,-0.107,0.995
2026/05/14 10:34:19.176,0.165,-0.108,0.995
2026/05/14 10:34:19.195,0.161,-0.111,0.994
2026/05/14 10:34:19.214,0.155,-0.115,0.99
2026/05/14 10:34:19.232,0.157,-0.111,0.986
2026/05/14 10:34:19.251,0.158,-0.109,0.996
2026/05/14 10:34:19.270,0.155,-0.113,0.993
2026/05/14 10:34:19.289,0.155,-0.114,0.989
2026/05/14 10:34:19.307,0.158,-0.115,0.996
2026/05/14 10:34:19.326,0.161,-0.114,0.99
2026/05/14 10:34:19.345,0.163,-0.111,0.99
2026/05/14 10:34:19.363,0.167,-0.107,0.996
2026/05/14 10:34:19.382,0.158,-0.108,0.994
2026/05/14 10:34:19.401,0.16,-0.106,0.992
2026/05/14 10:34:19.420,0.155,-0.111,0.995
2026/05/14 10:34:19.438,0.158,-0.112,0.997
2026/05/14 10:34:19.457,0.16,-0.113,0.995
2026/05/14 10:34:19.476,0.161,-0.11,0.994
2026/05/14 10:34:19.495,0.161,-0.112,0.988
2026/05/14 10:34:19.513,0.159,-0.108,0.988
2026/05/14 10:34:19.532,0.159,-0.11,0.992
2026/05/14 10:34:19.551,0.159,-0.114,0.997
2026/05/14 10:34:19.570,0.157,-0.111,0.992
2026/05/14 10:34:19.588,0.16,-0.109,0.99
2026/05/14 10:34:19.607,0.163,-0.112,0.995
2026/05/14 10:34:19.626,0.165,-0.109,0.989
2026/05/14 10:34:19.645,0.164,-0.111,0.99
2026/05/14 10:34:19.663,0.161,-0.11,0.991
2026/05/14 10:34:19.682,0.158,-0.11,0.992
2026/05/14 10:34:19.701,0.158,-0.11,0.989
2026/05/14 10:34:19.720,0.158,-0.114,0.99
2026/05/14 10:34:19.738,0.158,-0.114,0.993
2026/05/14 10:34:19.757,0.158,-0.113,0.997
2026/05/14 10:34:19.776,0.162,-0.113,0.99
2026/05/14 10:34:19.795,0.162,-0.115,0.993
2026/05/14 10:34:19.813,0.159,-0.108,0.992
2026/05/14 10:34:19.832,0.161,-0.106,0.991
2026/05/14 10:34:19.851,0.158,-0.11,0.991
2026/05/14 10:34:19.870,0.158,-0.111,0.989
2026/05/14 10:34:19.888,0.16,-0.111,0.997
2026/05/14 10:34:19.907,0.162,-0.108,0.997
2026/05/14 10:34:19.926,0.159,-0.111,0.996
2026/05/14 10:34:19.944,0.16,-0.109,0.99
2026/05/14 10:34:19.963,0.161,-0.109,0.991
2026/05/14 10:34:19.982,0.161,-0.116,0.993
2026/05/14 10:34:20.001,0.16,-0.108,0.991
2026/05/14 10:34:20.019,0.16,-0.112,0.993
2026/05/14 10:34:20.038,0.158,-0.113,0.995
2026/05/14 10:34:20.057,0.159,-0.111,0.993
2026/05/14 10:34:20.076,0.159,-0.111,0.988
2026/05/14 10:34:20.094,0.161,-0.111,0.991
2026/05/14 10:34:20.113,0.161,-0.107,0.991
2026/05/14 10:34:20.132,0.159,-0.11,0.992
2026/05/14 10:34:20.151,0.163,-0.111,0.996
2026/05/14 10:34:20.169,0.158,-0.112,0.994
2026/05/14 10:34:20.188,0.163,-0.113,0.994
2026/05/14 10:34:20.207,0.155,-0.111,0.99
2026/05/14 10:34:20.226,0.155,-0.108,0.991
2026/05/14 10:34:20.244,0.162,-0.112,0.99
2026/05/14 10:34:20.263,0.158,-0.115,0.988
2026/05/14 10:34:20.282,0.164,-0.115,0.995
2026/05/14 10:34:20.301,0.164,-0.116,0.997
2026/05/14 10:34:20.319,0.155,-0.114,0.984
2026/05/14 10:34:20.338,0.16,-0.115,0.993
2026/05/14 10:34:20.357,0.161,-0.111,0.998
2026/05/14 10:34:20.376,0.159,-0.106,0.988
2026/05/14 10:34:20.394,0.162,-0.103,0.993
2026/05/14 10:34:20.413,0.161,-0.11,0.995
2026/05/14 10:34:20.432,0.165,-0.108,0.994
2026/05/14 10:34:20.451,0.164,-0.11,0.992
2026/05/14 10:34:20.469,0.156,-0.112,0.989
2026/05/14 10:34:20.488,0.158,-0.11,0.994
2026/05/14 10:34:20.507,0.158,-0.112,0.994
2026/05/14 10:34:20.526,0.152,-0.114,0.994
2026/05/14 10:34:20.544,0.16,-0.114,0.99
2026/05/14 10:34:20.563,0.156,-0.113,0.992
2026/05/14 10:34:20.582,0.165,-0.116,0.992
2026/05/14 10:34:20.600,0.163,-0.111,0.993
2026/05/14 10:34:20.619,0.16,-0.11,0.995
2026/05/14 10:34:20.638,0.162,-0.109,0.99
2026/05/14 10:34:20.657,0.158,-0.109,0.995
2026/05/14 10:34:20.675,0.158,-0.108,0.993
2026/05/14 10:34:20.694,0.159,-0.112,0.99
2026/05/14 10:34:20.713,0.159,-0.113,0.993
2026/05/14 10:34:20.732,0.162,-0.113,0.993
2026/05/14 10:34:20.750,0.158,-0.114,0.99
2026/05/14 10:34:20.769,0.16,-0.118,0.994
2026/05/14 10:34:20.788,0.159,-0.115,0.995
2026/05/14 10:34:20.807,0.159,-0.114,0.993
2026/05/14 10:34:20.825,0.16,-0.111,0.99
2026/05/14 10:34:20.844,0.161,-0.108,0.992
2026/05/14 10:34:20.863,0.162,-0.107,0.989
2026/05/14 10:34:20.882,0.162,-0.106,0.993
2026/05/14 10:34:20.900,0.16,-0.11,0.987
2026/05/14 10:34:20.919,0.159,-0.111,0.993
2026/05/14 10:34:20.938,0.155,-0.11,0.995
2026/05/14 10:34:20.957,0.16,-0.106,0.996
2026/05/14 10:34:20.975,0.158,-0.111,0.991
2026/05/14 10:34:20.994,0.162,-0.114,0.99
2026/05/14 10:34:21.013,0.158,-0.114,0.989
2026/05/14 10:34:21.032,0.158,-0.118,0.993
2026/05/14 10:34:21.050,0.16,-0.108,0.99
2026/05/14 10:34:21.069,0.163,-0.108,0.991
2026/05/14 10:34:21.088,0.159,-0.11,0.989
2026/05/14 10:34:21.107,0.16,-0.108,0.988
2026/05/14 10:34:21.125,0.162,-0.111,0.993
2026/05/14 10:34:21.144,0.166,-0.109,0.992
2026/05/14 10:34:21.163,0.156,-0.107,0.992
2026/05/14 10:34:21.181,0.162,-0.107,0.994
2026/05/14 10:34:21.200,0.162,-0.112,0.988
2026/05/14 10:34:21.219,0.162,-0.112,0.995
2026/05/14 10:34:21.238,0.159,-0.111,0.992
2026/05/14 10:34:21.256,0.158,-0.114,0.995
2026/05/14 10:34:21.275,0.16,-0.113,0.994
2026/05/14 10:34:21.294,0.159,-0.113,0.994
2026/05/14 10:34:21.313,0.16,-0.112,0.989
2026/05/14 10:34:21.331,0.157,-0.109,0.995
2026/05/14 10:34:21.350,0.161,-0.113,0.992
2026/05/14 10:34:21.369,0.162,-0.108,0.989
2026/05/14 10:34:21.388,0.16,-0.108,0.992
2026/05/14 10:34:21.406,0.163,-0.109,0.994
2026/05/14 10:34:21.425,0.158,-0.111,0.994
2026/05/14 10:34:21.444,0.16,-0.108,0.994
2026/05/14 10:34:21.463,0.163,-0.115,0.99
2026/05/14 10:34:21.481,0.162,-0.116,0.994
2026/05/14 10:34:21.500,0.162,-0.114,0.99
2026/05/14 10:34:21.519,0.158,-0.112,0.996
2026/05/14 10:34:21.538,0.16,-0.113,0.993
2026/05/14 10:34:21.556,0.159,-0.113,0.996
2026/05/14 10:34:21.575,0.161,-0.106,0.993
2026/05/14 10:34:21.594,0.157,-0.109,0.995
2026/05/14 10:34:21.613,0.161,-0.108,0.991
2026/05/14 10:34:21.631,0.159,-0.114,0.992
2026/05/14 10:34:21.650,0.16,-0.113,0.996
2026/05/14 10:34:21.669,0.155,-0.112,0.995
2026/05/14 10:34:21.688,0.156,-0.112,0.991
2026/05/14 10:34:21.706,0.158,-0.114,0.99
2026/05/14 10:34:21.725,0.161,-0.116,0.996
2026/05/14 10:34:21.744,0.158,-0.114,0.993
2026/05/14 10:34:21.762,0.158,-0.112,0.989
2026/05/14 10:34:21.781,0.16,-0.109,0.989
2026/05/14 10:34:21.800,0.161,-0.111,0.989
2026/05/14 10:34:21.819,0.158,-0.113,0.994
2026/05/14 10:34:21.837,0.161,-0.109,0.992
2026/05/14 10:34:21.856,0.161,-0.106,0.994
2026/05/14 10:34:21.875,0.158,-0.109,0.993
2026/05/14 10:34:21.894,0.161,-0.107,0.999
2026/05/14 10:34:21.912,0.162,-0.11,0.992
2026/05/14 10:34:21.931,0.16,-0.111,0.994
2026/05/14 10:34:21.950,0.161,-0.11,0.994
2026/05/14 10:34:21.969,0.159,-0.116,0.993
2026/05/14 10:34:21.987,0.159,-0.109,0.996
2026/05/14 10:34:22.006,0.161,-0.114,0.997
2026/05/14 10:34:22.025,0.159,-0.109,0.993
2026/05/14 10:34:22.044,0.16,-0.108,0.991
2026/05/14 10:34:22.062,0.158,-0.111,0.991
2026/05/14 10:34:22.081,0.163,-0.111,0.995
2026/05/14 10:34:22.100,0.16,-0.109,0.994
2026/05/14 10:34:22.119,0.157,-0.106,0.996
2026/05/14 10:34:22.137,0.16,-0.111,0.994
2026/05/14 10:34:22.156,0.156,-0.112,0.993
2026/05/14 10:34:22.175,0.159,-0.109,0.991
2026/05/14 10:34:22.194,0.158,-0.114,0.989
2026/05/14 10:34:22.212,0.157,-0.111,0.99
2026/05/14 10:34:22.231,0.16,-0.109,0.991
2026/05/14 10:34:22.250,0.158,-0.108,0.994
2026/05/14 10:34:22.269,0.163,-0.113,0.991
2026/05/14 10:34:22.287,0.161,-0.114,0.991
2026/05/14 10:34:22.306,0.16,-0.108,0.995
2026/05/14 10:34:22.325,0.159,-0.112,0.991
2026/05/14 10:34:22.344,0.158,-0.111,0.99
2026/05/14 10:34:22.362,0.163,-0.111,0.991
2026/05/14 10:34:22.381,0.162,-0.112,0.991
2026/05/14 10:34:22.400,0.159,-0.109,0.995
2026/05/14 10:34:22.418,0.156,-0.112,0.994
2026/05/14 10:34:22.437,0.159,-0.114,0.992
2026/05/14 10:34:22.456,0.155,-0.114,0.994
2026/05/14 10:34:22.475,0.162,-0.111,0.996
2026/05/14 10:34:22.493,0.16,-0.114,0.99
2026/05/14 10:34:22.512,0.161,-0.11,0.99
2026/05/14 10:34:22.531,0.163,-0.112,0.994
2026/05/14 10:34:22.550,0.16,-0.113,0.99
2026/05/14 10:34:22.568,0.161,-0.108,0.994
2026/05/14 10:34:22.587,0.159,-0.114,0.993
2026/05/14 10:34:22.606,0.161,-0.112,0.992
2026/05/14 10:34:22.625,0.161,-0.115,0.993
2026/05/14 10:34:22.643,0.159,-0.109,0.994
2026/05/14 10:34:22.662,0.158,-0.114,0.992
2026/05/14 10:34:22.681,0.161,-0.113,0.993
2026/05/14 10:34:22.700,0.162,-0.115,0.99
2026/05/14 10:34:22.718,0.158,-0.112,0.995
2026/05/14 10:34:22.737,0.16,-0.113,0.991
2026/05/14 10:34:22.756,0.161,-0.112,0.99
2026/05/14 10:34:22.775,0.162,-0.111,0.994
2026/05/14 10:34:22.793,0.159,-0.111,0.995
2026/05/14 10:34:22.812,0.16,-0.112,0.994
2026/05/14 10:34:22.831,0.158,-0.106,0.992
2026/05/14 10:34:22.850,0.162,-0.114,0.989
2026/05/14 10:34:22.868,0.16,-0.114,0.993
2026/05/14 10:34:22.887,0.159,-0.113,0.995
2026/05/14 10:34:22.906,0.158,-0.113,0.995
2026/05/14 10:34:22.925,0.157,-0.114,0.991
2026/05/14 10:34:22.943,0.159,-0.107,0.99
2026/05/14 10:34:22.962,0.159,-0.109,0.993
2026/05/14 10:34:22.981,0.163,-0.109,0.995
2026/05/14 10:34:23.000,0.158,-0.114,0.995
2026/05/14 10:34:23.018,0.159,-0.114,0.994
2026/05/14 10:34:23.037,0.164,-0.113,0.995
2026/05/14 10:34:23.056,0.16,-0.106,0.99
2026/05/14 10:34:23.074,0.157,-0.109,0.995
2026/05/14 10:34:23.093,0.165,-0.111,0.994
2026/05/14 10:34:23.112,0.158,-0.109,0.993
2026/05/14 10:34:23.131,0.16,-0.109,0.994
2026/05/14 10:34:23.149,0.157,-0.113,0.992
2026/05/14 10:34:23.168,0.163,-0.107,0.992
2026/05/14 10:34:23.187,0.16,-0.113,0.995
2026/05/14 10:34:23.206,0.157,-0.113,0.994
2026/05/14 10:34:23.224,0.157,-0.113,0.991
2026/05/14 10:34:23.243,0.159,-0.111,0.992
2026/05/14 10:34:23.262,0.161,-0.109,0.996
2026/05/14 10:34:23.281,0.163,-0.113,0.995
2026/05/14 10:34:23.299,0.16,-0.108,0.996
2026/05/14 10:34:23.318,0.157,-0.112,0.993
2026/05/14 10:34:23.337,0.159,-0.11,0.992
2026/05/14 10:34:23.356,0.161,-0.114,0.991
2026/05/14 10:34:23.374,0.159,-0.111,0.994
2026/05/14 10:34:23.393,0.157,-0.114,0.988
2026/05/14 10:34:23.412,0.159,-0.112,0.994
2026/05/14 10:34:23.431,0.165,-0.113,0.992
2026/05/14 10:34:23.449,0.159,-0.114,0.99
2026/05/14 10:34:23.468,0.156,-0.11,0.993
2026/05/14 10:34:23.487,0.158,-0.11,0.99
2026/05/14 10:34:23.506,0.16,-0.106,0.992
2026/05/14 10:34:23.524,0.159,-0.11,0.997
2026/05/14 10:34:23.543,0.161,-0.113,0.992
2026/05/14 10:34:23.562,0.161,-0.113,0.992
2026/05/14 10:34:23.581,0.16,-0.11,0.99
2026/05/14 10:34:23.599,0.156,-0.11,0.992
2026/05/14 10:34:23.618,0.159,-0.113,0.995
2026/05/14 10:34:23.637,0.158,-0.114,0.993
2026/05/14 10:34:23.655,0.155,-0.108,0.991
2026/05/14 10:34:23.674,0.159,-0.114,0.995
2026/05/14 10:34:23.693,0.16,-0.112,0.995
2026/05/14 10:34:23.712,0.162,-0.113,0.99
2026/05/14 10:34:23.730,0.163,-0.109,0.995
2026/05/14 10:34:23.749,0.161,-0.11,0.991
2026/05/14 10:34:23.768,0.162,-0.112,0.994
2026/05/14 10:34:23.787,0.16,-0.106,0.994
2026/05/14 10:34:23.805,0.159,-0.113,0.992
2026/05/14 10:34:23.824,0.161,-0.11,0.995
2026/05/14 10:34:23.843,0.154,-0.112,0.995
2026/05/14 10:34:23.862,0.158,-0.111,0.995
2026/05/14 10:34:23.880,0.157,-0.113,0.996
2026/05/14 10:34:23.899,0.161,-0.108,0.994
2026/05/14 10:34:23.918,0.158,-0.111,0.991
2026/05/14 10:34:23.937,0.163,-0.109,0.994
2026/05/14 10:34:23.955,0.158,-0.115,0.99
2026/05/14 10:34:23.974,0.159,-0.112,0.994
2026/05/14 10:34:23.993,0.161,-0.112,0.992
2026/05/14 10:34:24.012,0.159,-0.111,0.994
2026/05/14 10:34:24.030,0.155,-0.112,0.991
2026/05/14 10:34:24.049,0.161,-0.112,0.997
2026/05/14 10:34:24.068,0.157,-0.111,0.994
2026/05/14 10:34:24.087,0.158,-0.112,0.99
2026/05/14 10:34:24.105,0.16,-0.111,0.989
2026/05/14 10:34:24.124,0.158,-0.111,0.993
2026/05/14 10:34:24.143,0.16,-0.112,0.993
2026/05/14 10:34:24.162,0.158,-0.111,0.994
2026/05/14 10:34:24.180,0.16,-0.113,0.991
2026/05/14 10:34:24.199,0.157,-0.111,0.994
2026/05/14 10:34:24.218,0.162,-0.113,0.99
2026/05/14 10:34:24.237,0.162,-0.115,0.99
2026/05/14 10:34:24.255,0.159,-0.111,0.992
2026/05/14 10:34:24.274,0.159,-0.106,0.99
2026/05/14 10:34:24.293,0.156,-0.113,0.994
2026/05/14 10:34:24.312,0.16,-0.111,0.992
2026/05/14 10:34:24.330,0.159,-0.108,0.994
2026/05/14 10:34:24.349,0.16,-0.114,0.993
2026/05/14 10:34:24.368,0.158,-0.11,0.991
2026/05/14 10:34:24.386,0.159,-0.11,0.991
2026/05/14 10:34:24.405,0.16,-0.112,0.994
2026/05/14 10:34:24.424,0.155,-0.107,0.992
2026/05/14 10:34:24.443,0.161,-0.107,0.995
2026/05/14 10:34:24.461,0.159,-0.114,0.992
2026/05/14 10:34:24.480,0.159,-0.109,0.989
2026/05/14 10:34:24.499,0.163,-0.11,0.991
2026/05/14 10:34:24.518,0.158,-0.11,0.993
2026/05/14 10:34:24.536,0.162,-0.11,0.998
2026/05/14 10:34:24.555,0.161,-0.109,0.995
2026/05/14 10:34:24.574,0.159,-0.109,0.986
2026/05/14 10:34:24.593,0.161,-0.113,0.989
2026/05/14 10:34:24.611,0.156,-0.112,0.994
2026/05/14 10:34:24.630,0.162,-0.111,0.99
2026/05/14 10:34:24.649,0.161,-0.11,0.999
2026/05/14 10:34:24.668,0.16,-0.111,0.987
2026/05/14 10:34:24.686,0.159,-0.108,0.992
2026/05/14 10:34:24.705,0.159,-0.11,0.991
2026/05/14 10:34:24.724,0.158,-0.114,0.992
2026/05/14 10:34:24.743,0.156,-0.111,0.991
2026/05/14 10:34:24.761,0.155,-0.105,0.992
2026/05/14 10:34:24.780,0.161,-0.109,0.996
2026/05/14 10:34:24.799,0.163,-0.111,0.993
2026/05/14 10:34:24.818,0.161,-0.111,0.993
2026/05/14 10:34:24.836,0.157,-0.112,0.995
2026/05/14 10:34:24.855,0.158,-0.113,0.993
2026/05/14 10:34:24.874,0.161,-0.112,0.987
2026/05/14 10:34:24.893,0.159,-0.109,0.991
2026/05/14 10:34:24.911,0.163,-0.111,0.994
2026/05/14 10:34:24.930,0.157,-0.109,0.987
2026/05/14 10:34:24.949,0.157,-0.102,0.992
2026/05/14 10:34:24.968,0.158,-0.11,0.996
2026/05/14 10:34:24.986,0.16,-0.111,0.988
2026/05/14 10:34:25.005,0.156,-0.115,0.99
2026/05/14 10:34:25.024,0.158,-0.119,0.993
2026/05/14 10:34:25.043,0.155,-0.12,0.995
2026/05/14 10:34:25.061,0.161,-0.115,0.993
2026/05/14 10:34:25.080,0.162,-0.112,0.988
2026/05/14 10:34:25.099,0.165,-0.112,0.995
2026/05/14 10:34:25.117,0.162,-0.113,0.993
2026/05/14 10:34:25.136,0.161,-0.107,0.998
2026/05/14 10:34:25.155,0.159,-0.107,0.99
2026/05/14 10:34:25.174,0.16,-0.107,0.992
2026/05/14 10:34:25.192,0.163,-0.105,0.996
2026/05/14 10:34:25.211,0.16,-0.107,0.992
2026/05/14 10:34:25.230,0.159,-0.11,0.991
2026/05/14 10:34:25.249,0.159,-0.11,0.994
2026/05/14 10:34:25.267,0.161,-0.116,0.988
2026/05/14 10:34:25.286,0.155,-0.112,0.991
2026/05/14 10:34:25.305,0.158,-0.118,0.987
2026/05/14 10:34:25.324,0.156,-0.121,0.995
2026/05/14 10:34:25.342,0.156,-0.118,0.992
2026/05/14 10:34:25.361,0.159,-0.115,0.99
2026/05/14 10:34:25.380,0.165,-0.109,0.998
2026/05/14 10:34:25.399,0.165,-0.105,0.992
2026/05/14 10:34:25.417,0.165,-0.104,0.987
2026/05/14 10:34:25.436,0.16,-0.103,0.988
2026/05/14 10:34:25.455,0.161,-0.104,0.997
2026/05/14 10:34:25.474,0.159,-0.109,0.997
2026/05/14 10:34:25.492,0.16,-0.114,0.991
2026/05/14 10:34:25.511,0.156,-0.116,0.99
2026/05/14 10:34:25.530,0.159,-0.113,0.991
2026/05/14 10:34:25.549,0.157,-0.119,0.991
2026/05/14 10:34:25.567,0.159,-0.12,0.99
2026/05/14 10:34:25.586,0.164,-0.12,0.988
2026/05/14 10:34:25.605,0.166,-0.116,0.994
2026/05/14 10:34:25.624,0.162,-0.115,0.99
2026/05/14 10:34:25.642,0.16,-0.114,0.985
2026/05/14 10:34:25.661,0.156,-0.109,0.992
2026/05/14 10:34:25.680,0.158,-0.102,0.995
2026/05/14 10:34:25.699,0.154,-0.108,0.997
2026/05/14 10:34:25.717,0.157,-0.105,0.992
2026/05/14 10:34:25.736,0.164,-0.105,0.994
2026/05/14 10:34:25.755,0.164,-0.112,0.995
2026/05/14 10:34:25.774,0.164,-0.107,0.99
2026/05/14 10:34:25.792,0.161,-0.114,0.991
2026/05/14 10:34:25.811,0.16,-0.116,0.994
2026/05/14 10:34:25.830,0.156,-0.118,0.997
2026/05/14 10:34:25.848,0.153,-0.117,0.991
2026/05/14 10:34:25.867,0.157,-0.111,0.996
2026/05/14 10:34:25.886,0.164,-0.116,0.995
2026/05/14 10:34:25.905,0.16,-0.112,0.997
2026/05/14 10:34:25.923,0.165,-0.106,0.988
2026/05/14 10:34:25.942,0.164,-0.104,0.995
2026/05/14 10:34:25.961,0.158,-0.107,0.998
2026/05/14 10:34:25.980,0.155,-0.108,0.995
2026/05/14 10:34:25.998,0.158,-0.113,0.992
2026/05/14 10:34:26.017,0.157,-0.115,0.991
2026/05/14 10:34:26.036,0.156,-0.113,0.997
2026/05/14 10:34:26.055,0.156,-0.113,0.99
2026/05/14 10:34:26.073,0.162,-0.117,0.995
2026/05/14 10:34:26.092,0.164,-0.117,0.992
2026/05/14 10:34:26.111,0.154,-0.118,0.993
2026/05/14 10:34:26.130,0.165,-0.117,0.992
2026/05/14 10:34:26.148,0.161,-0.11,0.988
2026/05/14 10:34:26.167,0.164,-0.105,0.997
2026/05/14 10:34:26.186,0.159,-0.103,0.993
2026/05/14 10:34:26.205,0.156,-0.104,0.996
2026/05/14 10:34:26.223,0.152,-0.103,0.992
2026/05/14 10:34:26.242,0.159,-0.106,0.992
2026/05/14 10:34:26.261,0.163,-0.108,0.988
2026/05/14 10:34:26.280,0.165,-0.108,0.99
2026/05/14 10:34:26.298,0.162,-0.11,0.992
2026/05/14 10:34:26.317,0.16,-0.115,0.991
2026/05/14 10:34:26.336,0.156,-0.114,0.997
2026/05/14 10:34:26.355,0.152,-0.119,0.989
2026/05/14 10:34:26.373,0.156,-0.12,0.994
2026/05/14 10:34:26.392,0.158,-0.115,0.998
2026/05/14 10:34:26.411,0.166,-0.11,0.991
2026/05/14 10:34:26.429,0.164,-0.111,0.993
2026/05/14 10:34:26.448,0.163,-0.107,0.992
2026/05/14 10:34:26.467,0.161,-0.109,0.992
2026/05/14 10:34:26.486,0.158,-0.109,0.992
2026/05/14 10:34:26.504,0.159,-0.109,0.996
2026/05/14 10:34:26.523,0.16,-0.106,0.989
2026/05/14 10:34:26.542,0.159,-0.107,0.994
2026/05/14 10:34:26.561,0.16,-0.117,0.993
2026/05/14 10:34:26.579,0.161,-0.115,0.987
2026/05/14 10:34:26.598,0.162,-0.117,0.996
2026/05/14 10:34:26.617,0.161,-0.116,0.994
2026/05/14 10:34:26.636,0.156,-0.111,0.993
2026/05/14 10:34:26.654,0.163,-0.111,0.993
2026/05/14 10:34:26.673,0.159,-0.11,0.994
2026/05/14 10:34:26.692,0.155,-0.109,0.992
2026/05/14 10:34:26.711,0.159,-0.109,0.995
2026/05/14 10:34:26.729,0.159,-0.105,0.992
2026/05/14 10:34:26.748,0.161,-0.109,0.992
2026/05/14 10:34:26.767,0.157,-0.105,0.991
2026/05/14 10:34:26.786,0.159,-0.108,0.991
2026/05/14 10:34:26.804,0.159,-0.107,0.994
2026/05/14 10:34:26.823,0.156,-0.117,0.996
2026/05/14 10:34:26.842,0.159,-0.116,0.993
2026/05/14 10:34:26.861,0.154,-0.117,0.991
2026/05/14 10:34:26.879,0.161,-0.114,0.99
2026/05/14 10:34:26.898,0.162,-0.114,0.993
2026/05/14 10:34:26.917,0.165,-0.116,0.99
2026/05/14 10:34:26.936,0.163,-0.114,0.995
2026/05/14 10:34:26.954,0.157,-0.109,0.988
2026/05/14 10:34:26.973,0.154,-0.109,0.994
2026/05/14 10:34:26.992,0.155,-0.104,0.993
2026/05/14 10:34:27.010,0.162,-0.105,0.992
2026/05/14 10:34:27.029,0.161,-0.107,0.993
2026/05/14 10:34:27.048,0.168,-0.112,0.997
2026/05/14 10:34:27.067,0.161,-0.112,0.984
2026/05/14 10:34:27.085,0.158,-0.114,0.982
2026/05/14 10:34:27.104,0.163,-0.115,0.995
2026/05/14 10:34:27.123,0.158,-0.119,0.99
2026/05/14 10:34:27.142,0.154,-0.12,0.985
2026/05/14 10:34:27.160,0.158,-0.114,0.989
2026/05/14 10:34:27.179,0.163,-0.114,0.992
2026/05/14 10:34:27.198,0.159,-0.118,0.988
2026/05/14 10:34:27.217,0.155,-0.107,0.986
2026/05/14 10:34:27.235,0.154,-0.106,0.991
2026/05/14 10:34:27.254,0.159,-0.105,0.992
2026/05/14 10:34:27.273,0.163,-0.109,0.993
2026/05/14 10:34:27.292,0.169,-0.105,0.992
2026/05/14 10:34:27.310,0.17,-0.109,0.986
2026/05/14 10:34:27.329,0.165,-0.107,0.994
2026/05/14 10:34:27.348,0.155,-0.113,0.992
2026/05/14 10:34:27.367,0.153,-0.111,0.994
2026/05/14 10:34:27.385,0.153,-0.118,0.996
2026/05/14 10:34:27.404,0.152,-0.118,0.99
2026/05/14 10:34:27.423,0.161,-0.116,0.991
2026/05/14 10:34:27.442,0.167,-0.111,0.989
2026/05/14 10:34:27.460,0.165,-0.113,0.99
2026/05/14 10:34:27.479,0.16,-0.107,0.987
2026/05/14 10:34:27.498,0.159,-0.109,0.991
2026/05/14 10:34:27.516,0.155,-0.103,0.993
2026/05/14 10:34:27.535,0.155,-0.101,0.995
2026/05/14 10:34:27.554,0.162,-0.107,0.995
2026/05/14 10:34:27.573,0.163,-0.107,0.993
2026/05/14 10:34:27.591,0.163,-0.114,0.99
2026/05/14 10:34:27.610,0.16,-0.116,0.991
2026/05/14 10:34:27.629,0.161,-0.115,0.994
2026/05/14 10:34:27.648,0.159,-0.118,0.995
2026/05/14 10:34:27.666,0.157,-0.117,0.989
2026/05/14 10:34:27.685,0.156,-0.114,0.99
2026/05/14 10:34:27.704,0.157,-0.11,0.992
2026/05/14 10:34:27.723,0.16,-0.11,0.993
2026/05/14 10:34:27.741,0.161,-0.109,0.997
2026/05/14 10:34:27.760,0.168,-0.11,0.99
2026/05/14 10:34:27.779,0.163,-0.106,0.995
2026/05/14 10:34:27.798,0.155,-0.106,0.994
2026/05/14 10:34:27.816,0.161,-0.109,0.993
2026/05/14 10:34:27.835,0.155,-0.112,0.994
2026/05/14 10:34:27.854,0.157,-0.114,0.989
2026/05/14 10:34:27.873,0.158,-0.112,0.996
2026/05/14 10:34:27.891,0.163,-0.117,0.993
2026/05/14 10:34:27.910,0.163,-0.117,0.99
2026/05/14 10:34:27.929,0.167,-0.116,0.993
2026/05/14 10:34:27.948,0.164,-0.114,0.994
2026/05/14 10:34:27.966,0.16,-0.113,0.995
2026/05/14 10:34:27.985,0.158,-0.104,0.995
2026/05/14 10:34:28.004,0.157,-0.105,0.992
2026/05/14 10:34:28.023,0.162,-0.107,0.993
2026/05/14 10:34:28.041,0.165,-0.107,0.992
2026/05/14 10:34:28.060,0.161,-0.113,0.996
2026/05/14 10:34:28.079,0.157,-0.109,0.995
2026/05/14 10:34:28.097,0.161,-0.11,0.995
2026/05/14 10:34:28.116,0.158,-0.115,0.994
2026/05/14 10:34:28.135,0.159,-0.114,0.993
2026/05/14 10:34:28.154,0.156,-0.116,0.989
2026/05/14 10:34:28.172,0.157,-0.113,0.995
2026/05/14 10:34:28.191,0.159,-0.113,0.993
2026/05/14 10:34:28.210,0.159,-0.109,0.995
2026/05/14 10:34:28.229,0.161,-0.111,0.994
2026/05/14 10:34:28.247,0.163,-0.104,0.991
2026/05/14 10:34:28.266,0.162,-0.106,0.991
2026/05/14 10:34:28.285,0.165,-0.106,0.992
2026/05/14 10:34:28.304,0.16,-0.113,0.995
2026/05/14 10:34:28.322,0.16,-0.11,0.994
2026/05/14 10:34:28.341,0.158,-0.112,0.992
2026/05/14 10:34:28.360,0.161,-0.111,0.994
2026/05/14 10:34:28.379,0.16,-0.112,0.994
2026/05/14 10:34:28.397,0.16,-0.119,0.988
2026/05/14 10:34:28.416,0.162,-0.113,0.992
2026/05/14 10:34:28.435,0.157,-0.112,0.995
2026/05/14 10:34:28.454,0.159,-0.109,0.989
2026/05/14 10:34:28.472,0.16,-0.11,0.992
2026/05/14 10:34:28.491,0.163,-0.106,0.993
2026/05/14 10:34:28.510,0.159,-0.104,0.995
2026/05/14 10:34:28.529,0.159,-0.104,0.993
2026/05/14 10:34:28.547,0.162,-0.106,0.995
2026/05/14 10:34:28.566,0.163,-0.115,0.989
2026/05/14 10:34:28.585,0.158,-0.111,0.995
2026/05/14 10:34:28.604,0.16,-0.113,0.991
2026/05/14 10:34:28.622,0.158,-0.113,0.988
2026/05/14 10:34:28.641,0.158,-0.116,0.993
2026/05/14 10:34:28.660,0.155,-0.115,0.993
2026/05/14 10:34:28.679,0.163,-0.114,0.992
2026/05/14 10:34:28.697,0.158,-0.107,0.991
2026/05/14 10:34:28.716,0.16,-0.112,0.996
2026/05/14 10:34:28.735,0.157,-0.109,0.992
2026/05/14 10:34:28.753,0.164,-0.109,0.993
2026/05/14 10:34:28.772,0.159,-0.112,0.992
2026/05/14 10:34:28.791,0.158,-0.108,0.992
2026/05/14 10:34:28.810,0.16,-0.111,0.993
2026/05/14 10:34:28.828,0.164,-0.114,0.991
2026/05/14 10:34:28.847,0.16,-0.112,0.995
2026/05/14 10:34:28.866,0.161,-0.111,0.993
2026/05/14 10:34:28.885,0.155,-0.101,0.961
2026/05/14 10:34:28.903,0.162,-0.105,0.971
2026/05/14 10:34:28.922,0.16,-0.109,0.988
2026/05/14 10:34:28.941,0.167,-0.113,0.99
2026/05/14 10:34:28.960,0.164,-0.111,0.989
2026/05/14 10:34:28.978,0.166,-0.105,0.992
2026/05/14 10:34:28.997,0.159,-0.105,0.993
2026/05/14 10:34:29.016,0.155,-0.105,0.992
2026/05/14 10:34:29.035,0.161,-0.11,0.996
2026/05/14 10:34:29.053,0.16,-0.116,1.002
2026/05/14 10:34:29.072,0.154,-0.116,0.994
2026/05/14 10:34:29.091,0.116,-0.089,1.013
2026/05/14 10:34:29.110,0.133,-0.101,0.945
2026/05/14 10:34:29.128,0.148,-0.103,0.972
2026/05/14 10:34:29.147,0.164,-0.113,1.03
2026/05/14 10:34:29.166,0.16,-0.127,1.005
2026/05/14 10:34:29.185,0.164,-0.135,0.99
2026/05/14 10:34:29.203,0.168,-0.142,0.971
2026/05/14 10:34:29.222,0.17,-0.133,0.968
2026/05/14 10:34:29.241,0.167,-0.128,1.006
2026/05/14 10:34:29.260,0.154,-0.122,0.971
2026/05/14 10:34:29.278,0.145,-0.114,0.991
2026/05/14 10:34:29.297,0.146,-0.111,0.995
2026/05/14 10:34:29.316,0.153,-0.102,0.981
2026/05/14 10:34:29.335,0.165,-0.089,1.009
2026/05/14 10:34:29.353,0.168,-0.082,1.008
2026/05/14 10:34:29.372,0.18,-0.085,0.991
2026/05/14 10:34:29.391,0.182,-0.086,0.993
2026/05/14 10:34:29.409,0.169,-0.089,0.988
2026/05/14 10:34:29.428,0.165,-0.102,0.998
2026/05/14 10:34:29.447,0.146,-0.113,0.986
2026/05/14 10:34:29.466,0.134,-0.131,0.997
2026/05/14 10:34:29.484,0.142,-0.141,1.006
2026/05/14 10:34:29.503,0.152,-0.141,0.988
2026/05/14 10:34:29.522,0.16,-0.133,0.98
2026/05/14 10:34:29.541,0.171,-0.121,0.998
2026/05/14 10:34:29.559,0.186,-0.113,1.01
2026/05/14 10:34:29.578,0.155,-0.099,0.995
2026/05/14 10:34:29.597,0.156,-0.091,1.0
2026/05/14 10:34:29.616,0.151,-0.087,0.997
2026/05/14 10:34:29.634,0.152,-0.086,1.0
2026/05/14 10:34:29.653,0.167,-0.088,0.997
2026/05/14 10:34:29.672,0.171,-0.097,0.99
2026/05/14 10:34:29.691,0.173,-0.11,0.992
2026/05/14 10:34:29.709,0.164,-0.125,0.995
2026/05/14 10:34:29.728,0.155,-0.129,0.995
2026/05/14 10:34:29.747,0.147,-0.131,0.994
2026/05/14 10:34:29.766,0.151,-0.127,0.997
2026/05/14 10:34:29.784,0.159,-0.121,0.986
2026/05/14 10:34:29.803,0.158,-0.11,0.994
2026/05/14 10:34:29.822,0.159,-0.11,0.991
2026/05/14 10:34:29.841,0.164,-0.104,0.993
2026/05/14 10:34:29.859,0.165,-0.096,0.994
2026/05/14 10:34:29.878,0.166,-0.091,0.996
2026/05/14 10:34:29.897,0.166,-0.09,0.99
2026/05/14 10:34:29.916,0.163,-0.102,0.994
2026/05/14 10:34:29.934,0.154,-0.109,0.989
2026/05/14 10:34:29.953,0.154,-0.117,0.987
2026/05/14 10:34:29.972,0.155,-0.122,0.99
2026/05/14 10:34:29.991,0.159,-0.128,0.993
2026/05/14 10:34:30.009,0.164,-0.128,0.989
2026/05/14 10:34:30.028,0.157,-0.118,0.987
2026/05/14 10:34:30.047,0.161,-0.116,0.993
2026/05/14 10:34:30.066,0.155,-0.11,0.993
2026/05/14 10:34:30.084,0.158,-0.102,0.995
2026/05/14 10:34:30.103,0.161,-0.096,0.995
2026/05/14 10:34:30.122,0.163,-0.1,0.99
2026/05/14 10:34:30.140,0.168,-0.098,0.99
2026/05/14 10:34:30.159,0.166,-0.102,0.992
2026/05/14 10:34:30.178,0.161,-0.109,0.998
2026/05/14 10:34:30.197,0.155,-0.118,0.992
2026/05/14 10:34:30.215,0.155,-0.119,0.996
2026/05/14 10:34:30.234,0.155,-0.123,0.99
2026/05/14 10:34:30.253,0.16,-0.119,0.993
2026/05/14 10:34:30.272,0.161,-0.115,0.992
2026/05/14 10:34:30.290,0.16,-0.109,0.994
2026/05/14 10:34:30.309,0.16,-0.109,0.99
2026/05/14 10:34:30.328,0.161,-0.1,0.988
2026/05/14 10:34:30.347,0.162,-0.094,0.993
2026/05/14 10:34:30.365,0.162,-0.099,0.99
2026/05/14 10:34:30.384,0.159,-0.101,0.991
2026/05/14 10:34:30.403,0.157,-0.106,0.993
2026/05/14 10:34:30.422,0.158,-0.112,0.987
2026/05/14 10:34:30.440,0.155,-0.114,0.987
2026/05/14 10:34:30.459,0.162,-0.116,0.99
2026/05/14 10:34:30.478,0.155,-0.115,0.991
2026/05/14 10:34:30.497,0.161,-0.117,0.992
2026/05/14 10:34:30.515,0.157,-0.113,0.989
2026/05/14 10:34:30.534,0.156,-0.112,0.992
2026/05/14 10:34:30.553,0.158,-0.103,0.99
2026/05/14 10:34:30.572,0.161,-0.102,0.992
2026/05/14 10:34:30.590,0.165,-0.099,0.992
2026/05/14 10:34:30.609,0.165,-0.101,0.991
2026/05/14 10:34:30.628,0.161,-0.103,0.993
2026/05/14 10:34:30.647,0.161,-0.107,0.993
2026/05/14 10:34:30.665,0.157,-0.115,0.991
2026/05/14 10:34:30.684,0.155,-0.119,0.989
2026/05/14 10:34:30.703,0.16,-0.117,0.992
2026/05/14 10:34:30.722,0.163,-0.114,0.991
2026/05/14 10:34:30.740,0.161,-0.112,0.992
2026/05/14 10:34:30.759,0.163,-0.115,0.991
2026/05/14 10:34:30.778,0.16,-0.106,0.995
2026/05/14 10:34:30.796,0.162,-0.105,0.995
2026/05/14 10:34:30.815,0.161,-0.102,0.987
2026/05/14 10:34:30.834,0.16,-0.103,0.992
2026/05/14 10:34:30.853,0.168,-0.106,0.996
2026/05/14 10:34:30.871,0.158,-0.111,0.993
2026/05/14 10:34:30.890,0.158,-0.109,0.993
2026/05/14 10:34:30.909,0.154,-0.113,0.996
2026/05/14 10:34:30.928,0.156,-0.116,0.996
2026/05/14 10:34:30.946,0.157,-0.116,0.996
2026/05/14 10:34:30.965,0.159,-0.113,0.993
2026/05/14 10:34:30.984,0.16,-0.112,0.995
2026/05/14 10:34:31.003,0.161,-0.11,0.995
2026/05/14 10:34:31.021,0.158,-0.107,0.993
2026/05/14 10:34:31.040,0.164,-0.102,0.995
2026/05/14 10:34:31.059,0.156,-0.106,0.991
2026/05/14 10:34:31.078,0.16,-0.104,0.992
2026/05/14 10:34:31.096,0.163,-0.111,0.99
2026/05/14 10:34:31.115,0.16,-0.107,0.995
2026/05/14 10:34:31.134,0.16,-0.11,0.995
2026/05/14 10:34:31.153,0.16,-0.114,0.991
2026/05/14 10:34:31.171,0.157,-0.114,0.992
2026/05/14 10:34:31.190,0.159,-0.114,0.992
2026/05/14 10:34:31.209,0.157,-0.112,0.992
2026/05/14 10:34:31.228,0.159,-0.113,0.993
2026/05/14 10:34:31.246,0.159,-0.111,0.991
2026/05/14 10:34:31.265,0.156,-0.103,0.992
2026/05/14 10:34:31.284,0.162,-0.105,0.993
2026/05/14 10:34:31.303,0.161,-0.107,0.995
2026/05/14 10:34:31.321,0.162,-0.11,0.994
2026/05/14 10:34:31.340,0.16,-0.11,0.996
2026/05/14 10:34:31.359,0.161,-0.113,0.995
2026/05/14 10:34:31.378,0.163,-0.11,0.995
2026/05/14 10:34:31.396,0.156,-0.117,0.991
2026/05/14 10:34:31.415,0.161,-0.114,0.99
2026/05/14 10:34:31.434,0.161,-0.114,0.99
2026/05/14 10:34:31.452,0.158,-0.111,0.992
2026/05/14 10:34:31.471,0.159,-0.111,0.991
2026/05/14 10:34:31.490,0.159,-0.107,0.992
2026/05/14 10:34:31.509,0.16,-0.109,0.991
2026/05/14 10:34:31.527,0.159,-0.102,0.995
2026/05/14 10:34:31.546,0.16,-0.105,0.992
2026/05/14 10:34:31.565,0.161,-0.113,0.995
2026/05/14 10:34:31.584,0.162,-0.111,0.987
2026/05/14 10:34:31.602,0.157,-0.113,0.99
2026/05/14 10:34:31.621,0.161,-0.114,0.994
2026/05/14 10:34:31.640,0.162,-0.11,0.995
2026/05/14 10:34:31.659,0.16,-0.111,0.991
2026/05/14 10:34:31.677,0.157,-0.108,0.992
2026/05/14 10:34:31.696,0.163,-0.109,0.992
2026/05/14 10:34:31.715,0.159,-0.109,0.994
2026/05/14 10:34:31.734,0.159,-0.108,0.991
2026/05/14 10:34:31.752,0.163,-0.108,0.996
2026/05/14 10:34:31.771,0.16,-0.108,0.99
2026/05/14 10:34:31.790,0.161,-0.109,0.993
2026/05/14 10:34:31.809,0.157,-0.111,0.995
2026/05/14 10:34:31.827,0.158,-0.111,0.991
2026/05/14 10:34:31.846,0.16,-0.11,0.993
2026/05/14 10:34:31.865,0.158,-0.111,0.994
2026/05/14 10:34:31.884,0.158,-0.111,0.993
2026/05/14 10:34:31.902,0.163,-0.11,0.989
2026/05/14 10:34:31.921,0.16,-0.108,0.99
2026/05/14 10:34:31.940,0.16,-0.11,0.993
2026/05/14 10:34:31.959,0.162,-0.108,0.993
2026/05/14 10:34:31.977,0.159,-0.102,0.992
2026/05/14 10:34:31.996,0.159,-0.107,0.993
2026/05/14 10:34:32.015,0.162,-0.108,0.994
2026/05/14 10:34:32.034,0.16,-0.109,0.988
2026/05/14 10:34:32.052,0.156,-0.111,0.987
2026/05/14 10:34:32.071,0.158,-0.114,0.992
2026/05/14 10:34:32.090,0.165,-0.11,0.99
2026/05/14 10:34:32.108,0.161,-0.115,0.993
2026/05/14 10:34:32.127,0.164,-0.107,1.011
2026/05/14 10:34:32.146,0.155,-0.11,0.991
2026/05/14 10:34:32.165,0.158,-0.11,0.982
2026/05/14 10:34:32.183,0.158,-0.108,0.988
2026/05/14 10:34:32.202,0.163,-0.109,0.992
2026/05/14 10:34:32.221,0.151,-0.112,0.989
2026/05/14 10:34:32.240,0.154,-0.11,0.982
2026/05/14 10:34:32.258,0.15,-0.108,0.981
2026/05/14 10:34:32.277,0.151,-0.108,0.993
2026/05/14 10:34:32.296,0.162,-0.11,0.995
2026/05/14 10:34:32.315,0.155,-0.097,1.024
2026/05/14 10:34:32.333,0.16,-0.101,0.965
2026/05/14 10:34:32.352,0.155,-0.102,0.999
2026/05/14 10:34:32.371,0.159,-0.1,0.995
2026/05/14 10:34:32.390,0.159,-0.11,0.995
2026/05/14 10:34:32.408,0.165,-0.11,0.975
2026/05/14 10:34:32.427,0.167,-0.116,0.982
2026/05/14 10:34:32.446,0.164,-0.113,0.991
2026/05/14 10:34:32.465,0.157,-0.122,0.981
2026/05/14 10:34:32.483,0.135,-0.111,1.014
2026/05/14 10:34:32.502,0.147,-0.113,1.017
2026/05/14 10:34:32.521,0.143,-0.11,0.991
2026/05/14 10:34:32.540,0.152,-0.106,1.019
2026/05/14 10:34:32.558,0.155,-0.106,0.977
2026/05/14 10:34:32.577,0.158,-0.114,1.003
2026/05/14 10:34:32.596,0.159,-0.114,1.008
2026/05/14 10:34:32.615,0.099,-0.298,1.377
2026/05/14 10:34:32.633,0.171,-0.312,1.187
2026/05/14 10:34:32.652,0.257,-0.358,1.762
2026/05/14 10:34:32.671,0.322,-0.293,1.47
2026/05/14 10:34:32.690,0.234,-0.21,1.072
2026/05/14 10:34:32.708,0.156,-0.155,1.058
2026/05/14 10:34:32.727,0.137,-0.074,0.997
2026/05/14 10:34:32.746,0.081,-0.109,1.022
2026/05/14 10:34:32.764,0.077,-0.108,1.122
2026/05/14 10:34:32.783,0.097,-0.092,1.043
2026/05/14 10:34:32.802,0.095,-0.094,1.009
2026/05/14 10:34:32.821,0.103,-0.097,0.999
2026/05/14 10:34:32.839,0.118,-0.098,1.023
2026/05/14 10:34:32.858,0.142,-0.104,1.047
2026/05/14 10:34:32.877,0.173,-0.117,0.995
2026/05/14 10:34:32.896,0.186,-0.121,0.987
2026/05/14 10:34:32.914,0.181,-0.125,0.987
2026/05/14 10:34:32.933,0.158,-0.113,0.988
2026/05/14 10:34:32.952,0.155,-0.108,1.003
2026/05/14 10:34:32.971,0.171,-0.106,1.001
2026/05/14 10:34:32.989,0.184,-0.105,0.994
2026/05/14 10:34:33.008,0.178,-0.104,0.973
2026/05/14 10:34:33.027,0.165,-0.109,0.972
2026/05/14 10:34:33.046,0.154,-0.108,0.991
2026/05/14 10:34:33.064,0.155,-0.109,0.997
2026/05/14 10:34:33.083,0.157,-0.112,1.007
2026/05/14 10:34:33.102,0.161,-0.115,0.989
2026/05/14 10:34:33.121,0.155,-0.11,0.979
2026/05/14 10:34:33.139,0.164,-0.115,0.982
2026/05/14 10:34:33.158,0.157,-0.116,1.001
2026/05/14 10:34:33.177,0.157,-0.111,0.997
2026/05/14 10:34:33.196,0.157,-0.105,0.987
2026/05/14 10:34:33.214,0.159,-0.106,0.994
2026/05/14 10:34:33.233,0.162,-0.105,0.991
2026/05/14 10:34:33.252,0.16,-0.102,0.99
2026/05/14 10:34:33.271,0.159,-0.104,0.993
2026/05/14 10:34:33.289,0.16,-0.11,0.99
2026/05/14 10:34:33.308,0.165,-0.113,0.993
2026/05/14 10:34:33.327,0.155,-0.114,0.993
2026/05/14 10:34:33.346,0.157,-0.113,0.989
2026/05/14 10:34:33.364,0.158,-0.119,0.993
2026/05/14 10:34:33.383,0.159,-0.114,0.995
2026/05/14 10:34:33.402,0.159,-0.113,0.994
2026/05/14 10:34:33.420,0.157,-0.113,0.99
2026/05/14 10:34:33.439,0.161,-0.107,0.989
2026/05/14 10:34:33.458,0.159,-0.106,1.0
2026/05/14 10:34:33.477,0.163,-0.102,1.006
2026/05/14 10:34:33.495,0.151,-0.097,0.987
2026/05/14 10:34:33.514,0.159,-0.104,0.991
2026/05/14 10:34:33.533,0.16,-0.111,1.0
2026/05/14 10:34:33.552,0.159,-0.114,0.993
2026/05/14 10:34:33.570,0.153,-0.112,0.993
2026/05/14 10:34:33.589,0.151,-0.115,0.992
2026/05/14 10:34:33.608,0.159,-0.114,0.99
2026/05/14 10:34:33.627,0.159,-0.114,0.995
2026/05/14 10:34:33.645,0.159,-0.108,0.989
2026/05/14 10:34:33.664,0.163,-0.113,0.989
2026/05/14 10:34:33.683,0.165,-0.11,0.991
2026/05/14 10:34:33.702,0.164,-0.106,0.994
2026/05/14 10:34:33.720,0.158,-0.106,0.996
2026/05/14 10:34:33.739,0.157,-0.106,0.987
2026/05/14 10:34:33.758,0.16,-0.105,0.992
2026/05/14 10:34:33.777,0.163,-0.112,0.995
2026/05/14 10:34:33.795,0.163,-0.112,0.993
2026/05/14 10:34:33.814,0.156,-0.118,0.987
2026/05/14 10:34:33.833,0.162,-0.116,0.994
2026/05/14 10:34:33.852,0.157,-0.114,0.995
2026/05/14 10:34:33.870,0.156,-0.112,0.996
2026/05/14 10:34:33.889,0.156,-0.111,0.989
2026/05/14 10:34:33.908,0.158,-0.108,0.992
2026/05/14 10:34:33.927,0.161,-0.106,0.993
2026/05/14 10:34:33.945,0.159,-0.104,0.995
2026/05/14 10:34:33.964,0.158,-0.104,0.989
2026/05/14 10:34:33.983,0.163,-0.107,0.991
2026/05/14 10:34:34.002,0.16,-0.109,0.995
2026/05/14 10:34:34.020,0.158,-0.111,0.995
2026/05/14 10:34:34.039,0.155,-0.113,0.987
2026/05/14 10:34:34.058,0.159,-0.111,0.994
2026/05/14 10:34:34.076,0.162,-0.116,0.998
2026/05/14 10:34:34.095,0.163,-0.115,0.996
2026/05/14 10:34:34.114,0.157,-0.112,0.992
2026/05/14 10:34:34.133,0.159,-0.106,0.995
2026/05/14 10:34:34.151,0.161,-0.105,0.993
2026/05/14 10:34:34.170,0.159,-0.11,0.99
2026/05/14 10:34:34.189,0.16,-0.106,0.989
2026/05/14 10:34:34.208,0.16,-0.102,0.992
2026/05/14 10:34:34.226,0.158,-0.106,0.992
2026/05/14 10:34:34.245,0.159,-0.107,0.99
2026/05/14 10:34:34.264,0.158,-0.108,0.993
2026/05/14 10:34:34.283,0.159,-0.111,0.992
2026/05/14 10:34:34.301,0.157,-0.111,0.992
2026/05/14 10:34:34.320,0.158,-0.114,0.994
2026/05/14 10:34:34.339,0.159,-0.11,0.993
2026/05/14 10:34:34.358,0.158,-0.114,0.99
2026/05/14 10:34:34.376,0.161,-0.111,0.996
2026/05/14 10:34:34.395,0.16,-0.111,0.991
2026/05/14 10:34:34.414,0.163,-0.107,0.992
2026/05/14 10:34:34.433,0.159,-0.103,0.989
2026/05/14 10:34:34.451,0.159,-0.105,0.991
2026/05/14 10:34:34.470,0.161,-0.108,0.994
2026/05/14 10:34:34.489,0.159,-0.11,0.989
2026/05/14 10:34:34.508,0.16,-0.11,0.992
2026/05/14 10:34:34.526,0.16,-0.111,0.995
2026/05/14 10:34:34.545,0.163,-0.118,0.995
2026/05/14 10:34:34.564,0.157,-0.114,0.996
2026/05/14 10:34:34.583,0.156,-0.115,0.992
2026/05/14 10:34:34.601,0.157,-0.113,0.99
2026/05/14 10:34:34.620,0.163,-0.11,0.991
2026/05/14 10:34:34.639,0.16,-0.107,0.991
2026/05/14 10:34:34.658,0.156,-0.104,0.988
2026/05/14 10:34:34.676,0.164,-0.108,0.994
2026/05/14 10:34:34.695,0.165,-0.109,0.994
2026/05/14 10:34:34.714,0.157,-0.108,0.99
2026/05/14 10:34:34.732,0.159,-0.112,0.992
2026/05/14 10:34:34.751,0.158,-0.105,0.993
2026/05/14 10:34:34.770,0.158,-0.112,0.994
2026/05/14 10:34:34.789,0.159,-0.116,0.993
2026/05/14 10:34:34.807,0.165,-0.114,0.987
2026/05/14 10:34:34.826,0.161,-0.111,0.993
2026/05/14 10:34:34.845,0.16,-0.113,0.996
2026/05/14 10:34:34.864,0.161,-0.111,0.994
2026/05/14 10:34:34.882,0.159,-0.109,0.988
2026/05/14 10:34:34.901,0.16,-0.111,0.991
2026/05/14 10:34:34.920,0.16,-0.104,0.998
2026/05/14 10:34:34.939,0.161,-0.108,0.994
2026/05/14 10:34:34.957,0.161,-0.112,0.994
2026/05/14 10:34:34.976,0.16,-0.112,0.991
2026/05/14 10:34:34.995,0.158,-0.11,0.993
2026/05/14 10:34:35.014,0.16,-0.114,0.995
2026/05/14 10:34:35.032,0.159,-0.113,0.993
2026/05/14 10:34:35.051,0.159,-0.114,0.99
2026/05/14 10:34:35.070,0.157,-0.112,0.988
2026/05/14 10:34:35.089,0.155,-0.111,0.992
2026/05/14 10:34:35.107,0.161,-0.106,0.993
2026/05/14 10:34:35.126,0.165,-0.108,0.992
2026/05/14 10:34:35.145,0.158,-0.107,0.993
2026/05/14 10:34:35.164,0.161,-0.108,0.993
2026/05/14 10:34:35.182,0.16,-0.109,0.99
2026/05/14 10:34:35.201,0.158,-0.108,0.993
2026/05/14 10:34:35.220,0.162,-0.109,0.994
2026/05/14 10:34:35.239,0.161,-0.113,0.99
2026/05/14 10:34:35.257,0.159,-0.112,0.993
2026/05/14 10:34:35.276,0.16,-0.113,0.992
2026/05/14 10:34:35.295,0.16,-0.113,0.991
2026/05/14 10:34:35.314,0.161,-0.107,0.991
2026/05/14 10:34:35.332,0.161,-0.109,0.992
2026/05/14 10:34:35.351,0.16,-0.109,0.993
2026/05/14 10:34:35.370,0.16,-0.108,0.99
2026/05/14 10:34:35.388,0.162,-0.111,0.996
2026/05/14 10:34:35.407,0.159,-0.109,0.991
2026/05/14 10:34:35.426,0.161,-0.105,0.994
2026/05/14 10:34:35.445,0.157,-0.108,0.995
2026/05/14 10:34:35.463,0.158,-0.111,0.992
2026/05/14 10:34:35.482,0.162,-0.109,0.99
2026/05/14 10:34:35.501,0.16,-0.11,0.989
2026/05/14 10:34:35.520,0.163,-0.109,0.994
2026/05/14 10:34:35.538,0.162,-0.111,0.99
2026/05/14 10:34:35.557,0.16,-0.109,0.995
2026/05/14 10:34:35.576,0.162,-0.107,0.986
2026/05/14 10:34:35.595,0.161,-0.11,0.993
2026/05/14 10:34:35.613,0.163,-0.108,0.993
2026/05/14 10:34:35.632,0.159,-0.109,0.988
2026/05/14 10:34:35.651,0.161,-0.108,0.993
2026/05/14 10:34:35.670,0.163,-0.112,0.996
2026/05/14 10:34:35.688,0.158,-0.113,0.99
2026/05/14 10:34:35.707,0.156,-0.111,0.992
2026/05/14 10:34:35.726,0.161,-0.111,0.991
2026/05/14 10:34:35.745,0.162,-0.11,0.994
2026/05/14 10:34:35.763,0.157,-0.112,0.989
2026/05/14 10:34:35.782,0.157,-0.11,0.994
2026/05/14 10:34:35.801,0.157,-0.113,0.99
2026/05/14 10:34:35.820,0.158,-0.111,0.993
2026/05/14 10:34:35.838,0.16,-0.108,0.991
2026/05/14 10:34:35.857,0.161,-0.109,0.994
2026/05/14 10:34:35.876,0.159,-0.107,0.989
2026/05/14 10:34:35.895,0.164,-0.112,0.992
2026/05/14 10:34:35.913,0.158,-0.108,0.995
2026/05/14 10:34:35.932,0.157,-0.106,0.995
2026/05/14 10:34:35.951,0.165,-0.11,0.996
2026/05/14 10:34:35.970,0.159,-0.106,0.991
2026/05/14 10:34:35.988,0.161,-0.106,0.995
2026/05/14 10:34:36.007,0.159,-0.109,0.992
2026/05/14 10:34:36.026,0.158,-0.109,0.993
2026/05/14 10:34:36.045,0.158,-0.109,0.993
2026/05/14 10:34:36.063,0.159,-0.11,0.994
2026/05/14 10:34:36.082,0.158,-0.109,0.993
2026/05/14 10:34:36.101,0.16,-0.11,0.993
2026/05/14 10:34:36.119,0.156,-0.106,0.992
2026/05/14 10:34:36.138,0.156,-0.109,0.991
2026/05/14 10:34:36.157,0.159,-0.11,0.989
2026/05/14 10:34:36.176,0.159,-0.111,0.991
2026/05/14 10:34:36.194,0.157,-0.111,0.993
2026/05/14 10:34:36.213,0.162,-0.112,0.995
2026/05/14 10:34:36.232,0.159,-0.11,0.995
2026/05/14 10:34:36.251,0.156,-0.106,0.99
2026/05/14 10:34:36.269,0.169,-0.115,1.009
2026/05/14 10:34:36.288,0.165,-0.108,0.976
2026/05/14 10:34:36.307,0.162,-0.111,0.992
2026/05/14 10:34:36.326,0.165,-0.106,0.998
2026/05/14 10:34:36.344,0.155,-0.103,0.986
2026/05/14 10:34:36.363,0.164,-0.105,0.997
2026/05/14 10:34:36.382,0.159,-0.109,0.986
2026/05/14 10:34:36.401,0.158,-0.108,0.993
2026/05/14 10:34:36.419,0.161,-0.106,0.997
2026/05/14 10:34:36.438,0.158,-0.114,0.993
2026/05/14 10:34:36.457,0.16,-0.115,0.988
2026/05/14 10:34:36.476,0.156,-0.119,0.989
2026/05/14 10:34:36.494,0.154,-0.115,0.99
2026/05/14 10:34:36.513,0.158,-0.119,0.996
2026/05/14 10:34:36.532,0.158,-0.116,0.994
2026/05/14 10:34:36.551,0.165,-0.108,0.992
2026/05/14 10:34:36.569,0.162,-0.102,0.994
2026/05/14 10:34:36.588,0.159,-0.107,0.995
2026/05/14 10:34:36.607,0.162,-0.1,0.994
2026/05/14 10:34:36.626,0.164,-0.1,0.995
2026/05/14 10:34:36.644,0.16,-0.11,0.988
2026/05/14 10:34:36.663,0.157,-0.108,0.988
2026/05/14 10:34:36.682,0.158,-0.116,0.988
2026/05/14 10:34:36.701,0.158,-0.112,0.989
2026/05/14 10:34:36.719,0.16,-0.115,0.993
2026/05/14 10:34:36.738,0.161,-0.116,0.992
2026/05/14 10:34:36.757,0.157,-0.111,0.991
2026/05/14 10:34:36.775,0.157,-0.109,0.994
2026/05/14 10:34:36.794,0.16,-0.11,0.994
2026/05/14 10:34:36.813,0.157,-0.107,0.993
2026/05/14 10:34:36.832,0.162,-0.104,0.99
2026/05/14 10:34:36.850,0.16,-0.107,0.993
2026/05/14 10:34:36.869,0.162,-0.109,0.991
2026/05/14 10:34:36.888,0.159,-0.116,0.993
2026/05/14 10:34:36.907,0.158,-0.113,0.988
2026/05/14 10:34:36.925,0.156,-0.11,0.996
2026/05/14 10:34:36.944,0.162,-0.111,0.995
2026/05/14 10:34:36.963,0.16,-0.107,0.989
2026/05/14 10:34:36.982,0.164,-0.109,0.991
2026/05/14 10:34:37.000,0.164,-0.106,0.995
2026/05/14 10:34:37.019,0.163,-0.111,0.993
2026/05/14 10:34:37.038,0.157,-0.107,0.995
2026/05/14 10:34:37.057,0.157,-0.108,0.997
2026/05/14 10:34:37.075,0.155,-0.11,0.99
2026/05/14 10:34:37.094,0.16,-0.114,0.996
2026/05/14 10:34:37.113,0.162,-0.108,0.992
2026/05/14 10:34:37.132,0.161,-0.111,0.991
2026/05/14 10:34:37.150,0.165,-0.107,0.991
2026/05/14 10:34:37.169,0.16,-0.111,0.994
2026/05/14 10:34:37.188,0.16,-0.109,0.997
2026/05/14 10:34:37.207,0.159,-0.108,0.996
2026/05/14 10:34:37.225,0.158,-0.113,0.993
2026/05/14 10:34:37.244,0.158,-0.113,0.995
2026/05/14 10:34:37.263,0.161,-0.104,0.994
2026/05/14 10:34:37.282,0.165,-0.106,0.995
2026/05/14 10:34:37.300,0.163,-0.107,0.988
2026/05/14 10:34:37.319,0.157,-0.11,0.991
2026/05/14 10:34:37.338,0.154,-0.11,0.994
2026/05/14 10:34:37.357,0.155,-0.107,0.991
2026/05/14 10:34:37.375,0.156,-0.111,1.012
2026/05/14 10:34:37.394,0.154,-0.11,0.994
2026/05/14 10:34:37.413,0.153,-0.11,0.991
2026/05/14 10:34:37.431,0.16,-0.109,0.993
2026/05/14 10:34:37.450,0.166,-0.113,0.998
2026/05/14 10:34:37.469,0.162,-0.111,0.996
2026/05/14 10:34:37.488,0.156,-0.11,0.999
2026/05/14 10:34:37.506,0.152,-0.109,0.995
2026/05/14 10:34:37.525,0.153,-0.107,0.989
2026/05/14 10:34:37.544,0.159,-0.111,0.993
2026/05/14 10:34:37.563,0.159,-0.109,0.992
2026/05/14 10:34:37.581,0.164,-0.107,0.991
2026/05/14 10:34:37.600,0.164,-0.111,0.994
2026/05/14 10:34:37.619,0.159,-0.108,0.992
2026/05/14 10:34:37.638,0.155,-0.107,0.994
2026/05/14 10:34:37.656,0.157,-0.109,0.992
2026/05/14 10:34:37.675,0.157,-0.108,0.992
2026/05/14 10:34:37.694,0.156,-0.107,0.993
2026/05/14 10:34:37.713,0.161,-0.114,0.993
2026/05/14 10:34:37.731,0.16,-0.11,0.993
2026/05/14 10:34:37.750,0.159,-0.113,0.992
2026/05/14 10:34:37.769,0.162,-0.11,0.996
2026/05/14 10:34:37.788,0.16,-0.112,0.993
2026/05/14 10:34:37.806,0.157,-0.11,0.991
2026/05/14 10:34:37.825,0.156,-0.11,0.994
2026/05/14 10:34:37.844,0.157,-0.112,0.993
2026/05/14 10:34:37.863,0.16,-0.109,0.995
2026/05/14 10:34:37.881,0.162,-0.112,0.99
2026/05/14 10:34:37.900,0.16,-0.112,0.994
2026/05/14 10:34:37.919,0.161,-0.112,0.995
2026/05/14 10:34:37.938,0.161,-0.104,0.99
2026/05/14 10:34:37.956,0.157,-0.109,0.994
2026/05/14 10:34:37.975,0.16,-0.109,0.993
2026/05/14 10:34:37.994,0.162,-0.113,0.996
2026/05/14 10:34:38.012,0.163,-0.107,0.994
2026/05/14 10:34:38.031,0.158,-0.114,0.991
2026/05/14 10:34:38.050,0.163,-0.11,0.996
2026/05/14 10:34:38.069,0.16,-0.108,0.988
2026/05/14 10:34:38.087,0.16,-0.108,0.989
2026/05/14 10:34:38.106,0.159,-0.112,0.994
2026/05/14 10:34:38.125,0.157,-0.11,0.993
2026/05/14 10:34:38.144,0.161,-0.109,0.991
2026/05/14 10:34:38.162,0.159,-0.11,0.993
2026/05/14 10:34:38.181,0.157,-0.109,0.993
2026/05/14 10:34:38.200,0.163,-0.11,0.994
2026/05/14 10:34:38.219,0.162,-0.109,0.99
2026/05/14 10:34:38.237,0.157,-0.11,0.993
2026/05/14 10:34:38.256,0.16,-0.112,0.994
2026/05/14 10:34:38.275,0.158,-0.106,0.993
2026/05/14 10:34:38.294,0.161,-0.108,0.989
2026/05/14 10:34:38.312,0.162,-0.111,0.989
2026/05/14 10:34:38.331,0.162,-0.11,0.992
2026/05/14 10:34:38.350,0.16,-0.112,0.991
2026/05/14 10:34:38.369,0.157,-0.112,0.996
2026/05/14 10:34:38.387,0.156,-0.11,0.989
2026/05/14 10:34:38.406,0.16,-0.107,0.994
2026/05/14 10:34:38.425,0.157,-0.109,0.993
2026/05/14 10:34:38.444,0.158,-0.107,0.995
2026/05/14 10:34:38.462,0.161,-0.107,0.995
2026/05/14 10:34:38.481,0.157,-0.105,0.991
2026/05/14 10:34:38.500,0.161,-0.11,0.991
2026/05/14 10:34:38.519,0.158,-0.108,0.994
2026/05/14 10:34:38.537,0.161,-0.108,0.991
2026/05/14 10:34:38.556,0.159,-0.109,0.99
2026/05/14 10:34:38.575,0.162,-0.112,0.994
2026/05/14 10:34:38.594,0.16,-0.11,0.995
2026/05/14 10:34:38.612,0.16,-0.111,0.991
2026/05/14 10:34:38.631,0.162,-0.109,0.996
2026/05/14 10:34:38.650,0.16,-0.113,0.997
2026/05/14 10:34:38.668,0.16,-0.112,0.996
2026/05/14 10:34:38.687,0.159,-0.11,0.996
2026/05/14 10:34:38.706,0.161,-0.109,0.991
2026/05/14 10:34:38.725,0.16,-0.108,0.992
2026/05/14 10:34:38.743,0.161,-0.107,0.992
2026/05/14 10:34:38.762,0.162,-0.11,0.995
2026/05/14 10:34:38.781,0.159,-0.111,0.989
2026/05/14 10:34:38.800,0.158,-0.11,0.989
2026/05/14 10:34:38.818,0.161,-0.107,0.991
2026/05/14 10:34:38.837,0.161,-0.112,0.994
2026/05/14 10:34:38.856,0.164,-0.11,0.996
2026/05/14 10:34:38.875,0.163,-0.107,0.989
2026/05/14 10:34:38.893,0.155,-0.11,0.993
2026/05/14 10:34:38.912,0.16,-0.107,0.992
2026/05/14 10:34:38.931,0.161,-0.104,0.992
2026/05/14 10:34:38.950,0.155,-0.111,0.995
2026/05/14 10:34:38.968,0.16,-0.112,0.994
2026/05/14 10:34:38.987,0.162,-0.11,0.99
2026/05/14 10:34:39.006,0.158,-0.112,0.993
2026/05/14 10:34:39.025,0.157,-0.11,0.988
2026/05/14 10:34:39.043,0.156,-0.106,0.998
2026/05/14 10:34:39.062,0.156,-0.109,0.996
2026/05/14 10:34:39.081,0.159,-0.111,0.993
2026/05/14 10:34:39.100,0.164,-0.112,0.999
2026/05/14 10:34:39.118,0.165,-0.103,0.99
2026/05/14 10:34:39.137,0.155,-0.102,0.995
2026/05/14 10:34:39.156,0.157,-0.106,0.991
2026/05/14 10:34:39.175,0.159,-0.11,0.996
2026/05/14 10:34:39.193,0.152,-0.115,0.995
2026/05/14 10:34:39.212,0.159,-0.116,0.989
2026/05/14 10:34:39.231,0.161,-0.112,0.992
2026/05/14 10:34:39.249,0.161,-0.117,0.997
2026/05/14 10:34:39.268,0.166,-0.114,0.993
2026/05/14 10:34:39.287,0.158,-0.108,0.992
2026/05/14 10:34:39.306,0.158,-0.106,0.996
2026/05/14 10:34:39.324,0.157,-0.1,0.997
2026/05/14 10:34:39.343,0.162,-0.098,0.993
2026/05/14 10:34:39.362,0.161,-0.105,0.992
2026/05/14 10:34:39.381,0.16,-0.106,0.995
2026/05/14 10:34:39.399,0.167,-0.11,0.992
2026/05/14 10:34:39.418,0.161,-0.114,0.996
2026/05/14 10:34:39.437,0.157,-0.115,0.991
2026/05/14 10:34:39.456,0.158,-0.114,0.995
2026/05/14 10:34:39.474,0.157,-0.114,0.994
2026/05/14 10:34:39.493,0.158,-0.115,0.992
2026/05/14 10:34:39.512,0.156,-0.116,0.986
2026/05/14 10:34:39.531,0.161,-0.114,0.99
2026/05/14 10:34:39.549,0.169,-0.109,0.995
2026/05/14 10:34:39.568,0.162,-0.105,0.997
2026/05/14 10:34:39.587,0.161,-0.102,0.994
2026/05/14 10:34:39.606,0.161,-0.103,0.996
2026/05/14 10:34:39.624,0.158,-0.101,0.998
2026/05/14 10:34:39.643,0.156,-0.105,0.994
2026/05/14 10:34:39.662,0.162,-0.111,0.994
2026/05/14 10:34:39.681,0.165,-0.115,0.992
2026/05/14 10:34:39.699,0.161,-0.115,0.987
2026/05/14 10:34:39.718,0.162,-0.116,0.991
2026/05/14 10:34:39.737,0.159,-0.11,0.989
2026/05/14 10:34:39.755,0.16,-0.113,0.992
2026/05/14 10:34:39.774,0.158,-0.111,0.994
2026/05/14 10:34:39.793,0.158,-0.104,0.995
2026/05/14 10:34:39.812,0.159,-0.106,0.992
2026/05/14 10:34:39.830,0.165,-0.105,0.996
2026/05/14 10:34:39.849,0.163,-0.11,0.991
2026/05/14 10:34:39.868,0.162,-0.113,0.997
2026/05/14 10:34:39.887,0.16,-0.107,0.995
2026/05/14 10:34:39.905,0.159,-0.115,0.991
2026/05/14 10:34:39.924,0.155,-0.111,0.99
2026/05/14 10:34:39.943,0.16,-0.111,0.993
2026/05/14 10:34:39.962,0.157,-0.113,0.993
2026/05/14 10:34:39.980,0.159,-0.112,0.995
2026/05/14 10:34:39.999,0.162,-0.111,0.994
2026/05/14 10:34:40.018,0.162,-0.105,0.992
2026/05/14 10:34:40.037,0.162,-0.106,0.992
2026/05/14 10:34:40.055,0.16,-0.109,0.993
2026/05/14 10:34:40.074,0.159,-0.105,0.994
2026/05/14 10:34:40.093,0.157,-0.112,0.994
2026/05/14 10:34:40.112,0.16,-0.111,0.99
2026/05/14 10:34:40.130,0.157,-0.111,0.99
2026/05/14 10:34:40.149,0.161,-0.112,0.989
2026/05/14 10:34:40.168,0.159,-0.114,0.991
2026/05/14 10:34:40.187,0.156,-0.113,0.987
2026/05/14 10:34:40.205,0.156,-0.108,0.992
2026/05/14 10:34:40.224,0.157,-0.109,0.99
2026/05/14 10:34:40.243,0.161,-0.112,0.993
2026/05/14 10:34:40.261,0.16,-0.109,0.995
2026/05/14 10:34:40.280,0.162,-0.106,0.988
2026/05/14 10:34:40.299,0.161,-0.103,0.993
2026/05/14 10:34:40.318,0.163,-0.107,0.994
2026/05/14 10:34:40.336,0.156,-0.107,0.991
2026/05/14 10:34:40.355,0.158,-0.108,0.995
2026/05/14 10:34:40.374,0.159,-0.109,0.995
2026/05/14 10:34:40.393,0.159,-0.108,0.995
2026/05/14 10:34:40.411,0.162,-0.115,0.995
2026/05/14 10:34:40.430,0.157,-0.113,0.992
2026/05/14 10:34:40.449,0.156,-0.111,0.995
2026/05/14 10:34:40.468,0.162,-0.109,0.992
2026/05/14 10:34:40.486,0.159,-0.112,0.99
2026/05/14 10:34:40.505,0.158,-0.108,0.991
2026/05/14 10:34:40.524,0.159,-0.109,0.993
2026/05/14 10:34:40.543,0.158,-0.109,0.996
2026/05/14 10:34:40.561,0.161,-0.11,0.991
2026/05/14 10:34:40.580,0.16,-0.107,0.99
2026/05/14 10:34:40.599,0.162,-0.112,0.992
2026/05/14 10:34:40.618,0.16,-0.105,0.99
2026/05/14 10:34:40.636,0.162,-0.115,0.994
2026/05/14 10:34:40.655,0.158,-0.113,0.992
2026/05/14 10:34:40.674,0.16,-0.111,0.988
2026/05/14 10:34:40.693,0.16,-0.109,0.996
2026/05/14 10:34:40.711,0.162,-0.107,0.995
2026/05/14 10:34:40.730,0.16,-0.105,0.991
2026/05/14 10:34:40.749,0.159,-0.108,0.988
2026/05/14 10:34:40.767,0.162,-0.108,0.994
2026/05/14 10:34:40.786,0.157,-0.108,0.996
2026/05/14 10:34:40.805,0.158,-0.109,0.991
2026/05/14 10:34:40.824,0.16,-0.108,0.99
2026/05/14 10:34:40.842,0.16,-0.106,0.993
2026/05/14 10:34:40.861,0.158,-0.109,0.99
2026/05/14 10:34:40.880,0.159,-0.114,0.993
2026/05/14 10:34:40.899,0.16,-0.111,0.99
2026/05/14 10:34:40.917,0.154,-0.107,0.99
2026/05/14 10:34:40.936,0.157,-0.114,0.993
2026/05/14 10:34:40.955,0.161,-0.111,0.988
2026/05/14 10:34:40.974,0.161,-0.11,0.99
2026/05/14 10:34:40.992,0.159,-0.112,0.992
2026/05/14 10:34:41.011,0.161,-0.107,0.994
2026/05/14 10:34:41.030,0.16,-0.112,0.993
2026/05/14 10:34:41.049,0.161,-0.11,0.997
2026/05/14 10:34:41.067,0.16,-0.109,0.995
2026/05/14 10:34:41.086,0.159,-0.115,0.992
2026/05/14 10:34:41.105,0.162,-0.114,0.994
2026/05/14 10:34:41.124,0.157,-0.11,0.994
2026/05/14 10:34:41.142,0.16,-0.109,0.993
2026/05/14 10:34:41.161,0.155,-0.115,0.996
2026/05/14 10:34:41.180,0.163,-0.11,0.992
2026/05/14 10:34:41.199,0.162,-0.112,0.992
2026/05/14 10:34:41.217,0.162,-0.105,0.99
2026/05/14 10:34:41.236,0.162,-0.111,0.991
2026/05/14 10:34:41.255,0.159,-0.11,0.988
2026/05/14 10:34:41.274,0.16,-0.108,0.993
2026/05/14 10:34:41.292,0.16,-0.108,0.992
2026/05/14 10:34:41.311,0.161,-0.109,0.991
2026/05/14 10:34:41.330,0.161,-0.108,0.99
2026/05/14 10:34:41.348,0.159,-0.113,0.99
2026/05/14 10:34:41.367,0.161,-0.113,0.991
2026/05/14 10:34:41.386,0.16,-0.109,0.99
2026/05/14 10:34:41.405,0.161,-0.11,0.999
2026/05/14 10:34:41.423,0.16,-0.108,0.993
2026/05/14 10:34:41.442,0.163,-0.115,0.981
2026/05/14 10:34:41.461,0.159,-0.112,0.999
2026/05/14 10:34:41.480,0.162,-0.113,1.0
2026/05/14 10:34:41.498,0.158,-0.114,0.989
2026/05/14 10:34:41.517,0.155,-0.108,0.986
2026/05/14 10:34:41.536,0.166,-0.105,0.994
2026/05/14 10:34:41.555,0.162,-0.112,0.992
2026/05/14 10:34:41.573,0.156,-0.108,0.987
2026/05/14 10:34:41.592,0.162,-0.11,0.99
2026/05/14 10:34:41.611,0.159,-0.114,0.987
2026/05/14 10:34:41.630,0.158,-0.106,0.989
2026/05/14 10:34:41.648,0.16,-0.114,0.993
2026/05/14 10:34:41.667,0.156,-0.111,0.99
2026/05/14 10:34:41.686,0.157,-0.11,0.992
2026/05/14 10:34:41.705,0.159,-0.107,0.993
2026/05/14 10:34:41.723,0.156,-0.111,0.988
2026/05/14 10:34:41.742,0.157,-0.112,0.988
2026/05/14 10:34:41.761,0.161,-0.107,0.991
2026/05/14 10:34:41.780,0.162,-0.104,0.992
2026/05/14 10:34:41.798,0.158,-0.106,0.995
2026/05/14 10:34:41.817,0.158,-0.111,0.988
2026/05/14 10:34:41.836,0.161,-0.106,0.991
2026/05/14 10:34:41.855,0.157,-0.112,0.999
2026/05/14 10:34:41.873,0.157,-0.113,0.988
2026/05/14 10:34:41.892,0.158,-0.107,0.993
2026/05/14 10:34:41.911,0.16,-0.11,0.992
2026/05/14 10:34:41.929,0.163,-0.11,0.997
2026/05/14 10:34:41.948,0.163,-0.111,0.994
2026/05/14 10:34:41.967,0.162,-0.113,0.992
2026/05/14 10:34:41.986,0.156,-0.11,0.991
2026/05/14 10:34:42.004,0.163,-0.111,0.993
2026/05/14 10:34:42.023,0.163,-0.111,0.993
2026/05/14 10:34:42.042,0.165,-0.109,0.992
2026/05/14 10:34:42.061,0.157,-0.107,0.992
2026/05/14 10:34:42.079,0.161,-0.11,0.989
2026/05/14 10:34:42.098,0.162,-0.109,0.993
2026/05/14 10:34:42.117,0.157,-0.106,0.993
2026/05/14 10:34:42.136,0.159,-0.109,0.992
2026/05/14 10:34:42.154,0.162,-0.115,0.993
2026/05/14 10:34:42.173,0.157,-0.108,0.993
2026/05/14 10:34:42.192,0.157,-0.114,0.99
2026/05/14 10:34:42.211,0.16,-0.113,0.995
2026/05/14 10:34:42.229,0.161,-0.105,0.991
2026/05/14 10:34:42.248,0.161,-0.107,0.991
2026/05/14 10:34:42.267,0.155,-0.109,0.992
2026/05/14 10:34:42.286,0.162,-0.112,0.993
2026/05/14 10:34:42.304,0.159,-0.109,0.994
2026/05/14 10:34:42.323,0.162,-0.109,0.994
2026/05/14 10:34:42.342,0.16,-0.107,0.989
2026/05/14 10:34:42.361,0.16,-0.11,0.99
2026/05/14 10:34:42.379,0.159,-0.112,0.996
2026/05/14 10:34:42.398,0.16,-0.111,0.992
2026/05/14 10:34:42.417,0.158,-0.111,0.991
2026/05/14 10:34:42.436,0.156,-0.111,0.994
2026/05/14 10:34:42.454,0.161,-0.108,0.993
2026/05/14 10:34:42.473,0.16,-0.106,0.995
2026/05/14 10:34:42.492,0.159,-0.111,0.99
2026/05/14 10:34:42.511,0.161,-0.107,0.998
2026/05/14 10:34:42.529,0.159,-0.112,0.992
2026/05/14 10:34:42.548,0.156,-0.106,0.994
2026/05/14 10:34:42.567,0.159,-0.108,0.997
2026/05/14 10:34:42.585,0.159,-0.108,0.996
2026/05/14 10:34:42.604,0.154,-0.111,0.991
2026/05/14 10:34:42.623,0.156,-0.107,0.995
2026/05/14 10:34:42.642,0.157,-0.11,0.989
2026/05/14 10:34:42.660,0.159,-0.111,0.998
2026/05/14 10:34:42.679,0.163,-0.106,0.992
2026/05/14 10:34:42.698,0.163,-0.113,0.992
2026/05/14 10:34:42.717,0.163,-0.108,0.995
2026/05/14 10:34:42.735,0.16,-0.108,0.992
2026/05/14 10:34:42.754,0.157,-0.108,0.993
2026/05/14 10:34:42.773,0.16,-0.114,0.99
2026/05/14 10:34:42.792,0.157,-0.109,0.992
2026/05/14 10:34:42.810,0.16,-0.115,0.99
2026/05/14 10:34:42.829,0.165,-0.112,0.993
2026/05/14 10:34:42.848,0.158,-0.112,0.995
2026/05/14 10:34:42.867,0.161,-0.108,0.994
2026/05/14 10:34:42.885,0.158,-0.112,0.995
2026/05/14 10:34:42.904,0.16,-0.108,0.996
2026/05/14 10:34:42.923,0.155,-0.108,0.995
2026/05/14 10:34:42.942,0.158,-0.105,0.993
2026/05/14 10:34:42.960,0.161,-0.108,0.994
2026/05/14 10:34:42.979,0.16,-0.109,0.996
2026/05/14 10:34:42.998,0.162,-0.11,0.994
2026/05/14 10:34:43.017,0.159,-0.11,0.996
2026/05/14 10:34:43.035,0.156,-0.111,0.993
2026/05/14 10:34:43.054,0.158,-0.109,0.994
2026/05/14 10:34:43.073,0.158,-0.113,0.992
2026/05/14 10:34:43.092,0.156,-0.111,0.994
2026/05/14 10:34:43.110,0.16,-0.11,0.993
2026/05/14 10:34:43.129,0.16,-0.111,0.99
2026/05/14 10:34:43.148,0.16,-0.111,0.99
2026/05/14 10:34:43.166,0.163,-0.113,0.995
