Timestamp,ACC X,ACC Y,ACC Z
2026/05/14 10:32:51.597,0.03,0.06,1.006
2026/05/14 10:32:51.616,0.021,0.056,1.024
2026/05/14 10:32:51.635,0.018,0.046,1.01
2026/05/14 10:32:51.654,0.01,0.045,1.011
2026/05/14 10:32:51.674,0.005,0.044,1.015
2026/05/14 10:32:51.693,0.005,0.029,1.021
2026/05/14 10:32:51.712,0.001,0.026,1.007
2026/05/14 10:32:51.731,0.004,0.044,1.003
2026/05/14 10:32:51.751,0.01,0.055,1.008
2026/05/14 10:32:51.770,0.008,0.063,1.01
2026/05/14 10:32:51.789,0.007,0.072,1.005
2026/05/14 10:32:51.808,0.004,0.071,1.003
2026/05/14 10:32:51.828,-0.004,0.061,1.014
2026/05/14 10:32:51.847,-0.006,0.05,1.013
2026/05/14 10:32:51.866,-0.005,0.039,1.01
2026/05/14 10:32:51.885,0.002,0.037,1.01
2026/05/14 10:32:51.904,0.011,0.038,1.016
2026/05/14 10:32:51.924,0.011,0.046,1.017
2026/05/14 10:32:51.943,0.017,0.048,1.001
2026/05/14 10:32:51.962,0.025,0.051,1.014
2026/05/14 10:32:51.981,0.023,0.051,1.011
2026/05/14 10:32:52.001,0.024,0.06,1.009
2026/05/14 10:32:52.020,0.016,0.051,1.014
2026/05/14 10:32:52.039,0.0,0.044,1.016
2026/05/14 10:32:52.058,-0.012,0.042,1.006
2026/05/14 10:32:52.078,-0.012,0.043,1.017
2026/05/14 10:32:52.097,-0.011,0.055,1.012
2026/05/14 10:32:52.116,-0.009,0.06,1.002
2026/05/14 10:32:52.135,0.012,0.062,1.011
2026/05/14 10:32:52.154,0.011,0.068,1.012
2026/05/14 10:32:52.174,0.022,0.053,1.003
2026/05/14 10:32:52.193,0.015,0.041,1.006
2026/05/14 10:32:52.212,0.027,0.032,0.989
2026/05/14 10:32:52.231,0.042,0.037,1.046
2026/05/14 10:32:52.251,0.026,0.027,1.027
2026/05/14 10:32:52.270,0.011,0.028,0.989
2026/05/14 10:32:52.289,-0.016,0.036,0.997
2026/05/14 10:32:52.308,-0.011,0.069,1.0
2026/05/14 10:32:52.328,-0.047,0.079,1.019
2026/05/14 10:32:52.347,-0.031,0.067,1.016
2026/05/14 10:32:52.366,-0.033,0.09,0.991
2026/05/14 10:32:52.385,-0.029,0.075,1.059
2026/05/14 10:32:52.404,0.015,0.058,1.013
2026/05/14 10:32:52.424,0.02,0.073,1.009
2026/05/14 10:32:52.443,0.046,0.074,0.986
2026/05/14 10:32:52.462,0.03,0.035,1.018
2026/05/14 10:32:52.481,0.024,0.032,0.974
2026/05/14 10:32:52.501,0.032,0.03,1.034
2026/05/14 10:32:52.520,0.019,0.016,1.017
2026/05/14 10:32:52.539,0.026,-0.009,1.012
2026/05/14 10:32:52.558,-0.003,0.017,1.02
2026/05/14 10:32:52.578,-0.002,0.054,1.015
2026/05/14 10:32:52.597,0.069,0.021,1.062
2026/05/14 10:32:52.616,0.011,0.066,1.022
2026/05/14 10:32:52.635,-0.014,0.127,0.953
2026/05/14 10:32:52.654,-0.019,0.105,0.993
2026/05/14 10:32:52.674,0.008,0.066,1.059
2026/05/14 10:32:52.693,-0.048,0.066,0.973
2026/05/14 10:32:52.712,-0.031,0.061,0.966
2026/05/14 10:32:52.731,-0.032,0.052,0.997
2026/05/14 10:32:52.751,-0.001,0.007,1.033
2026/05/14 10:32:52.770,0.026,0.015,1.001
2026/05/14 10:32:52.789,0.035,0.024,1.007
2026/05/14 10:32:52.808,0.041,0.025,1.027
2026/05/14 10:32:52.828,0.052,0.046,1.02
2026/05/14 10:32:52.847,0.034,0.074,1.019
2026/05/14 10:32:52.866,0.028,0.068,1.024
2026/05/14 10:32:52.885,0.011,0.064,1.0
2026/05/14 10:32:52.904,0.017,0.054,1.006
2026/05/14 10:32:52.924,-0.008,0.022,1.032
2026/05/14 10:32:52.943,-0.024,0.028,0.985
2026/05/14 10:32:52.962,-0.015,0.03,1.006
2026/05/14 10:32:52.981,-0.008,0.051,0.921
2026/05/14 10:32:53.001,0.055,0.047,0.998
2026/05/14 10:32:53.020,0.023,0.087,0.986
2026/05/14 10:32:53.039,0.011,0.09,1.001
2026/05/14 10:32:53.058,0.028,0.047,1.053
2026/05/14 10:32:53.078,-0.015,0.1,0.997
2026/05/14 10:32:53.097,0.066,0.04,1.057
2026/05/14 10:32:53.116,-0.02,0.023,0.985
2026/05/14 10:32:53.135,-0.029,0.028,1.031
2026/05/14 10:32:53.154,-0.055,0.029,1.078
2026/05/14 10:32:53.174,-0.032,0.049,1.037
2026/05/14 10:32:53.193,0.037,0.057,1.019
2026/05/14 10:32:53.212,-0.005,0.052,1.02
2026/05/14 10:32:53.231,-0.029,0.061,1.142
2026/05/14 10:32:53.251,0.017,0.093,0.977
2026/05/14 10:32:53.270,-0.011,0.08,1.029
2026/05/14 10:32:53.289,-0.01,0.052,1.013
2026/05/14 10:32:53.308,-0.004,0.041,1.008
2026/05/14 10:32:53.327,0.016,0.038,1.023
2026/05/14 10:32:53.346,0.003,0.024,1.036
2026/05/14 10:32:53.364,0.016,0.029,1.007
2026/05/14 10:32:53.383,0.032,0.042,0.992
2026/05/14 10:32:53.402,-0.047,0.085,1.085
2026/05/14 10:32:53.421,-0.041,0.062,1.001
2026/05/14 10:32:53.439,0.076,0.046,0.967
2026/05/14 10:32:53.458,0.005,0.044,0.991
2026/05/14 10:32:53.477,0.002,0.035,1.01
2026/05/14 10:32:53.495,-0.008,0.054,0.987
2026/05/14 10:32:53.514,-0.016,0.056,0.982
2026/05/14 10:32:53.533,0.012,0.031,1.042
2026/05/14 10:32:53.551,-0.011,0.059,1.021
2026/05/14 10:32:53.570,0.002,0.073,1.001
2026/05/14 10:32:53.589,0.019,0.064,1.02
2026/05/14 10:32:53.607,0.01,0.054,1.002
2026/05/14 10:32:53.626,0.011,0.051,1.009
2026/05/14 10:32:53.645,0.009,0.044,1.01
2026/05/14 10:32:53.664,0.001,0.033,0.996
2026/05/14 10:32:53.682,0.012,0.019,0.999
2026/05/14 10:32:53.701,0.021,0.044,1.017
2026/05/14 10:32:53.720,0.022,0.051,1.01
2026/05/14 10:32:53.738,0.018,0.062,0.998
2026/05/14 10:32:53.757,0.006,0.061,1.019
2026/05/14 10:32:53.776,0.017,0.057,1.014
2026/05/14 10:32:53.794,0.038,0.028,1.087
2026/05/14 10:32:53.813,-0.01,0.018,1.4
2026/05/14 10:32:53.832,-0.079,0.08,0.983
2026/05/14 10:32:53.851,-0.018,0.053,0.763
2026/05/14 10:32:53.869,-0.002,0.07,0.963
2026/05/14 10:32:53.888,0.022,0.039,0.985
2026/05/14 10:32:53.907,0.029,0.085,0.913
2026/05/14 10:32:53.925,0.005,0.107,0.983
2026/05/14 10:32:53.944,0.045,0.026,1.058
2026/05/14 10:32:53.963,0.032,0.071,0.961
2026/05/14 10:32:53.981,0.027,0.031,1.08
2026/05/14 10:32:54.000,-0.006,0.028,1.014
2026/05/14 10:32:54.019,-0.023,0.057,1.005
2026/05/14 10:32:54.038,-0.014,0.025,1.042
2026/05/14 10:32:54.056,-0.006,0.028,1.019
2026/05/14 10:32:54.075,0.0,0.047,0.995
2026/05/14 10:32:54.094,0.018,0.046,1.012
2026/05/14 10:32:54.112,0.02,0.043,1.013
2026/05/14 10:32:54.131,0.025,0.063,0.998
2026/05/14 10:32:54.150,0.038,0.063,1.005
2026/05/14 10:32:54.168,0.02,0.05,1.023
2026/05/14 10:32:54.187,-0.001,0.053,0.987
2026/05/14 10:32:54.206,0.023,0.038,1.021
2026/05/14 10:32:54.225,0.007,0.027,1.014
2026/05/14 10:32:54.243,-0.132,0.044,1.128
2026/05/14 10:32:54.262,-0.047,0.056,0.958
2026/05/14 10:32:54.281,0.034,0.043,1.027
2026/05/14 10:32:54.299,0.005,0.063,1.012
2026/05/14 10:32:54.318,0.009,0.06,1.025
2026/05/14 10:32:54.337,-0.007,0.063,1.003
2026/05/14 10:32:54.355,0.016,0.067,0.986
2026/05/14 10:32:54.374,0.04,0.037,1.044
2026/05/14 10:32:54.393,0.004,0.042,1.026
2026/05/14 10:32:54.412,0.001,0.043,1.0
2026/05/14 10:32:54.430,0.002,0.043,1.017
2026/05/14 10:32:54.449,0.013,0.046,0.976
2026/05/14 10:32:54.468,0.032,0.053,1.03
2026/05/14 10:32:54.486,0.003,0.068,0.992
2026/05/14 10:32:54.505,0.005,0.06,1.007
2026/05/14 10:32:54.524,0.009,0.044,1.016
2026/05/14 10:32:54.542,0.018,0.043,0.992
2026/05/14 10:32:54.561,0.008,0.046,1.029
2026/05/14 10:32:54.580,-0.005,0.044,1.014
2026/05/14 10:32:54.599,-0.007,0.053,0.991
2026/05/14 10:32:54.617,0.026,0.056,1.032
2026/05/14 10:32:54.636,0.009,0.062,1.021
2026/05/14 10:32:54.655,0.001,0.064,1.006
2026/05/14 10:32:54.673,-0.016,0.071,1.008
2026/05/14 10:32:54.692,-0.014,0.073,1.004
2026/05/14 10:32:54.711,-0.008,0.049,1.019
2026/05/14 10:32:54.729,-0.014,0.042,1.003
2026/05/14 10:32:54.748,0.002,0.042,1.014
2026/05/14 10:32:54.767,0.009,0.041,1.015
2026/05/14 10:32:54.786,0.019,0.044,1.007
2026/05/14 10:32:54.804,0.029,0.043,1.011
2026/05/14 10:32:54.823,0.029,0.046,1.013
2026/05/14 10:32:54.842,0.025,0.038,1.004
2026/05/14 10:32:54.860,0.015,0.038,1.01
2026/05/14 10:32:54.879,-0.004,0.045,1.012
2026/05/14 10:32:54.898,-0.006,0.052,1.001
2026/05/14 10:32:54.916,-0.008,0.06,1.017
2026/05/14 10:32:54.935,0.005,0.074,1.006
2026/05/14 10:32:54.954,0.001,0.094,1.028
2026/05/14 10:32:54.972,-0.012,0.079,1.017
2026/05/14 10:32:54.991,0.004,0.076,0.943
2026/05/14 10:32:55.010,-0.005,0.047,1.059
2026/05/14 10:32:55.029,0.02,0.029,1.035
2026/05/14 10:32:55.047,0.015,0.018,1.034
2026/05/14 10:32:55.066,0.006,0.001,1.016
2026/05/14 10:32:55.085,0.054,0.006,1.03
2026/05/14 10:32:55.103,0.045,0.016,1.038
2026/05/14 10:32:55.122,0.006,0.055,1.019
2026/05/14 10:32:55.141,0.043,0.066,0.94
2026/05/14 10:32:55.159,-0.002,0.104,0.991
2026/05/14 10:32:55.178,-0.014,0.101,0.987
2026/05/14 10:32:55.197,-0.033,0.053,1.031
2026/05/14 10:32:55.216,-0.045,0.073,0.991
2026/05/14 10:32:55.234,0.001,0.033,1.055
2026/05/14 10:32:55.253,0.002,0.002,1.052
2026/05/14 10:32:55.272,0.025,0.032,1.028
2026/05/14 10:32:55.290,0.031,0.037,0.992
2026/05/14 10:32:55.309,0.031,0.041,1.024
2026/05/14 10:32:55.328,0.033,0.054,0.965
2026/05/14 10:32:55.346,0.056,0.053,0.998
2026/05/14 10:32:55.365,0.045,0.046,1.015
2026/05/14 10:32:55.384,0.02,0.053,0.997
2026/05/14 10:32:55.403,0.014,0.048,0.993
2026/05/14 10:32:55.421,0.0,0.045,1.032
2026/05/14 10:32:55.440,-0.02,0.041,1.008
2026/05/14 10:32:55.459,-0.017,0.055,0.999
2026/05/14 10:32:55.477,-0.026,0.065,1.023
2026/05/14 10:32:55.496,-0.021,0.062,1.012
2026/05/14 10:32:55.515,-0.013,0.078,1.001
2026/05/14 10:32:55.533,0.009,0.079,1.014
2026/05/14 10:32:55.552,0.009,0.063,1.007
2026/05/14 10:32:55.571,0.015,0.049,1.0
2026/05/14 10:32:55.589,0.016,0.037,1.012
2026/05/14 10:32:55.608,0.015,0.028,1.005
2026/05/14 10:32:55.627,0.025,0.026,1.014
2026/05/14 10:32:55.646,0.019,0.036,1.012
2026/05/14 10:32:55.664,0.019,0.043,1.009
2026/05/14 10:32:55.683,0.016,0.057,1.006
2026/05/14 10:32:55.702,0.022,0.07,1.009
2026/05/14 10:32:55.720,0.012,0.064,1.019
2026/05/14 10:32:55.739,0.001,0.06,1.012
2026/05/14 10:32:55.758,-0.018,0.054,0.999
2026/05/14 10:32:55.776,-0.015,0.051,1.022
2026/05/14 10:32:55.795,-0.022,0.046,1.014
2026/05/14 10:32:55.814,-0.012,0.05,1.007
2026/05/14 10:32:55.833,0.001,0.055,1.011
2026/05/14 10:32:55.851,0.01,0.058,1.01
2026/05/14 10:32:55.870,0.023,0.054,1.012
2026/05/14 10:32:55.889,0.019,0.05,1.012
2026/05/14 10:32:55.907,0.019,0.046,1.01
2026/05/14 10:32:55.926,0.019,0.041,1.006
2026/05/14 10:32:55.945,0.015,0.041,1.013
2026/05/14 10:32:55.963,0.013,0.04,1.015
2026/05/14 10:32:55.982,0.016,0.041,1.001
2026/05/14 10:32:56.001,0.01,0.049,1.01
2026/05/14 10:32:56.020,0.003,0.056,1.01
2026/05/14 10:32:56.038,0.0,0.059,1.007
2026/05/14 10:32:56.057,-0.009,0.058,1.009
2026/05/14 10:32:56.076,-0.01,0.06,1.012
2026/05/14 10:32:56.094,-0.007,0.059,1.009
2026/05/14 10:32:56.113,-0.001,0.055,1.013
2026/05/14 10:32:56.132,0.007,0.05,1.014
2026/05/14 10:32:56.150,0.009,0.044,1.017
2026/05/14 10:32:56.169,0.01,0.042,1.012
2026/05/14 10:32:56.188,0.016,0.048,1.009
2026/05/14 10:32:56.207,0.016,0.044,1.011
2026/05/14 10:32:56.225,0.015,0.045,1.008
2026/05/14 10:32:56.244,0.019,0.05,1.013
2026/05/14 10:32:56.263,0.015,0.054,1.013
2026/05/14 10:32:56.281,0.013,0.055,1.008
2026/05/14 10:32:56.300,0.006,0.052,1.014
2026/05/14 10:32:56.319,-0.001,0.051,1.018
2026/05/14 10:32:56.337,-0.005,0.047,1.011
2026/05/14 10:32:56.356,-0.008,0.052,1.014
2026/05/14 10:32:56.375,-0.007,0.055,1.014
2026/05/14 10:32:56.393,0.0,0.058,1.015
2026/05/14 10:32:56.412,0.009,0.058,1.013
2026/05/14 10:32:56.431,0.015,0.054,1.014
2026/05/14 10:32:56.450,0.009,0.05,1.014
2026/05/14 10:32:56.468,0.015,0.046,1.009
2026/05/14 10:32:56.487,0.009,0.042,1.01
2026/05/14 10:32:56.506,0.01,0.041,1.009
2026/05/14 10:32:56.524,0.011,0.046,1.007
2026/05/14 10:32:56.543,0.016,0.049,1.012
2026/05/14 10:32:56.562,0.012,0.052,1.009
2026/05/14 10:32:56.580,0.007,0.058,1.009
2026/05/14 10:32:56.599,0.007,0.052,1.01
2026/05/14 10:32:56.618,0.0,0.052,1.017
2026/05/14 10:32:56.637,-0.006,0.052,1.01
2026/05/14 10:32:56.655,-0.002,0.051,1.013
2026/05/14 10:32:56.674,0.002,0.052,1.01
2026/05/14 10:32:56.693,0.007,0.056,1.01
2026/05/14 10:32:56.711,0.01,0.056,1.012
2026/05/14 10:32:56.730,0.011,0.051,1.004
2026/05/14 10:32:56.749,0.011,0.047,1.01
2026/05/14 10:32:56.767,0.01,0.051,1.005
2026/05/14 10:32:56.786,0.014,0.047,1.013
2026/05/14 10:32:56.805,0.011,0.045,1.014
2026/05/14 10:32:56.824,0.007,0.053,1.011
2026/05/14 10:32:56.842,0.011,0.049,1.009
2026/05/14 10:32:56.861,0.004,0.055,1.014
2026/05/14 10:32:56.880,0.0,0.054,1.014
2026/05/14 10:32:56.898,-0.001,0.053,1.008
2026/05/14 10:32:56.917,0.001,0.052,1.013
2026/05/14 10:32:56.936,-0.001,0.054,1.011
2026/05/14 10:32:56.954,0.002,0.057,1.011
2026/05/14 10:32:56.973,0.005,0.055,1.014
2026/05/14 10:32:56.992,0.006,0.049,1.009
2026/05/14 10:32:57.011,0.006,0.051,1.007
2026/05/14 10:32:57.029,0.011,0.049,1.013
2026/05/14 10:32:57.048,0.011,0.047,1.009
2026/05/14 10:32:57.067,0.008,0.045,1.013
2026/05/14 10:32:57.085,0.013,0.049,1.01
2026/05/14 10:32:57.104,0.013,0.049,1.017
2026/05/14 10:32:57.123,0.005,0.05,1.009
2026/05/14 10:32:57.141,0.008,0.049,1.011
2026/05/14 10:32:57.160,0.003,0.051,1.013
2026/05/14 10:32:57.179,0.003,0.05,1.012
2026/05/14 10:32:57.197,0.001,0.056,1.015
2026/05/14 10:32:57.216,0.002,0.052,1.005
2026/05/14 10:32:57.235,0.008,0.057,1.01
2026/05/14 10:32:57.254,0.009,0.054,1.012
2026/05/14 10:32:57.272,0.007,0.056,1.017
2026/05/14 10:32:57.291,0.012,0.051,1.008
2026/05/14 10:32:57.310,0.009,0.053,1.012
2026/05/14 10:32:57.328,0.01,0.046,1.01
2026/05/14 10:32:57.347,0.01,0.049,1.01
2026/05/14 10:32:57.366,0.009,0.047,1.015
2026/05/14 10:32:57.384,0.009,0.051,1.015
2026/05/14 10:32:57.403,0.006,0.051,1.011
2026/05/14 10:32:57.422,0.009,0.056,1.01
2026/05/14 10:32:57.441,0.005,0.053,1.014
2026/05/14 10:32:57.459,0.004,0.048,1.006
2026/05/14 10:32:57.478,0.004,0.053,1.012
2026/05/14 10:32:57.497,-0.001,0.054,1.016
2026/05/14 10:32:57.515,0.004,0.054,1.009
2026/05/14 10:32:57.534,0.007,0.053,1.013
2026/05/14 10:32:57.553,0.009,0.048,1.013
2026/05/14 10:32:57.571,0.009,0.055,1.007
2026/05/14 10:32:57.590,0.011,0.053,1.006
2026/05/14 10:32:57.609,0.01,0.05,1.013
2026/05/14 10:32:57.628,0.012,0.053,1.008
2026/05/14 10:32:57.646,0.009,0.048,1.012
2026/05/14 10:32:57.665,0.008,0.054,1.013
2026/05/14 10:32:57.684,0.01,0.051,1.014
2026/05/14 10:32:57.702,0.005,0.053,1.013
2026/05/14 10:32:57.721,0.006,0.051,1.01
2026/05/14 10:32:57.740,0.001,0.051,1.009
2026/05/14 10:32:57.758,0.002,0.051,1.014
2026/05/14 10:32:57.777,0.004,0.052,1.013
2026/05/14 10:32:57.796,0.006,0.052,1.008
2026/05/14 10:32:57.815,0.004,0.051,1.011
2026/05/14 10:32:57.833,0.006,0.05,1.013
2026/05/14 10:32:57.852,0.005,0.053,1.008
2026/05/14 10:32:57.871,0.009,0.047,1.011
2026/05/14 10:32:57.889,0.009,0.047,1.011
2026/05/14 10:32:57.908,0.008,0.047,1.008
2026/05/14 10:32:57.927,0.008,0.054,1.014
2026/05/14 10:32:57.945,0.008,0.054,1.008
2026/05/14 10:32:57.964,0.007,0.051,1.009
2026/05/14 10:32:57.983,0.003,0.054,1.013
2026/05/14 10:32:58.001,0.003,0.054,1.014
2026/05/14 10:32:58.020,0.005,0.054,1.01
2026/05/14 10:32:58.039,0.0,0.048,1.012
2026/05/14 10:32:58.058,0.006,0.052,1.009
2026/05/14 10:32:58.076,0.007,0.056,1.011
2026/05/14 10:32:58.095,0.006,0.054,1.01
2026/05/14 10:32:58.114,0.007,0.052,1.008
2026/05/14 10:32:58.132,0.008,0.048,1.011
2026/05/14 10:32:58.151,0.009,0.049,1.009
2026/05/14 10:32:58.170,0.009,0.051,1.002
2026/05/14 10:32:58.188,0.009,0.048,1.01
2026/05/14 10:32:58.207,0.009,0.047,1.011
2026/05/14 10:32:58.226,0.009,0.049,1.011
2026/05/14 10:32:58.245,0.009,0.047,1.013
2026/05/14 10:32:58.263,0.009,0.056,1.01
2026/05/14 10:32:58.282,0.009,0.051,1.007
2026/05/14 10:32:58.301,0.009,0.05,1.011
2026/05/14 10:32:58.319,0.004,0.047,1.011
2026/05/14 10:32:58.338,0.0,0.05,1.012
2026/05/14 10:32:58.357,0.004,0.051,1.009
2026/05/14 10:32:58.375,0.008,0.046,1.012
2026/05/14 10:32:58.394,0.011,0.053,1.012
2026/05/14 10:32:58.413,0.01,0.048,1.013
2026/05/14 10:32:58.432,0.007,0.048,1.014
2026/05/14 10:32:58.450,0.006,0.047,1.01
2026/05/14 10:32:58.469,0.005,0.051,1.012
2026/05/14 10:32:58.488,0.006,0.048,1.014
2026/05/14 10:32:58.506,0.011,0.055,1.011
2026/05/14 10:32:58.525,0.008,0.051,1.016
2026/05/14 10:32:58.544,0.006,0.054,1.011
2026/05/14 10:32:58.562,0.008,0.049,1.012
2026/05/14 10:32:58.581,0.007,0.054,1.01
2026/05/14 10:32:58.600,0.005,0.054,1.014
2026/05/14 10:32:58.619,0.005,0.049,1.007
2026/05/14 10:32:58.637,0.004,0.051,1.008
2026/05/14 10:32:58.656,0.008,0.055,1.012
2026/05/14 10:32:58.675,0.013,0.051,1.007
2026/05/14 10:32:58.693,0.006,0.05,1.012
2026/05/14 10:32:58.712,0.004,0.049,1.009
2026/05/14 10:32:58.731,0.003,0.052,1.012
2026/05/14 10:32:58.749,0.01,0.048,1.015
2026/05/14 10:32:58.768,0.006,0.052,1.004
2026/05/14 10:32:58.787,0.007,0.049,1.008
2026/05/14 10:32:58.805,0.008,0.054,1.013
2026/05/14 10:32:58.824,0.008,0.054,1.011
2026/05/14 10:32:58.843,0.006,0.051,1.012
2026/05/14 10:32:58.862,0.007,0.051,1.014
2026/05/14 10:32:58.880,0.003,0.054,1.01
2026/05/14 10:32:58.899,0.005,0.053,1.01
2026/05/14 10:32:58.918,0.005,0.05,1.014
2026/05/14 10:32:58.936,0.006,0.054,1.011
2026/05/14 10:32:58.955,0.006,0.052,1.013
2026/05/14 10:32:58.974,0.007,0.046,1.012
2026/05/14 10:32:58.992,0.008,0.052,1.014
2026/05/14 10:32:59.011,0.007,0.05,1.014
2026/05/14 10:32:59.030,0.008,0.049,1.008
2026/05/14 10:32:59.049,0.006,0.052,1.005
2026/05/14 10:32:59.067,0.005,0.052,1.013
2026/05/14 10:32:59.086,0.006,0.049,1.014
2026/05/14 10:32:59.105,0.005,0.049,1.014
2026/05/14 10:32:59.123,0.003,0.051,1.013
2026/05/14 10:32:59.142,0.004,0.052,1.008
2026/05/14 10:32:59.161,0.005,0.049,1.011
2026/05/14 10:32:59.179,0.005,0.05,1.013
2026/05/14 10:32:59.198,0.008,0.053,1.01
2026/05/14 10:32:59.217,0.003,0.049,1.01
2026/05/14 10:32:59.236,0.006,0.05,1.012
2026/05/14 10:32:59.254,0.006,0.047,1.008
2026/05/14 10:32:59.273,0.008,0.047,1.01
2026/05/14 10:32:59.292,0.007,0.053,1.01
2026/05/14 10:32:59.310,0.008,0.054,1.011
2026/05/14 10:32:59.329,0.006,0.05,1.009
2026/05/14 10:32:59.348,0.006,0.05,1.012
2026/05/14 10:32:59.366,0.008,0.051,1.01
2026/05/14 10:32:59.385,0.005,0.052,1.017
2026/05/14 10:32:59.404,0.008,0.051,1.014
2026/05/14 10:32:59.422,0.005,0.049,1.008
2026/05/14 10:32:59.441,0.006,0.053,1.013
2026/05/14 10:32:59.460,0.01,0.052,1.011
2026/05/14 10:32:59.479,0.007,0.054,1.014
2026/05/14 10:32:59.497,0.009,0.052,1.009
2026/05/14 10:32:59.516,0.006,0.054,1.012
2026/05/14 10:32:59.535,0.008,0.049,1.009
2026/05/14 10:32:59.553,0.009,0.051,1.011
2026/05/14 10:32:59.572,0.006,0.054,1.013
2026/05/14 10:32:59.591,0.01,0.056,1.01
2026/05/14 10:32:59.609,0.004,0.051,1.013
2026/05/14 10:32:59.628,0.004,0.052,1.009
2026/05/14 10:32:59.647,0.009,0.053,1.01
2026/05/14 10:32:59.666,0.008,0.054,1.01
2026/05/14 10:32:59.684,0.005,0.049,1.007
2026/05/14 10:32:59.703,0.003,0.054,1.012
2026/05/14 10:32:59.722,0.005,0.05,1.012
2026/05/14 10:32:59.740,0.009,0.053,1.013
2026/05/14 10:32:59.759,0.005,0.051,1.012
2026/05/14 10:32:59.778,0.01,0.05,1.012
2026/05/14 10:32:59.796,0.007,0.051,1.011
2026/05/14 10:32:59.815,0.009,0.045,1.014
2026/05/14 10:32:59.834,0.01,0.046,1.006
2026/05/14 10:32:59.853,0.004,0.052,1.014
2026/05/14 10:32:59.871,0.01,0.054,1.011
2026/05/14 10:32:59.890,0.008,0.047,1.014
2026/05/14 10:32:59.909,0.008,0.053,1.013
2026/05/14 10:32:59.927,0.008,0.054,1.006
2026/05/14 10:32:59.946,0.007,0.049,1.013
2026/05/14 10:32:59.965,0.006,0.053,1.012
2026/05/14 10:32:59.983,0.003,0.051,1.007
2026/05/14 10:33:00.002,0.007,0.048,1.01
2026/05/14 10:33:00.021,0.003,0.053,1.012
2026/05/14 10:33:00.039,0.009,0.049,1.01
2026/05/14 10:33:00.058,0.008,0.048,1.011
2026/05/14 10:33:00.077,0.008,0.049,1.01
2026/05/14 10:33:00.096,0.008,0.05,1.01
2026/05/14 10:33:00.114,0.006,0.048,1.012
2026/05/14 10:33:00.133,0.005,0.05,1.01
2026/05/14 10:33:00.152,0.004,0.053,1.012
2026/05/14 10:33:00.170,0.007,0.05,1.014
2026/05/14 10:33:00.189,0.007,0.049,1.012
2026/05/14 10:33:00.208,0.005,0.05,1.01
2026/05/14 10:33:00.226,0.009,0.052,1.01
2026/05/14 10:33:00.245,0.011,0.054,1.011
2026/05/14 10:33:00.264,0.005,0.05,1.014
2026/05/14 10:33:00.283,0.009,0.05,1.009
2026/05/14 10:33:00.301,0.01,0.046,1.01
2026/05/14 10:33:00.320,0.013,0.05,1.011
2026/05/14 10:33:00.339,0.01,0.049,1.011
2026/05/14 10:33:00.357,0.009,0.049,1.01
2026/05/14 10:33:00.376,0.004,0.055,1.016
2026/05/14 10:33:00.395,0.005,0.055,1.007
2026/05/14 10:33:00.413,0.003,0.054,1.008
2026/05/14 10:33:00.432,0.004,0.053,1.012
2026/05/14 10:33:00.451,0.001,0.054,1.013
2026/05/14 10:33:00.470,0.007,0.053,1.011
2026/05/14 10:33:00.488,0.005,0.05,1.015
2026/05/14 10:33:00.507,0.007,0.051,1.011
2026/05/14 10:33:00.526,0.008,0.051,1.01
2026/05/14 10:33:00.544,0.009,0.047,1.008
2026/05/14 10:33:00.563,0.008,0.054,1.009
2026/05/14 10:33:00.582,0.008,0.051,1.01
2026/05/14 10:33:00.600,0.009,0.053,1.01
2026/05/14 10:33:00.619,0.009,0.052,1.009
2026/05/14 10:33:00.638,0.004,0.055,1.012
2026/05/14 10:33:00.656,0.005,0.051,1.011
2026/05/14 10:33:00.675,0.005,0.055,1.01
2026/05/14 10:33:00.694,0.007,0.055,1.011
2026/05/14 10:33:00.713,0.005,0.053,1.011
2026/05/14 10:33:00.731,0.006,0.053,1.009
2026/05/14 10:33:00.750,0.004,0.049,1.013
2026/05/14 10:33:00.769,0.008,0.052,1.012
2026/05/14 10:33:00.787,0.007,0.051,1.012
2026/05/14 10:33:00.806,0.008,0.053,1.009
2026/05/14 10:33:00.825,0.008,0.052,1.011
2026/05/14 10:33:00.843,0.009,0.05,1.01
2026/05/14 10:33:00.862,0.007,0.049,1.011
2026/05/14 10:33:00.881,0.008,0.052,1.011
2026/05/14 10:33:00.900,0.008,0.054,1.012
2026/05/14 10:33:00.918,0.009,0.054,1.01
2026/05/14 10:33:00.937,0.007,0.049,1.016
2026/05/14 10:33:00.956,0.006,0.053,1.01
2026/05/14 10:33:00.974,0.008,0.054,1.014
2026/05/14 10:33:00.993,0.008,0.052,1.011
2026/05/14 10:33:01.012,0.004,0.049,1.012
2026/05/14 10:33:01.030,0.005,0.05,1.014
2026/05/14 10:33:01.049,0.006,0.049,1.013
2026/05/14 10:33:01.068,0.008,0.051,1.009
2026/05/14 10:33:01.086,0.008,0.049,1.011
2026/05/14 10:33:01.105,0.012,0.05,1.014
2026/05/14 10:33:01.124,0.012,0.046,1.012
2026/05/14 10:33:01.143,0.009,0.049,1.01
2026/05/14 10:33:01.161,0.009,0.05,1.006
2026/05/14 10:33:01.180,0.012,0.049,1.007
2026/05/14 10:33:01.199,0.007,0.053,1.01
2026/05/14 10:33:01.217,0.008,0.054,1.01
2026/05/14 10:33:01.236,0.003,0.052,1.009
2026/05/14 10:33:01.255,0.003,0.048,1.013
2026/05/14 10:33:01.273,0.004,0.047,1.007
2026/05/14 10:33:01.292,0.005,0.047,1.009
2026/05/14 10:33:01.311,0.005,0.05,1.013
2026/05/14 10:33:01.330,0.008,0.049,1.011
2026/05/14 10:33:01.348,0.006,0.05,1.013
2026/05/14 10:33:01.367,0.005,0.054,1.013
2026/05/14 10:33:01.386,0.004,0.052,1.012
2026/05/14 10:33:01.404,0.006,0.051,1.001
2026/05/14 10:33:01.423,0.006,0.054,1.012
2026/05/14 10:33:01.442,0.004,0.049,1.01
2026/05/14 10:33:01.460,0.009,0.052,1.006
2026/05/14 10:33:01.479,0.005,0.051,1.01
2026/05/14 10:33:01.498,0.004,0.05,1.011
2026/05/14 10:33:01.517,0.003,0.05,1.011
2026/05/14 10:33:01.535,0.003,0.049,1.009
2026/05/14 10:33:01.554,0.007,0.05,1.012
2026/05/14 10:33:01.573,0.007,0.051,1.008
2026/05/14 10:33:01.591,0.01,0.051,1.011
2026/05/14 10:33:01.610,0.007,0.051,1.016
2026/05/14 10:33:01.629,0.008,0.052,1.016
2026/05/14 10:33:01.647,0.002,0.052,1.011
2026/05/14 10:33:01.666,0.009,0.05,1.01
2026/05/14 10:33:01.685,0.007,0.053,1.012
2026/05/14 10:33:01.703,0.003,0.053,1.015
2026/05/14 10:33:01.722,0.007,0.05,1.005
2026/05/14 10:33:01.741,0.007,0.051,1.012
2026/05/14 10:33:01.760,0.009,0.047,1.012
2026/05/14 10:33:01.778,0.006,0.053,1.009
2026/05/14 10:33:01.797,0.008,0.052,1.009
2026/05/14 10:33:01.816,0.008,0.053,1.01
2026/05/14 10:33:01.834,0.007,0.048,1.008
2026/05/14 10:33:01.853,0.013,0.054,1.006
2026/05/14 10:33:01.872,0.01,0.05,1.004
2026/05/14 10:33:01.890,0.005,0.052,1.01
2026/05/14 10:33:01.909,0.007,0.05,1.011
2026/05/14 10:33:01.928,0.005,0.054,1.011
2026/05/14 10:33:01.947,0.006,0.052,1.005
2026/05/14 10:33:01.965,0.004,0.049,1.009
2026/05/14 10:33:01.984,0.005,0.053,1.004
2026/05/14 10:33:02.003,0.004,0.053,1.015
2026/05/14 10:33:02.021,0.009,0.047,1.016
2026/05/14 10:33:02.040,0.007,0.053,1.012
2026/05/14 10:33:02.059,0.005,0.054,1.011
2026/05/14 10:33:02.077,0.009,0.05,1.009
2026/05/14 10:33:02.096,0.009,0.048,1.008
2026/05/14 10:33:02.115,0.01,0.047,1.003
2026/05/14 10:33:02.133,0.005,0.054,1.011
2026/05/14 10:33:02.152,0.007,0.051,1.014
2026/05/14 10:33:02.171,0.007,0.054,1.008
2026/05/14 10:33:02.190,0.006,0.055,1.005
2026/05/14 10:33:02.208,0.007,0.048,1.015
2026/05/14 10:33:02.227,0.006,0.051,1.013
2026/05/14 10:33:02.246,0.011,0.053,1.014
2026/05/14 10:33:02.264,0.007,0.051,1.013
2026/05/14 10:33:02.283,0.006,0.047,1.008
2026/05/14 10:33:02.302,0.138,0.023,0.712
2026/05/14 10:33:02.320,-0.402,0.186,2.366
2026/05/14 10:33:02.339,-0.08,0.105,1.004
2026/05/14 10:33:02.358,0.037,0.056,1.024
2026/05/14 10:33:02.377,-0.1,0.09,1.046
2026/05/14 10:33:02.395,-0.046,0.079,0.968
2026/05/14 10:33:02.414,0.0,0.053,0.969
2026/05/14 10:33:02.433,0.021,0.03,1.03
2026/05/14 10:33:02.451,-0.015,0.04,1.022
2026/05/14 10:33:02.470,0.009,0.046,1.005
2026/05/14 10:33:02.489,0.029,0.052,1.008
2026/05/14 10:33:02.507,0.003,0.069,0.966
2026/05/14 10:33:02.526,-0.028,0.042,1.069
2026/05/14 10:33:02.545,0.024,0.051,1.004
2026/05/14 10:33:02.563,0.03,0.028,1.096
2026/05/14 10:33:02.582,0.016,0.047,1.065
2026/05/14 10:33:02.601,-0.006,0.077,0.975
2026/05/14 10:33:02.620,0.372,0.037,0.197
2026/05/14 10:33:02.638,0.068,-0.17,0.577
2026/05/14 10:33:02.657,0.057,0.085,0.742
2026/05/14 10:33:02.676,-0.045,0.059,1.167
2026/05/14 10:33:02.694,0.158,0.001,0.881
2026/05/14 10:33:02.713,0.035,0.034,1.027
2026/05/14 10:33:02.732,-0.007,-0.006,1.39
2026/05/14 10:33:02.750,0.035,0.021,1.115
2026/05/14 10:33:02.769,0.054,0.045,0.893
2026/05/14 10:33:02.788,0.029,0.068,0.991
2026/05/14 10:33:02.807,0.018,0.049,1.018
2026/05/14 10:33:02.825,-0.008,0.043,0.972
2026/05/14 10:33:02.844,-0.033,0.068,0.896
2026/05/14 10:33:02.863,0.019,0.064,0.922
2026/05/14 10:33:02.881,-0.013,0.057,0.992
2026/05/14 10:33:02.900,-0.011,0.047,1.016
2026/05/14 10:33:02.919,0.014,0.053,1.023
2026/05/14 10:33:02.937,0.003,0.055,1.018
2026/05/14 10:33:02.956,0.011,0.055,1.045
2026/05/14 10:33:02.975,0.018,0.052,1.055
2026/05/14 10:33:02.993,0.018,0.04,1.054
2026/05/14 10:33:03.012,0.017,0.044,1.014
2026/05/14 10:33:03.031,0.011,0.049,0.992
2026/05/14 10:33:03.050,0.024,0.043,0.988
2026/05/14 10:33:03.068,0.021,0.041,1.016
2026/05/14 10:33:03.087,0.011,0.049,0.988
2026/05/14 10:33:03.106,0.012,0.06,0.985
2026/05/14 10:33:03.124,0.012,0.056,0.999
2026/05/14 10:33:03.143,0.002,0.057,1.005
2026/05/14 10:33:03.162,-0.003,0.051,1.02
2026/05/14 10:33:03.180,-0.002,0.052,1.018
2026/05/14 10:33:03.199,-0.004,0.053,1.024
2026/05/14 10:33:03.218,-0.002,0.047,1.02
2026/05/14 10:33:03.237,0.003,0.053,1.026
2026/05/14 10:33:03.255,0.011,0.053,1.017
2026/05/14 10:33:03.274,0.006,0.052,1.011
2026/05/14 10:33:03.293,0.009,0.054,1.009
2026/05/14 10:33:03.311,0.016,0.046,1.007
2026/05/14 10:33:03.330,0.015,0.053,1.006
2026/05/14 10:33:03.349,0.013,0.047,1.006
2026/05/14 10:33:03.367,0.01,0.053,1.005
2026/05/14 10:33:03.386,0.01,0.05,1.009
2026/05/14 10:33:03.405,0.008,0.05,1.007
2026/05/14 10:33:03.423,0.007,0.055,1.01
2026/05/14 10:33:03.442,0.007,0.051,1.016
2026/05/14 10:33:03.461,-0.001,0.055,1.006
2026/05/14 10:33:03.480,0.0,0.05,1.01
2026/05/14 10:33:03.498,0.002,0.052,1.014
2026/05/14 10:33:03.517,0.007,0.054,1.006
2026/05/14 10:33:03.536,0.007,0.05,1.015
2026/05/14 10:33:03.554,0.013,0.047,1.01
2026/05/14 10:33:03.573,0.01,0.052,1.014
2026/05/14 10:33:03.592,0.01,0.046,1.01
2026/05/14 10:33:03.610,0.013,0.044,1.009
2026/05/14 10:33:03.629,0.013,0.048,1.007
2026/05/14 10:33:03.648,0.012,0.047,1.009
2026/05/14 10:33:03.667,0.01,0.049,1.012
2026/05/14 10:33:03.685,0.011,0.05,1.012
2026/05/14 10:33:03.704,0.009,0.053,1.014
2026/05/14 10:33:03.723,0.004,0.051,1.006
2026/05/14 10:33:03.741,0.005,0.054,1.009
2026/05/14 10:33:03.760,0.002,0.05,1.012
2026/05/14 10:33:03.779,0.0,0.054,1.014
2026/05/14 10:33:03.797,0.006,0.052,1.011
2026/05/14 10:33:03.816,0.006,0.053,1.01
2026/05/14 10:33:03.835,0.01,0.052,1.012
2026/05/14 10:33:03.853,0.009,0.05,1.008
2026/05/14 10:33:03.872,0.012,0.05,1.012
2026/05/14 10:33:03.891,0.011,0.048,1.006
2026/05/14 10:33:03.910,0.011,0.046,1.009
2026/05/14 10:33:03.928,0.011,0.04,1.007
2026/05/14 10:33:03.947,0.011,0.049,1.011
2026/05/14 10:33:03.966,0.013,0.052,1.013
2026/05/14 10:33:03.984,0.005,0.054,1.012
2026/05/14 10:33:04.003,0.006,0.053,1.01
2026/05/14 10:33:04.022,0.001,0.05,1.01
2026/05/14 10:33:04.040,0.002,0.052,1.013
2026/05/14 10:33:04.059,0.001,0.052,1.007
2026/05/14 10:33:04.078,0.0,0.051,1.011
2026/05/14 10:33:04.097,0.004,0.055,1.014
2026/05/14 10:33:04.115,0.003,0.051,1.013
2026/05/14 10:33:04.134,0.01,0.051,1.008
2026/05/14 10:33:04.153,0.012,0.05,1.01
2026/05/14 10:33:04.171,0.013,0.048,1.011
2026/05/14 10:33:04.190,0.012,0.045,1.009
2026/05/14 10:33:04.209,0.008,0.049,1.009
2026/05/14 10:33:04.227,0.007,0.048,1.014
2026/05/14 10:33:04.246,0.01,0.047,1.01
2026/05/14 10:33:04.265,0.009,0.052,1.011
2026/05/14 10:33:04.283,0.005,0.051,1.012
2026/05/14 10:33:04.302,0.009,0.05,1.009
2026/05/14 10:33:04.321,0.009,0.052,1.012
2026/05/14 10:33:04.340,0.001,0.05,1.008
2026/05/14 10:33:04.358,0.004,0.054,1.009
2026/05/14 10:33:04.377,0.002,0.049,1.01
2026/05/14 10:33:04.396,0.005,0.053,1.006
2026/05/14 10:33:04.414,0.009,0.047,1.01
2026/05/14 10:33:04.433,0.013,0.054,1.01
2026/05/14 10:33:04.452,0.01,0.045,1.01
2026/05/14 10:33:04.470,0.014,0.048,1.015
2026/05/14 10:33:04.489,0.011,0.051,1.008
2026/05/14 10:33:04.508,0.007,0.046,1.007
2026/05/14 10:33:04.527,0.013,0.05,1.009
2026/05/14 10:33:04.545,0.011,0.052,1.009
2026/05/14 10:33:04.564,0.007,0.047,1.01
2026/05/14 10:33:04.583,0.01,0.05,1.01
2026/05/14 10:33:04.601,0.004,0.049,1.01
2026/05/14 10:33:04.620,0.005,0.05,1.01
2026/05/14 10:33:04.639,0.006,0.049,1.008
2026/05/14 10:33:04.657,0.004,0.05,1.01
2026/05/14 10:33:04.676,0.005,0.053,1.005
2026/05/14 10:33:04.695,0.008,0.048,1.011
2026/05/14 10:33:04.714,0.009,0.052,1.01
2026/05/14 10:33:04.732,0.006,0.051,1.006
2026/05/14 10:33:04.751,0.008,0.047,1.012
2026/05/14 10:33:04.770,0.006,0.046,1.01
2026/05/14 10:33:04.788,0.014,0.048,1.009
2026/05/14 10:33:04.807,0.336,0.231,0.669
2026/05/14 10:33:04.826,-0.091,0.178,0.867
2026/05/14 10:33:04.844,-0.161,-0.13,1.489
2026/05/14 10:33:04.863,-0.024,-0.059,0.922
2026/05/14 10:33:04.882,0.077,0.002,0.722
2026/05/14 10:33:04.900,-0.033,-0.001,1.224
2026/05/14 10:33:04.919,-0.008,0.038,1.121
2026/05/14 10:33:04.938,-0.015,0.051,0.793
2026/05/14 10:33:04.957,0.015,0.096,1.129
2026/05/14 10:33:04.975,0.019,0.082,1.131
2026/05/14 10:33:04.994,0.022,0.092,0.968
2026/05/14 10:33:05.013,-0.021,0.079,1.012
2026/05/14 10:33:05.031,0.039,0.04,1.082
2026/05/14 10:33:05.050,-0.015,0.06,0.932
2026/05/14 10:33:05.069,0.007,0.033,1.05
2026/05/14 10:33:05.087,-0.028,0.041,0.978
2026/05/14 10:33:05.106,-0.02,0.056,0.968
2026/05/14 10:33:05.125,0.01,0.037,1.034
2026/05/14 10:33:05.144,0.015,0.055,1.014
2026/05/14 10:33:05.162,0.011,0.046,1.031
2026/05/14 10:33:05.181,0.019,0.043,1.01
2026/05/14 10:33:05.200,0.023,0.058,0.974
2026/05/14 10:33:05.218,0.021,0.049,1.028
2026/05/14 10:33:05.237,0.008,0.041,1.044
2026/05/14 10:33:05.256,0.001,0.042,0.974
2026/05/14 10:33:05.274,0.022,0.04,1.004
2026/05/14 10:33:05.293,0.011,0.052,1.023
2026/05/14 10:33:05.312,0.008,0.048,1.003
2026/05/14 10:33:05.330,0.0,0.046,1.014
2026/05/14 10:33:05.349,-0.001,0.062,0.991
2026/05/14 10:33:05.368,0.001,0.06,1.018
2026/05/14 10:33:05.387,-0.002,0.055,1.015
2026/05/14 10:33:05.405,0.002,0.055,1.011
2026/05/14 10:33:05.424,0.001,0.049,1.015
2026/05/14 10:33:05.443,0.005,0.042,1.012
2026/05/14 10:33:05.461,0.008,0.045,1.008
2026/05/14 10:33:05.480,0.01,0.045,1.007
2026/05/14 10:33:05.499,0.013,0.046,1.009
2026/05/14 10:33:05.517,0.013,0.046,1.01
2026/05/14 10:33:05.536,0.016,0.044,1.007
2026/05/14 10:33:05.555,0.011,0.053,1.004
2026/05/14 10:33:05.574,0.005,0.048,1.011
2026/05/14 10:33:05.592,0.008,0.055,1.011
2026/05/14 10:33:05.611,0.002,0.054,1.014
2026/05/14 10:33:05.630,-0.003,0.05,1.006
2026/05/14 10:33:05.648,0.006,0.048,1.006
2026/05/14 10:33:05.667,0.002,0.052,1.01
2026/05/14 10:33:05.686,0.005,0.05,1.009
2026/05/14 10:33:05.704,0.009,0.049,1.011
2026/05/14 10:33:05.723,0.008,0.05,1.005
2026/05/14 10:33:05.742,0.012,0.047,1.007
2026/05/14 10:33:05.760,0.01,0.048,1.01
2026/05/14 10:33:05.779,0.013,0.042,1.011
2026/05/14 10:33:05.798,0.01,0.046,1.007
2026/05/14 10:33:05.817,0.009,0.047,1.017
2026/05/14 10:33:05.835,0.008,0.053,1.012
2026/05/14 10:33:05.854,0.005,0.052,1.011
2026/05/14 10:33:05.873,0.002,0.053,1.011
2026/05/14 10:33:05.891,0.008,0.051,1.012
2026/05/14 10:33:05.910,0.004,0.054,1.012
2026/05/14 10:33:05.929,0.006,0.047,1.004
2026/05/14 10:33:05.947,0.004,0.052,1.008
2026/05/14 10:33:05.966,0.01,0.047,1.014
2026/05/14 10:33:05.985,0.008,0.048,1.008
2026/05/14 10:33:06.004,0.011,0.045,1.008
2026/05/14 10:33:06.022,0.011,0.046,1.012
2026/05/14 10:33:06.041,0.009,0.052,1.012
2026/05/14 10:33:06.060,0.01,0.046,1.012
2026/05/14 10:33:06.078,0.009,0.046,1.012
2026/05/14 10:33:06.097,0.007,0.047,1.012
2026/05/14 10:33:06.116,0.006,0.053,1.01
2026/05/14 10:33:06.134,0.005,0.052,1.011
2026/05/14 10:33:06.153,0.002,0.051,1.007
2026/05/14 10:33:06.172,0.002,0.049,1.008
2026/05/14 10:33:06.190,0.008,0.049,1.009
2026/05/14 10:33:06.209,0.006,0.048,1.009
2026/05/14 10:33:06.228,0.005,0.05,1.008
2026/05/14 10:33:06.247,0.01,0.043,1.013
2026/05/14 10:33:06.265,0.012,0.045,1.011
2026/05/14 10:33:06.284,0.014,0.042,1.014
2026/05/14 10:33:06.303,0.012,0.046,1.007
2026/05/14 10:33:06.321,0.01,0.05,1.008
2026/05/14 10:33:06.340,0.004,0.053,1.012
2026/05/14 10:33:06.359,0.007,0.048,1.008
2026/05/14 10:33:06.377,-0.001,0.051,1.008
2026/05/14 10:33:06.396,0.004,0.052,1.01
2026/05/14 10:33:06.415,0.007,0.05,1.014
2026/05/14 10:33:06.434,0.003,0.053,1.011
2026/05/14 10:33:06.452,0.008,0.053,1.007
2026/05/14 10:33:06.471,0.006,0.048,1.01
2026/05/14 10:33:06.490,0.013,0.045,1.009
2026/05/14 10:33:06.508,0.011,0.045,1.009
2026/05/14 10:33:06.527,0.011,0.048,1.013
2026/05/14 10:33:06.546,0.008,0.051,1.011
2026/05/14 10:33:06.564,0.009,0.05,1.014
2026/05/14 10:33:06.583,0.001,0.048,1.011
2026/05/14 10:33:06.602,0.002,0.053,1.015
2026/05/14 10:33:06.620,0.001,0.053,1.012
2026/05/14 10:33:06.639,0.003,0.055,1.009
2026/05/14 10:33:06.658,0.006,0.05,1.01
2026/05/14 10:33:06.677,0.003,0.051,1.015
2026/05/14 10:33:06.695,0.006,0.045,1.009
2026/05/14 10:33:06.714,0.014,0.044,1.013
2026/05/14 10:33:06.733,0.012,0.038,1.011
2026/05/14 10:33:06.751,0.013,0.047,1.007
2026/05/14 10:33:06.770,0.013,0.043,1.008
2026/05/14 10:33:06.789,0.006,0.041,1.009
2026/05/14 10:33:06.807,0.008,0.046,1.01
2026/05/14 10:33:06.826,0.007,0.051,1.01
2026/05/14 10:33:06.845,0.004,0.053,1.009
2026/05/14 10:33:06.864,0.001,0.052,1.012
2026/05/14 10:33:06.882,-0.001,0.052,1.01
2026/05/14 10:33:06.901,0.003,0.052,1.005
2026/05/14 10:33:06.920,0.001,0.053,1.009
2026/05/14 10:33:06.938,0.01,0.049,1.009
2026/05/14 10:33:06.957,0.011,0.045,1.009
2026/05/14 10:33:06.976,0.014,0.048,1.006
2026/05/14 10:33:06.994,0.012,0.041,1.009
2026/05/14 10:33:07.013,0.014,0.044,1.014
2026/05/14 10:33:07.032,0.014,0.047,1.006
2026/05/14 10:33:07.050,0.01,0.049,1.009
2026/05/14 10:33:07.069,0.011,0.051,1.011
2026/05/14 10:33:07.088,0.009,0.052,1.011
2026/05/14 10:33:07.107,0.002,0.052,1.007
2026/05/14 10:33:07.125,-0.001,0.05,1.007
2026/05/14 10:33:07.144,0.0,0.048,1.012
2026/05/14 10:33:07.163,0.003,0.05,1.013
2026/05/14 10:33:07.181,0.007,0.048,1.016
2026/05/14 10:33:07.200,0.01,0.052,1.011
2026/05/14 10:33:07.219,0.01,0.053,1.01
2026/05/14 10:33:07.237,0.009,0.048,1.014
2026/05/14 10:33:07.256,0.013,0.044,1.014
2026/05/14 10:33:07.275,0.011,0.04,1.012
2026/05/14 10:33:07.294,0.011,0.04,1.014
2026/05/14 10:33:07.312,0.009,0.048,1.011
2026/05/14 10:33:07.331,0.006,0.051,1.005
2026/05/14 10:33:07.350,0.002,0.051,1.013
2026/05/14 10:33:07.368,0.004,0.055,1.013
2026/05/14 10:33:07.387,0.007,0.054,1.014
2026/05/14 10:33:07.406,0.004,0.056,1.009
2026/05/14 10:33:07.424,0.004,0.048,1.011
2026/05/14 10:33:07.443,0.004,0.048,1.013
2026/05/14 10:33:07.462,0.006,0.047,1.009
2026/05/14 10:33:07.480,0.009,0.045,1.009
2026/05/14 10:33:07.499,0.009,0.045,1.008
2026/05/14 10:33:07.518,0.012,0.043,1.015
2026/05/14 10:33:07.537,0.01,0.048,1.011
2026/05/14 10:33:07.555,0.013,0.047,1.014
2026/05/14 10:33:07.574,0.012,0.047,1.012
2026/05/14 10:33:07.593,0.005,0.049,1.009
2026/05/14 10:33:07.611,0.003,0.049,1.011
2026/05/14 10:33:07.630,0.0,0.05,1.012
2026/05/14 10:33:07.649,0.006,0.052,1.008
2026/05/14 10:33:07.667,0.007,0.05,1.011
2026/05/14 10:33:07.686,0.005,0.051,1.013
2026/05/14 10:33:07.705,0.007,0.048,1.011
2026/05/14 10:33:07.724,0.008,0.049,1.007
2026/05/14 10:33:07.742,0.008,0.048,1.01
2026/05/14 10:33:07.761,0.01,0.046,1.012
2026/05/14 10:33:07.780,0.015,0.045,1.01
2026/05/14 10:33:07.798,0.01,0.048,1.012
2026/05/14 10:33:07.817,0.009,0.049,1.008
2026/05/14 10:33:07.836,0.01,0.049,1.01
2026/05/14 10:33:07.854,0.007,0.052,1.012
2026/05/14 10:33:07.873,0.005,0.051,1.011
2026/05/14 10:33:07.892,0.005,0.054,1.009
2026/05/14 10:33:07.911,0.001,0.053,1.009
2026/05/14 10:33:07.929,0.006,0.054,1.007
2026/05/14 10:33:07.948,0.008,0.049,1.012
2026/05/14 10:33:07.967,0.008,0.048,1.009
2026/05/14 10:33:07.985,0.009,0.049,1.01
2026/05/14 10:33:08.004,0.008,0.046,1.008
2026/05/14 10:33:08.023,0.011,0.045,1.006
2026/05/14 10:33:08.041,0.01,0.043,1.006
2026/05/14 10:33:08.060,0.007,0.049,1.011
2026/05/14 10:33:08.079,0.008,0.044,1.01
2026/05/14 10:33:08.097,0.003,0.05,1.012
2026/05/14 10:33:08.116,0.007,0.052,1.016
2026/05/14 10:33:08.135,0.001,0.05,1.01
2026/05/14 10:33:08.154,0.006,0.049,1.014
2026/05/14 10:33:08.172,0.007,0.054,1.014
2026/05/14 10:33:08.191,0.006,0.048,1.007
2026/05/14 10:33:08.210,0.005,0.053,1.01
2026/05/14 10:33:08.228,0.01,0.045,1.005
2026/05/14 10:33:08.247,0.01,0.048,1.014
2026/05/14 10:33:08.266,0.011,0.047,1.013
2026/05/14 10:33:08.284,0.014,0.05,1.016
2026/05/14 10:33:08.303,0.009,0.044,1.01
2026/05/14 10:33:08.322,0.01,0.048,1.006
2026/05/14 10:33:08.341,0.01,0.047,1.014
2026/05/14 10:33:08.359,0.006,0.052,1.01
2026/05/14 10:33:08.378,0.006,0.049,1.012
2026/05/14 10:33:08.397,0.007,0.051,1.008
2026/05/14 10:33:08.415,0.006,0.052,1.011
2026/05/14 10:33:08.434,0.006,0.045,1.01
2026/05/14 10:33:08.453,0.008,0.048,1.008
2026/05/14 10:33:08.471,0.01,0.051,1.012
2026/05/14 10:33:08.490,0.011,0.05,1.006
2026/05/14 10:33:08.509,0.009,0.05,1.013
2026/05/14 10:33:08.527,0.008,0.048,1.012
2026/05/14 10:33:08.546,0.011,0.049,1.014
2026/05/14 10:33:08.565,0.011,0.048,1.014
2026/05/14 10:33:08.584,0.006,0.047,1.009
2026/05/14 10:33:08.602,0.006,0.047,1.011
2026/05/14 10:33:08.621,0.007,0.052,1.007
2026/05/14 10:33:08.640,0.005,0.051,1.011
2026/05/14 10:33:08.658,0.008,0.05,1.009
2026/05/14 10:33:08.677,0.007,0.049,1.011
2026/05/14 10:33:08.696,0.007,0.052,1.01
2026/05/14 10:33:08.714,0.011,0.045,1.01
2026/05/14 10:33:08.733,0.009,0.044,1.014
2026/05/14 10:33:08.752,0.012,0.049,1.008
2026/05/14 10:33:08.771,0.01,0.047,1.006
2026/05/14 10:33:08.789,0.01,0.048,1.008
2026/05/14 10:33:08.808,0.009,0.048,1.013
2026/05/14 10:33:08.827,0.009,0.049,1.007
2026/05/14 10:33:08.845,0.009,0.05,1.007
2026/05/14 10:33:08.864,0.006,0.054,1.013
2026/05/14 10:33:08.883,0.007,0.047,1.013
2026/05/14 10:33:08.901,0.006,0.054,1.013
2026/05/14 10:33:08.920,0.007,0.051,1.013
2026/05/14 10:33:08.939,0.008,0.05,1.011
2026/05/14 10:33:08.957,0.01,0.045,1.012
2026/05/14 10:33:08.976,0.011,0.051,1.009
2026/05/14 10:33:08.995,0.005,0.049,1.006
2026/05/14 10:33:09.014,0.012,0.045,1.015
2026/05/14 10:33:09.032,0.001,0.048,1.01
2026/05/14 10:33:09.051,0.011,0.05,1.013
2026/05/14 10:33:09.070,0.01,0.053,1.009
2026/05/14 10:33:09.088,0.008,0.045,1.013
2026/05/14 10:33:09.107,0.008,0.051,1.013
2026/05/14 10:33:09.126,0.005,0.048,1.011
2026/05/14 10:33:09.144,0.006,0.054,1.014
2026/05/14 10:33:09.163,0.007,0.052,1.015
2026/05/14 10:33:09.182,0.009,0.05,1.008
2026/05/14 10:33:09.201,0.008,0.046,1.012
2026/05/14 10:33:09.219,0.005,0.05,1.014
2026/05/14 10:33:09.238,0.011,0.052,1.007
2026/05/14 10:33:09.257,0.01,0.047,1.012
2026/05/14 10:33:09.275,0.011,0.046,1.011
2026/05/14 10:33:09.294,0.009,0.048,1.01
2026/05/14 10:33:09.313,0.01,0.045,1.011
2026/05/14 10:33:09.331,0.007,0.048,1.009
2026/05/14 10:33:09.350,0.009,0.05,1.011
2026/05/14 10:33:09.369,0.007,0.044,1.01
2026/05/14 10:33:09.387,0.007,0.05,1.009
2026/05/14 10:33:09.406,0.005,0.05,1.01
2026/05/14 10:33:09.425,0.009,0.05,1.014
2026/05/14 10:33:09.444,0.007,0.045,1.014
2026/05/14 10:33:09.462,0.008,0.047,1.01
2026/05/14 10:33:09.481,0.007,0.049,1.014
2026/05/14 10:33:09.500,0.012,0.047,1.008
2026/05/14 10:33:09.518,0.011,0.045,1.01
2026/05/14 10:33:09.537,0.008,0.052,1.009
2026/05/14 10:33:09.556,0.004,0.044,1.015
2026/05/14 10:33:09.574,0.006,0.044,1.009
2026/05/14 10:33:09.593,0.008,0.053,1.01
2026/05/14 10:33:09.612,0.006,0.051,1.013
2026/05/14 10:33:09.631,0.006,0.049,1.009
2026/05/14 10:33:09.649,0.004,0.047,1.013
2026/05/14 10:33:09.668,0.005,0.051,1.007
2026/05/14 10:33:09.687,0.01,0.049,1.012
2026/05/14 10:33:09.705,0.012,0.047,1.006
2026/05/14 10:33:09.724,0.006,0.045,1.011
2026/05/14 10:33:09.743,0.005,0.047,1.011
2026/05/14 10:33:09.761,0.009,0.051,1.007
2026/05/14 10:33:09.780,0.01,0.051,1.01
2026/05/14 10:33:09.799,0.007,0.046,1.015
2026/05/14 10:33:09.817,0.009,0.05,1.014
2026/05/14 10:33:09.836,0.005,0.05,1.008
2026/05/14 10:33:09.855,0.008,0.049,1.006
2026/05/14 10:33:09.874,0.003,0.052,1.009
2026/05/14 10:33:09.892,0.008,0.047,1.009
2026/05/14 10:33:09.911,0.009,0.05,1.009
2026/05/14 10:33:09.930,0.01,0.046,1.011
2026/05/14 10:33:09.948,0.007,0.044,1.008
2026/05/14 10:33:09.967,0.009,0.048,1.01
2026/05/14 10:33:09.986,0.01,0.05,1.009
2026/05/14 10:33:10.004,0.011,0.05,1.01
2026/05/14 10:33:10.023,0.006,0.046,1.012
2026/05/14 10:33:10.042,0.01,0.051,1.008
2026/05/14 10:33:10.061,0.008,0.046,1.011
2026/05/14 10:33:10.079,0.006,0.051,1.012
2026/05/14 10:33:10.098,0.005,0.046,1.01
2026/05/14 10:33:10.117,0.004,0.051,1.012
2026/05/14 10:33:10.135,0.007,0.056,1.009
2026/05/14 10:33:10.154,0.005,0.049,1.01
2026/05/14 10:33:10.173,0.009,0.053,1.013
2026/05/14 10:33:10.191,0.008,0.05,1.008
2026/05/14 10:33:10.210,0.005,0.047,1.012
2026/05/14 10:33:10.229,0.009,0.052,1.005
2026/05/14 10:33:10.247,0.007,0.05,1.007
2026/05/14 10:33:10.266,0.008,0.047,1.009
2026/05/14 10:33:10.285,0.008,0.051,1.008
2026/05/14 10:33:10.304,0.005,0.046,1.013
2026/05/14 10:33:10.322,0.006,0.052,1.013
2026/05/14 10:33:10.341,0.006,0.049,1.009
2026/05/14 10:33:10.360,0.008,0.049,1.01
2026/05/14 10:33:10.378,0.008,0.049,1.006
2026/05/14 10:33:10.397,0.006,0.05,1.01
2026/05/14 10:33:10.416,0.008,0.047,1.009
2026/05/14 10:33:10.434,0.006,0.049,1.008
2026/05/14 10:33:10.453,0.009,0.047,1.007
2026/05/14 10:33:10.472,0.009,0.05,1.007
2026/05/14 10:33:10.491,0.008,0.051,1.011
2026/05/14 10:33:10.509,0.01,0.051,1.009
2026/05/14 10:33:10.528,0.008,0.05,1.016
2026/05/14 10:33:10.547,0.006,0.049,1.01
2026/05/14 10:33:10.565,0.005,0.048,1.012
2026/05/14 10:33:10.584,0.009,0.05,1.009
2026/05/14 10:33:10.603,0.007,0.052,1.014
2026/05/14 10:33:10.621,0.009,0.049,1.009
2026/05/14 10:33:10.640,0.009,0.052,1.014
2026/05/14 10:33:10.659,0.009,0.049,1.007
2026/05/14 10:33:10.677,0.008,0.049,1.01
2026/05/14 10:33:10.696,0.007,0.047,1.011
2026/05/14 10:33:10.715,0.009,0.05,1.006
2026/05/14 10:33:10.734,0.004,0.046,1.011
2026/05/14 10:33:10.752,0.009,0.052,1.009
2026/05/14 10:33:10.771,0.01,0.046,1.01
2026/05/14 10:33:10.790,0.007,0.054,1.012
2026/05/14 10:33:10.808,0.003,0.049,1.013
2026/05/14 10:33:10.827,0.007,0.049,1.011
2026/05/14 10:33:10.846,0.008,0.052,1.012
2026/05/14 10:33:10.864,0.009,0.048,1.007
2026/05/14 10:33:10.883,0.009,0.047,1.007
2026/05/14 10:33:10.902,0.01,0.048,1.009
2026/05/14 10:33:10.921,0.008,0.048,1.008
2026/05/14 10:33:10.939,0.009,0.048,1.005
2026/05/14 10:33:10.958,0.011,0.05,1.011
2026/05/14 10:33:10.977,0.008,0.052,1.004
2026/05/14 10:33:10.995,0.005,0.05,1.011
2026/05/14 10:33:11.014,0.008,0.049,1.01
2026/05/14 10:33:11.033,0.008,0.048,1.009
2026/05/14 10:33:11.051,0.005,0.048,1.01
2026/05/14 10:33:11.070,0.009,0.045,1.015
2026/05/14 10:33:11.089,0.007,0.051,1.007
2026/05/14 10:33:11.107,0.007,0.049,1.014
2026/05/14 10:33:11.126,0.006,0.044,1.007
2026/05/14 10:33:11.145,0.006,0.051,1.011
2026/05/14 10:33:11.164,0.005,0.047,1.014
2026/05/14 10:33:11.182,0.008,0.051,1.01
2026/05/14 10:33:11.201,0.006,0.048,1.012
2026/05/14 10:33:11.220,0.009,0.053,1.009
2026/05/14 10:33:11.238,0.008,0.048,1.008
2026/05/14 10:33:11.257,0.007,0.05,1.005
2026/05/14 10:33:11.276,0.011,0.046,1.008
2026/05/14 10:33:11.294,0.005,0.053,1.008
2026/05/14 10:33:11.313,0.008,0.049,1.011
2026/05/14 10:33:11.332,0.008,0.048,1.009
2026/05/14 10:33:11.351,0.005,0.049,1.015
2026/05/14 10:33:11.369,0.007,0.054,1.015
2026/05/14 10:33:11.388,0.006,0.049,1.006
2026/05/14 10:33:11.407,0.007,0.047,1.012
2026/05/14 10:33:11.425,0.006,0.049,1.013
2026/05/14 10:33:11.444,0.008,0.05,1.004
2026/05/14 10:33:11.463,0.008,0.049,1.014
2026/05/14 10:33:11.481,0.007,0.049,1.009
2026/05/14 10:33:11.500,0.01,0.046,1.008
2026/05/14 10:33:11.519,0.012,0.049,1.011
2026/05/14 10:33:11.537,0.009,0.049,1.006
2026/05/14 10:33:11.556,0.011,0.049,1.007
2026/05/14 10:33:11.575,0.0,0.047,1.011
2026/05/14 10:33:11.594,0.005,0.045,1.014
2026/05/14 10:33:11.612,0.008,0.052,1.013
2026/05/14 10:33:11.631,0.007,0.05,1.01
2026/05/14 10:33:11.650,0.005,0.042,1.011
2026/05/14 10:33:11.668,0.01,0.049,1.006
2026/05/14 10:33:11.687,0.009,0.046,1.011
2026/05/14 10:33:11.706,0.005,0.046,1.011
2026/05/14 10:33:11.724,0.005,0.05,1.013
2026/05/14 10:33:11.743,0.004,0.049,1.017
2026/05/14 10:33:11.762,0.006,0.052,1.012
2026/05/14 10:33:11.781,0.011,0.051,1.01
2026/05/14 10:33:11.799,0.007,0.047,1.015
2026/05/14 10:33:11.818,0.008,0.05,1.012
2026/05/14 10:33:11.837,0.01,0.049,1.009
2026/05/14 10:33:11.855,0.006,0.045,1.013
2026/05/14 10:33:11.874,0.006,0.046,1.009
2026/05/14 10:33:11.893,0.011,0.05,1.012
2026/05/14 10:33:11.911,0.006,0.05,1.011
2026/05/14 10:33:11.930,0.004,0.044,1.013
2026/05/14 10:33:11.949,0.006,0.051,1.011
2026/05/14 10:33:11.967,0.008,0.046,1.008
2026/05/14 10:33:11.986,0.008,0.049,1.013
2026/05/14 10:33:12.005,0.004,0.049,1.01
2026/05/14 10:33:12.024,0.01,0.049,1.006
2026/05/14 10:33:12.042,0.007,0.05,1.006
2026/05/14 10:33:12.061,0.008,0.048,1.01
2026/05/14 10:33:12.080,0.007,0.052,1.01
2026/05/14 10:33:12.098,0.006,0.05,1.012
2026/05/14 10:33:12.117,0.008,0.049,1.007
2026/05/14 10:33:12.136,0.006,0.048,1.008
2026/05/14 10:33:12.154,0.009,0.044,1.011
2026/05/14 10:33:12.173,0.003,0.05,1.014
2026/05/14 10:33:12.192,0.011,0.049,1.011
2026/05/14 10:33:12.211,0.007,0.048,1.016
2026/05/14 10:33:12.229,0.005,0.046,1.007
2026/05/14 10:33:12.248,0.007,0.045,1.01
2026/05/14 10:33:12.267,0.007,0.047,1.013
2026/05/14 10:33:12.285,0.009,0.045,1.011
2026/05/14 10:33:12.304,0.006,0.045,1.009
2026/05/14 10:33:12.323,0.002,0.051,1.008
2026/05/14 10:33:12.341,0.005,0.05,1.009
2026/05/14 10:33:12.360,0.01,0.046,1.009
2026/05/14 10:33:12.379,0.009,0.048,1.013
2026/05/14 10:33:12.397,0.008,0.054,1.014
2026/05/14 10:33:12.416,0.006,0.045,1.011
2026/05/14 10:33:12.435,0.008,0.048,1.006
2026/05/14 10:33:12.454,0.006,0.05,1.009
2026/05/14 10:33:12.472,0.005,0.051,1.01
2026/05/14 10:33:12.491,0.006,0.048,1.011
2026/05/14 10:33:12.510,0.007,0.05,1.009
2026/05/14 10:33:12.528,0.005,0.046,1.009
2026/05/14 10:33:12.547,0.009,0.05,1.006
2026/05/14 10:33:12.566,0.006,0.049,1.015
2026/05/14 10:33:12.584,0.006,0.047,1.009
2026/05/14 10:33:12.603,0.009,0.05,1.011
2026/05/14 10:33:12.622,0.006,0.049,1.015
2026/05/14 10:33:12.641,0.012,0.051,1.011
2026/05/14 10:33:12.659,0.008,0.048,1.009
2026/05/14 10:33:12.678,0.009,0.046,1.013
2026/05/14 10:33:12.697,0.005,0.051,1.01
2026/05/14 10:33:12.715,0.006,0.05,1.013
2026/05/14 10:33:12.734,0.007,0.046,1.008
2026/05/14 10:33:12.753,0.01,0.05,1.009
2026/05/14 10:33:12.771,0.007,0.046,1.013
2026/05/14 10:33:12.790,0.01,0.05,1.006
2026/05/14 10:33:12.809,0.01,0.051,1.011
2026/05/14 10:33:12.827,0.006,0.048,1.014
2026/05/14 10:33:12.846,0.009,0.046,1.015
2026/05/14 10:33:12.865,0.007,0.047,1.014
2026/05/14 10:33:12.884,0.008,0.051,1.008
2026/05/14 10:33:12.902,0.008,0.049,1.015
2026/05/14 10:33:12.921,0.007,0.047,1.012
2026/05/14 10:33:12.940,0.009,0.044,1.011
2026/05/14 10:33:12.958,0.006,0.051,1.011
2026/05/14 10:33:12.977,0.009,0.048,1.01
2026/05/14 10:33:12.996,0.009,0.047,1.012
2026/05/14 10:33:13.014,0.008,0.048,1.009
2026/05/14 10:33:13.033,0.007,0.049,1.013
2026/05/14 10:33:13.052,0.005,0.052,1.009
2026/05/14 10:33:13.071,0.007,0.053,1.013
2026/05/14 10:33:13.089,0.006,0.05,1.008
2026/05/14 10:33:13.108,0.007,0.048,1.007
2026/05/14 10:33:13.127,0.006,0.048,1.006
2026/05/14 10:33:13.145,0.006,0.052,1.011
2026/05/14 10:33:13.164,0.008,0.05,1.011
2026/05/14 10:33:13.183,0.008,0.051,1.015
2026/05/14 10:33:13.201,0.01,0.046,1.013
2026/05/14 10:33:13.220,0.007,0.047,1.008
2026/05/14 10:33:13.239,0.007,0.045,1.013
2026/05/14 10:33:13.257,0.007,0.051,1.01
2026/05/14 10:33:13.276,0.006,0.054,1.011
2026/05/14 10:33:13.295,0.009,0.049,1.011
2026/05/14 10:33:13.314,0.009,0.049,1.008
2026/05/14 10:33:13.332,0.007,0.052,1.012
2026/05/14 10:33:13.351,0.008,0.048,1.014
2026/05/14 10:33:13.370,0.009,0.052,1.008
2026/05/14 10:33:13.388,0.004,0.049,1.009
2026/05/14 10:33:13.407,0.009,0.054,1.008
2026/05/14 10:33:13.426,0.006,0.05,1.01
2026/05/14 10:33:13.444,0.009,0.048,1.01
2026/05/14 10:33:13.463,0.003,0.046,1.011
2026/05/14 10:33:13.482,0.008,0.05,1.011
2026/05/14 10:33:13.501,0.003,0.053,1.012
2026/05/14 10:33:13.519,0.007,0.054,1.014
2026/05/14 10:33:13.538,0.005,0.05,1.01
2026/05/14 10:33:13.557,0.011,0.048,1.005
2026/05/14 10:33:13.575,0.009,0.05,1.013
2026/05/14 10:33:13.594,0.009,0.049,1.009
2026/05/14 10:33:13.613,0.006,0.046,1.006
2026/05/14 10:33:13.631,0.009,0.048,1.011
2026/05/14 10:33:13.650,0.005,0.048,1.01
2026/05/14 10:33:13.669,0.011,0.049,1.012
2026/05/14 10:33:13.687,0.008,0.048,1.008
2026/05/14 10:33:13.706,0.007,0.05,1.012
2026/05/14 10:33:13.725,0.008,0.051,1.012
2026/05/14 10:33:13.744,0.005,0.051,1.012
2026/05/14 10:33:13.762,0.003,0.049,1.009
2026/05/14 10:33:13.781,0.008,0.05,1.004
2026/05/14 10:33:13.800,0.009,0.052,1.009
2026/05/14 10:33:13.818,0.008,0.05,1.014
2026/05/14 10:33:13.837,0.004,0.047,1.012
2026/05/14 10:33:13.856,0.007,0.048,1.013
2026/05/14 10:33:13.874,0.012,0.049,1.009
2026/05/14 10:33:13.893,0.007,0.052,1.012
2026/05/14 10:33:13.912,0.01,0.048,1.013
2026/05/14 10:33:13.931,0.007,0.046,1.009
2026/05/14 10:33:13.949,0.008,0.05,1.011
2026/05/14 10:33:13.968,0.007,0.048,1.009
2026/05/14 10:33:13.987,0.005,0.05,1.014
2026/05/14 10:33:14.005,0.006,0.049,1.012
2026/05/14 10:33:14.024,0.009,0.048,1.007
2026/05/14 10:33:14.043,0.007,0.047,1.013
2026/05/14 10:33:14.061,0.007,0.044,1.014
2026/05/14 10:33:14.080,0.005,0.048,1.009
2026/05/14 10:33:14.099,0.009,0.045,1.005
2026/05/14 10:33:14.117,0.006,0.046,1.011
2026/05/14 10:33:14.136,0.007,0.047,1.008
2026/05/14 10:33:14.155,0.007,0.049,1.008
2026/05/14 10:33:14.174,0.008,0.05,1.007
2026/05/14 10:33:14.192,0.005,0.05,1.008
2026/05/14 10:33:14.211,0.008,0.049,1.015
2026/05/14 10:33:14.230,0.007,0.049,1.007
2026/05/14 10:33:14.248,0.006,0.049,1.014
2026/05/14 10:33:14.267,0.009,0.051,1.015
2026/05/14 10:33:14.286,0.003,0.048,1.013
2026/05/14 10:33:14.304,0.008,0.053,1.009
2026/05/14 10:33:14.323,0.005,0.052,1.014
2026/05/14 10:33:14.342,0.007,0.051,1.016
2026/05/14 10:33:14.361,0.008,0.048,1.009
2026/05/14 10:33:14.379,0.007,0.053,1.014
2026/05/14 10:33:14.398,0.007,0.053,1.007
2026/05/14 10:33:14.417,0.007,0.048,1.01
2026/05/14 10:33:14.435,0.007,0.049,1.014
2026/05/14 10:33:14.454,0.009,0.05,1.007
2026/05/14 10:33:14.473,0.009,0.048,1.005
2026/05/14 10:33:14.491,0.006,0.048,1.01
2026/05/14 10:33:14.510,0.006,0.051,1.011
2026/05/14 10:33:14.529,0.005,0.044,1.016
2026/05/14 10:33:14.547,0.009,0.05,1.01
2026/05/14 10:33:14.566,0.008,0.051,1.009
2026/05/14 10:33:14.585,0.009,0.049,1.011
2026/05/14 10:33:14.604,0.011,0.052,1.007
2026/05/14 10:33:14.622,0.006,0.05,1.014
2026/05/14 10:33:14.641,0.008,0.049,1.007
2026/05/14 10:33:14.660,0.007,0.046,1.012
2026/05/14 10:33:14.678,0.007,0.049,1.003
2026/05/14 10:33:14.697,0.006,0.049,1.009
2026/05/14 10:33:14.716,0.012,0.049,1.005
2026/05/14 10:33:14.734,0.005,0.05,1.011
2026/05/14 10:33:14.753,0.005,0.05,1.01
2026/05/14 10:33:14.772,0.006,0.049,1.008
2026/05/14 10:33:14.791,0.011,0.051,1.009
2026/05/14 10:33:14.809,0.009,0.05,1.009
2026/05/14 10:33:14.828,0.008,0.05,1.008
2026/05/14 10:33:14.847,0.006,0.048,1.008
2026/05/14 10:33:14.865,0.009,0.05,1.01
2026/05/14 10:33:14.884,0.009,0.05,1.01
2026/05/14 10:33:14.903,0.008,0.053,1.013
2026/05/14 10:33:14.921,0.007,0.05,1.014
2026/05/14 10:33:14.940,0.005,0.047,1.015
2026/05/14 10:33:14.959,0.008,0.045,1.013
2026/05/14 10:33:14.977,0.008,0.048,1.012
2026/05/14 10:33:14.996,0.005,0.05,1.011
2026/05/14 10:33:15.015,0.006,0.049,1.008
2026/05/14 10:33:15.034,0.01,0.049,1.01
2026/05/14 10:33:15.052,0.005,0.048,1.008
2026/05/14 10:33:15.071,0.006,0.054,1.013
2026/05/14 10:33:15.090,0.01,0.05,1.008
2026/05/14 10:33:15.108,0.009,0.049,1.008
2026/05/14 10:33:15.127,0.009,0.048,1.01
2026/05/14 10:33:15.146,0.006,0.046,1.015
2026/05/14 10:33:15.164,0.008,0.047,1.006
2026/05/14 10:33:15.183,0.009,0.046,1.013
2026/05/14 10:33:15.202,0.006,0.047,1.01
2026/05/14 10:33:15.221,0.007,0.05,1.005
2026/05/14 10:33:15.239,0.006,0.047,1.005
2026/05/14 10:33:15.258,0.007,0.047,1.01
2026/05/14 10:33:15.277,0.007,0.05,1.011
2026/05/14 10:33:15.295,0.01,0.052,1.013
2026/05/14 10:33:15.314,0.008,0.047,1.01
2026/05/14 10:33:15.333,0.006,0.051,1.012
2026/05/14 10:33:15.351,0.009,0.053,1.011
2026/05/14 10:33:15.370,0.005,0.049,1.014
2026/05/14 10:33:15.389,0.009,0.045,1.007
2026/05/14 10:33:15.408,0.012,0.049,1.012
2026/05/14 10:33:15.426,0.01,0.05,1.013
2026/05/14 10:33:15.445,0.007,0.048,1.009
2026/05/14 10:33:15.464,0.011,0.052,1.007
2026/05/14 10:33:15.482,0.008,0.05,1.006
2026/05/14 10:33:15.501,0.009,0.05,1.012
2026/05/14 10:33:15.520,0.008,0.05,1.012
2026/05/14 10:33:15.538,0.006,0.045,1.016
2026/05/14 10:33:15.557,0.009,0.047,1.013
2026/05/14 10:33:15.576,0.007,0.049,1.007
2026/05/14 10:33:15.594,0.004,0.048,1.011
2026/05/14 10:33:15.613,0.009,0.05,1.013
2026/05/14 10:33:15.632,0.005,0.052,1.014
2026/05/14 10:33:15.651,0.006,0.047,1.007
2026/05/14 10:33:15.669,0.006,0.051,1.004
2026/05/14 10:33:15.688,0.006,0.052,1.012
2026/05/14 10:33:15.707,0.006,0.05,1.011
2026/05/14 10:33:15.725,0.008,0.047,1.016
2026/05/14 10:33:15.744,0.009,0.05,1.009
2026/05/14 10:33:15.763,0.008,0.047,1.009
2026/05/14 10:33:15.781,0.006,0.053,1.01
2026/05/14 10:33:15.800,0.013,0.05,1.009
2026/05/14 10:33:15.819,0.011,0.051,1.014
2026/05/14 10:33:15.838,0.005,0.053,1.007
2026/05/14 10:33:15.856,0.009,0.051,1.014
2026/05/14 10:33:15.875,0.009,0.048,1.009
2026/05/14 10:33:15.894,0.008,0.047,1.005
2026/05/14 10:33:15.912,0.007,0.049,1.009
2026/05/14 10:33:15.931,0.006,0.048,1.008
2026/05/14 10:33:15.950,0.009,0.047,1.01
2026/05/14 10:33:15.968,0.009,0.049,1.01
2026/05/14 10:33:15.987,0.008,0.046,1.01
2026/05/14 10:33:16.006,0.006,0.05,1.011
2026/05/14 10:33:16.024,0.01,0.049,1.006
2026/05/14 10:33:16.043,0.009,0.048,1.009
2026/05/14 10:33:16.062,0.006,0.05,1.005
2026/05/14 10:33:16.081,0.005,0.049,1.012
2026/05/14 10:33:16.099,0.007,0.047,1.01
2026/05/14 10:33:16.118,0.008,0.046,1.007
2026/05/14 10:33:16.137,0.007,0.049,1.011
2026/05/14 10:33:16.155,0.005,0.046,1.007
2026/05/14 10:33:16.174,0.007,0.049,1.01
2026/05/14 10:33:16.193,0.006,0.046,1.012
2026/05/14 10:33:16.211,0.006,0.048,1.007
2026/05/14 10:33:16.230,0.009,0.05,1.008
2026/05/14 10:33:16.249,0.006,0.05,1.007
2026/05/14 10:33:16.268,0.01,0.048,1.013
2026/05/14 10:33:16.286,0.009,0.049,1.008
2026/05/14 10:33:16.305,0.007,0.044,1.011
2026/05/14 10:33:16.324,0.007,0.048,1.006
2026/05/14 10:33:16.342,0.009,0.048,1.01
2026/05/14 10:33:16.361,0.008,0.053,1.005
2026/05/14 10:33:16.380,0.01,0.045,1.013
2026/05/14 10:33:16.398,0.007,0.05,1.009
2026/05/14 10:33:16.417,0.006,0.049,1.008
2026/05/14 10:33:16.436,0.006,0.051,1.009
2026/05/14 10:33:16.455,0.005,0.047,1.011
2026/05/14 10:33:16.473,0.007,0.046,1.011
2026/05/14 10:33:16.492,0.008,0.046,1.011
2026/05/14 10:33:16.511,0.008,0.052,1.01
2026/05/14 10:33:16.529,0.009,0.052,1.017
2026/05/14 10:33:16.548,0.009,0.049,1.013
2026/05/14 10:33:16.567,0.008,0.049,1.016
2026/05/14 10:33:16.585,0.006,0.051,1.011
2026/05/14 10:33:16.604,0.009,0.049,1.009
2026/05/14 10:33:16.623,0.006,0.049,1.008
2026/05/14 10:33:16.641,0.009,0.048,1.008
2026/05/14 10:33:16.660,0.009,0.048,1.011
2026/05/14 10:33:16.679,0.008,0.046,1.006
2026/05/14 10:33:16.698,0.006,0.05,1.014
2026/05/14 10:33:16.716,0.007,0.046,1.008
2026/05/14 10:33:16.735,0.006,0.046,1.008
2026/05/14 10:33:16.754,0.006,0.045,1.007
2026/05/14 10:33:16.772,0.008,0.048,1.008
2026/05/14 10:33:16.791,0.006,0.046,1.011
2026/05/14 10:33:16.810,0.011,0.047,1.006
2026/05/14 10:33:16.828,0.009,0.05,1.012
2026/05/14 10:33:16.847,0.005,0.05,1.011
2026/05/14 10:33:16.866,0.009,0.047,1.008
2026/05/14 10:33:16.885,0.009,0.052,1.007
2026/05/14 10:33:16.903,0.009,0.046,1.012
2026/05/14 10:33:16.922,0.006,0.05,1.008
2026/05/14 10:33:16.941,0.011,0.048,1.014
2026/05/14 10:33:16.959,0.004,0.049,1.007
2026/05/14 10:33:16.978,0.002,0.049,1.01
2026/05/14 10:33:16.997,0.008,0.047,1.003
2026/05/14 10:33:17.015,0.006,0.048,1.007
2026/05/14 10:33:17.034,0.009,0.05,1.009
2026/05/14 10:33:17.053,0.005,0.047,1.011
2026/05/14 10:33:17.071,0.005,0.05,1.011
2026/05/14 10:33:17.090,0.01,0.047,1.014
2026/05/14 10:33:17.109,0.004,0.047,1.009
2026/05/14 10:33:17.128,0.011,0.047,1.011
2026/05/14 10:33:17.146,0.009,0.048,1.009
2026/05/14 10:33:17.165,0.002,0.05,1.008
2026/05/14 10:33:17.184,0.009,0.046,1.01
2026/05/14 10:33:17.202,0.005,0.049,1.012
2026/05/14 10:33:17.221,0.006,0.049,1.012
2026/05/14 10:33:17.240,0.006,0.046,1.014
2026/05/14 10:33:17.258,0.009,0.047,1.009
2026/05/14 10:33:17.277,0.006,0.049,1.009
2026/05/14 10:33:17.296,0.011,0.049,1.013
2026/05/14 10:33:17.315,0.008,0.048,1.011
2026/05/14 10:33:17.333,0.009,0.046,1.013
2026/05/14 10:33:17.352,0.007,0.047,1.009
2026/05/14 10:33:17.371,0.01,0.052,1.012
2026/05/14 10:33:17.389,0.011,0.052,1.013
2026/05/14 10:33:17.408,0.011,0.049,1.01
2026/05/14 10:33:17.427,0.005,0.05,1.011
2026/05/14 10:33:17.445,0.009,0.052,1.013
2026/05/14 10:33:17.464,0.009,0.049,1.012
2026/05/14 10:33:17.483,0.007,0.053,1.009
2026/05/14 10:33:17.501,0.005,0.05,1.009
2026/05/14 10:33:17.520,0.009,0.05,1.01
2026/05/14 10:33:17.539,0.009,0.051,1.006
2026/05/14 10:33:17.558,0.007,0.046,1.01
2026/05/14 10:33:17.576,0.011,0.047,1.011
2026/05/14 10:33:17.595,0.009,0.05,1.012
2026/05/14 10:33:17.614,0.007,0.047,1.009
2026/05/14 10:33:17.632,0.004,0.05,1.011
2026/05/14 10:33:17.651,0.006,0.054,1.015
2026/05/14 10:33:17.670,0.007,0.049,1.01
2026/05/14 10:33:17.688,0.008,0.05,1.01
2026/05/14 10:33:17.707,0.006,0.051,1.009
2026/05/14 10:33:17.726,0.007,0.053,1.01
2026/05/14 10:33:17.745,0.007,0.051,1.013
2026/05/14 10:33:17.763,0.008,0.048,1.011
2026/05/14 10:33:17.782,0.007,0.049,1.011
2026/05/14 10:33:17.801,0.004,0.049,1.01
2026/05/14 10:33:17.819,0.007,0.053,1.013
2026/05/14 10:33:17.838,0.009,0.05,1.011
2026/05/14 10:33:17.857,0.01,0.048,1.005
2026/05/14 10:33:17.875,0.007,0.05,1.017
2026/05/14 10:33:17.894,0.01,0.051,1.012
2026/05/14 10:33:17.913,0.005,0.05,1.011
2026/05/14 10:33:17.931,0.009,0.047,1.014
2026/05/14 10:33:17.950,0.01,0.052,1.011
2026/05/14 10:33:17.969,0.011,0.05,1.015
2026/05/14 10:33:17.988,0.008,0.046,1.012
2026/05/14 10:33:18.006,0.006,0.049,1.011
2026/05/14 10:33:18.025,0.007,0.051,1.01
2026/05/14 10:33:18.044,0.006,0.049,1.012
2026/05/14 10:33:18.062,0.006,0.051,1.016
2026/05/14 10:33:18.081,0.007,0.048,1.01
2026/05/14 10:33:18.100,0.007,0.05,1.007
2026/05/14 10:33:18.118,0.01,0.047,1.01
2026/05/14 10:33:18.137,0.008,0.05,1.01
2026/05/14 10:33:18.156,0.007,0.046,1.011
2026/05/14 10:33:18.175,0.008,0.048,1.01
2026/05/14 10:33:18.193,0.007,0.046,1.008
2026/05/14 10:33:18.212,0.008,0.045,1.012
2026/05/14 10:33:18.231,0.008,0.045,1.011
2026/05/14 10:33:18.249,0.007,0.05,1.011
2026/05/14 10:33:18.268,0.013,0.047,1.011
2026/05/14 10:33:18.287,0.006,0.047,1.01
2026/05/14 10:33:18.305,0.01,0.047,1.012
2026/05/14 10:33:18.324,0.006,0.05,1.012
2026/05/14 10:33:18.343,0.007,0.053,1.015
2026/05/14 10:33:18.361,0.009,0.051,1.011
2026/05/14 10:33:18.380,0.007,0.049,1.011
2026/05/14 10:33:18.399,0.002,0.047,1.012
2026/05/14 10:33:18.418,0.006,0.045,1.009
2026/05/14 10:33:18.436,0.009,0.05,1.012
2026/05/14 10:33:18.455,0.007,0.048,1.007
2026/05/14 10:33:18.474,0.004,0.046,1.01
2026/05/14 10:33:18.492,0.009,0.049,1.009
2026/05/14 10:33:18.511,0.004,0.047,1.01
2026/05/14 10:33:18.530,0.008,0.048,1.008
2026/05/14 10:33:18.548,0.006,0.048,1.007
2026/05/14 10:33:18.567,0.01,0.052,1.009
2026/05/14 10:33:18.586,0.005,0.05,1.011
2026/05/14 10:33:18.605,0.007,0.049,1.008
2026/05/14 10:33:18.623,0.007,0.046,1.017
2026/05/14 10:33:18.642,0.008,0.047,1.004
2026/05/14 10:33:18.661,0.008,0.047,1.01
2026/05/14 10:33:18.679,0.006,0.05,1.007
2026/05/14 10:33:18.698,0.004,0.05,1.011
2026/05/14 10:33:18.717,0.009,0.05,1.012
2026/05/14 10:33:18.735,0.008,0.047,1.012
2026/05/14 10:33:18.754,0.009,0.045,1.008
2026/05/14 10:33:18.773,0.005,0.046,1.011
2026/05/14 10:33:18.791,0.004,0.051,1.014
2026/05/14 10:33:18.810,0.004,0.048,1.008
2026/05/14 10:33:18.829,0.009,0.047,1.012
2026/05/14 10:33:18.848,0.009,0.048,1.011
2026/05/14 10:33:18.866,0.007,0.051,1.007
2026/05/14 10:33:18.885,0.005,0.052,1.009
2026/05/14 10:33:18.904,0.006,0.05,1.009
2026/05/14 10:33:18.922,0.007,0.051,1.013
2026/05/14 10:33:18.941,0.007,0.049,1.007
2026/05/14 10:33:18.960,0.008,0.052,1.008
2026/05/14 10:33:18.978,0.011,0.05,1.01
2026/05/14 10:33:18.997,0.007,0.048,1.011
2026/05/14 10:33:19.016,0.009,0.049,1.011
2026/05/14 10:33:19.034,0.007,0.048,1.01
2026/05/14 10:33:19.053,0.008,0.052,1.013
2026/05/14 10:33:19.072,0.008,0.051,1.011
2026/05/14 10:33:19.091,0.006,0.048,1.012
2026/05/14 10:33:19.109,0.009,0.048,1.011
2026/05/14 10:33:19.128,0.007,0.049,1.01
2026/05/14 10:33:19.147,0.006,0.048,1.014
2026/05/14 10:33:19.165,0.007,0.047,1.01
2026/05/14 10:33:19.184,0.009,0.05,1.011
2026/05/14 10:33:19.203,0.005,0.048,1.007
2026/05/14 10:33:19.221,0.01,0.052,1.011
2026/05/14 10:33:19.240,0.007,0.048,1.011
2026/05/14 10:33:19.259,0.004,0.05,1.006
2026/05/14 10:33:19.278,0.007,0.05,1.014
2026/05/14 10:33:19.296,0.011,0.048,1.01
2026/05/14 10:33:19.315,0.005,0.047,1.009
2026/05/14 10:33:19.334,0.005,0.048,1.01
2026/05/14 10:33:19.352,0.006,0.044,1.013
2026/05/14 10:33:19.371,0.009,0.046,1.013
2026/05/14 10:33:19.390,0.008,0.047,1.013
2026/05/14 10:33:19.408,0.007,0.045,1.007
2026/05/14 10:33:19.427,0.009,0.049,1.007
2026/05/14 10:33:19.446,0.006,0.047,1.015
2026/05/14 10:33:19.464,0.01,0.054,1.014
2026/05/14 10:33:19.483,0.008,0.05,1.015
2026/05/14 10:33:19.502,0.009,0.049,1.011
2026/05/14 10:33:19.521,0.011,0.052,1.009
2026/05/14 10:33:19.539,0.006,0.049,1.01
2026/05/14 10:33:19.558,0.01,0.051,1.012
2026/05/14 10:33:19.577,0.008,0.051,1.009
2026/05/14 10:33:19.595,0.004,0.05,1.013
2026/05/14 10:33:19.614,0.008,0.051,1.012
2026/05/14 10:33:19.633,0.008,0.047,1.011
2026/05/14 10:33:19.651,0.009,0.046,1.009
2026/05/14 10:33:19.670,0.008,0.044,1.009
2026/05/14 10:33:19.689,0.005,0.052,1.013
2026/05/14 10:33:19.708,0.008,0.049,1.009
2026/05/14 10:33:19.726,0.01,0.044,1.014
2026/05/14 10:33:19.745,0.009,0.046,1.008
2026/05/14 10:33:19.764,0.009,0.047,1.01
2026/05/14 10:33:19.782,0.008,0.05,1.006
2026/05/14 10:33:19.801,0.011,0.045,1.01
2026/05/14 10:33:19.820,0.008,0.05,1.011
2026/05/14 10:33:19.838,0.007,0.054,1.012
2026/05/14 10:33:19.857,0.006,0.053,1.011
2026/05/14 10:33:19.876,0.006,0.049,1.011
2026/05/14 10:33:19.895,0.008,0.048,1.01
2026/05/14 10:33:19.913,0.007,0.05,1.009
2026/05/14 10:33:19.932,0.008,0.045,1.014
2026/05/14 10:33:19.951,0.006,0.048,1.01
2026/05/14 10:33:19.969,0.008,0.051,1.012
2026/05/14 10:33:19.988,0.009,0.047,1.011
2026/05/14 10:33:20.007,0.006,0.049,1.011
2026/05/14 10:33:20.025,0.006,0.048,1.009
2026/05/14 10:33:20.044,0.005,0.051,1.011
2026/05/14 10:33:20.063,0.007,0.047,1.006
2026/05/14 10:33:20.081,0.007,0.049,1.007
2026/05/14 10:33:20.100,0.006,0.049,1.01
2026/05/14 10:33:20.119,0.008,0.047,1.012
2026/05/14 10:33:20.138,0.007,0.047,1.011
2026/05/14 10:33:20.156,0.007,0.048,1.012
2026/05/14 10:33:20.175,0.008,0.049,1.008
2026/05/14 10:33:20.194,0.009,0.05,1.009
2026/05/14 10:33:20.212,0.009,0.052,1.011
2026/05/14 10:33:20.231,0.008,0.052,1.009
2026/05/14 10:33:20.250,0.007,0.047,1.01
2026/05/14 10:33:20.268,0.005,0.049,1.01
2026/05/14 10:33:20.287,0.006,0.053,1.01
2026/05/14 10:33:20.306,0.006,0.048,1.01
2026/05/14 10:33:20.325,0.009,0.048,1.014
2026/05/14 10:33:20.343,0.008,0.048,1.011
2026/05/14 10:33:20.362,0.005,0.051,1.012
2026/05/14 10:33:20.381,0.009,0.046,1.013
2026/05/14 10:33:20.399,0.004,0.052,1.012
2026/05/14 10:33:20.418,0.006,0.045,1.01
2026/05/14 10:33:20.437,0.007,0.047,1.008
2026/05/14 10:33:20.455,0.008,0.046,1.012
2026/05/14 10:33:20.474,0.007,0.05,1.012
2026/05/14 10:33:20.493,0.009,0.049,1.008
2026/05/14 10:33:20.512,0.008,0.053,1.006
2026/05/14 10:33:20.530,0.007,0.047,1.013
2026/05/14 10:33:20.549,0.006,0.053,1.01
2026/05/14 10:33:20.568,0.007,0.05,1.013
2026/05/14 10:33:20.586,0.011,0.051,1.013
2026/05/14 10:33:20.605,0.01,0.046,1.011
2026/05/14 10:33:20.624,0.007,0.048,1.015
2026/05/14 10:33:20.642,0.006,0.051,1.014
2026/05/14 10:33:20.661,0.01,0.054,1.006
2026/05/14 10:33:20.680,0.005,0.052,1.014
2026/05/14 10:33:20.698,0.007,0.05,1.015
2026/05/14 10:33:20.717,0.009,0.044,1.013
2026/05/14 10:33:20.736,0.011,0.05,1.014
2026/05/14 10:33:20.755,0.009,0.047,1.014
2026/05/14 10:33:20.773,0.009,0.048,1.008
2026/05/14 10:33:20.792,0.005,0.048,1.006
2026/05/14 10:33:20.811,0.009,0.051,1.01
2026/05/14 10:33:20.829,0.01,0.046,1.009
2026/05/14 10:33:20.848,0.008,0.047,1.008
2026/05/14 10:33:20.867,0.005,0.05,1.004
2026/05/14 10:33:20.885,0.006,0.048,1.009
2026/05/14 10:33:20.904,0.008,0.05,1.011
2026/05/14 10:33:20.923,0.009,0.047,1.01
2026/05/14 10:33:20.942,0.004,0.048,1.008
2026/05/14 10:33:20.960,0.008,0.045,1.011
2026/05/14 10:33:20.979,0.009,0.046,1.014
2026/05/14 10:33:20.998,0.006,0.044,1.009
2026/05/14 10:33:21.016,0.009,0.048,1.005
2026/05/14 10:33:21.035,0.009,0.051,1.009
2026/05/14 10:33:21.054,0.006,0.051,1.014
2026/05/14 10:33:21.072,0.009,0.053,1.01
2026/05/14 10:33:21.091,0.005,0.05,1.011
2026/05/14 10:33:21.110,0.006,0.049,1.01
2026/05/14 10:33:21.128,0.011,0.051,1.012
2026/05/14 10:33:21.147,0.011,0.048,1.013
2026/05/14 10:33:21.166,0.008,0.046,1.012
2026/05/14 10:33:21.185,0.007,0.047,1.008
2026/05/14 10:33:21.203,0.009,0.045,1.011
2026/05/14 10:33:21.222,0.007,0.051,1.013
2026/05/14 10:33:21.241,0.01,0.05,1.01
2026/05/14 10:33:21.259,0.007,0.05,1.012
2026/05/14 10:33:21.278,0.006,0.05,1.01
2026/05/14 10:33:21.297,0.009,0.052,1.008
2026/05/14 10:33:21.315,0.007,0.051,1.006
2026/05/14 10:33:21.334,0.009,0.044,1.008
2026/05/14 10:33:21.353,0.005,0.049,1.01
2026/05/14 10:33:21.372,0.009,0.047,1.016
2026/05/14 10:33:21.390,0.008,0.048,1.01
2026/05/14 10:33:21.409,0.009,0.05,1.013
2026/05/14 10:33:21.428,0.007,0.053,1.014
2026/05/14 10:33:21.446,0.005,0.052,1.01
2026/05/14 10:33:21.465,0.006,0.054,1.014
2026/05/14 10:33:21.484,0.002,0.053,1.011
2026/05/14 10:33:21.502,0.001,0.054,1.009
2026/05/14 10:33:21.521,0.002,0.049,1.013
2026/05/14 10:33:21.540,0.012,0.044,1.006
2026/05/14 10:33:21.559,0.009,0.049,1.009
2026/05/14 10:33:21.577,0.013,0.044,1.006
2026/05/14 10:33:21.596,0.01,0.048,1.007
2026/05/14 10:33:21.615,0.012,0.049,1.011
2026/05/14 10:33:21.633,0.011,0.049,1.011
2026/05/14 10:33:21.652,0.006,0.049,1.012
2026/05/14 10:33:21.671,0.005,0.048,1.015
2026/05/14 10:33:21.689,0.007,0.053,1.012
2026/05/14 10:33:21.708,0.003,0.053,1.011
2026/05/14 10:33:21.727,0.001,0.052,1.008
2026/05/14 10:33:21.745,0.007,0.048,1.008
2026/05/14 10:33:21.764,0.006,0.049,1.013
2026/05/14 10:33:21.783,0.009,0.048,1.007
2026/05/14 10:33:21.802,0.007,0.044,1.011
2026/05/14 10:33:21.820,0.011,0.047,1.01
2026/05/14 10:33:21.839,0.009,0.044,1.007
2026/05/14 10:33:21.858,0.012,0.045,1.014
2026/05/14 10:33:21.876,0.011,0.046,1.013
2026/05/14 10:33:21.895,0.006,0.048,1.009
2026/05/14 10:33:21.914,0.007,0.055,1.015
2026/05/14 10:33:21.932,0.006,0.05,1.013
2026/05/14 10:33:21.951,0.0,0.049,1.009
2026/05/14 10:33:21.970,0.006,0.051,1.012
2026/05/14 10:33:21.989,0.008,0.05,1.004
2026/05/14 10:33:22.007,0.007,0.055,1.01
2026/05/14 10:33:22.026,0.009,0.05,1.01
2026/05/14 10:33:22.045,0.006,0.049,1.009
2026/05/14 10:33:22.063,0.007,0.049,1.01
2026/05/14 10:33:22.082,0.012,0.049,1.01
2026/05/14 10:33:22.101,0.01,0.047,1.012
2026/05/14 10:33:22.119,0.005,0.047,1.011
2026/05/14 10:33:22.138,0.012,0.043,1.011
2026/05/14 10:33:22.157,0.001,0.053,1.005
2026/05/14 10:33:22.176,0.003,0.053,1.007
2026/05/14 10:33:22.194,0.004,0.052,1.009
2026/05/14 10:33:22.213,0.001,0.054,1.009
2026/05/14 10:33:22.232,0.006,0.046,1.009
2026/05/14 10:33:22.250,0.011,0.043,1.007
2026/05/14 10:33:22.269,0.004,0.048,1.012
2026/05/14 10:33:22.288,0.005,0.039,1.009
2026/05/14 10:33:22.306,0.011,0.046,1.015
2026/05/14 10:33:22.325,0.013,0.044,1.005
2026/05/14 10:33:22.344,0.017,0.049,1.013
2026/05/14 10:33:22.362,0.011,0.056,1.008
2026/05/14 10:33:22.381,0.011,0.054,1.009
2026/05/14 10:33:22.400,0.01,0.051,1.014
2026/05/14 10:33:22.419,0.001,0.052,1.011
2026/05/14 10:33:22.437,0.006,0.05,1.007
2026/05/14 10:33:22.456,0.002,0.047,1.011
2026/05/14 10:33:22.475,0.004,0.049,1.008
2026/05/14 10:33:22.493,0.008,0.05,1.009
2026/05/14 10:33:22.512,0.013,0.049,1.01
2026/05/14 10:33:22.531,0.016,0.048,1.008
2026/05/14 10:33:22.549,0.01,0.051,1.008
2026/05/14 10:33:22.568,0.01,0.048,1.014
2026/05/14 10:33:22.587,0.009,0.048,1.01
2026/05/14 10:33:22.606,0.007,0.042,1.014
2026/05/14 10:33:22.624,0.007,0.045,1.01
2026/05/14 10:33:22.643,0.004,0.053,1.011
2026/05/14 10:33:22.662,0.011,0.052,1.008
2026/05/14 10:33:22.680,0.005,0.048,1.013
2026/05/14 10:33:22.699,0.01,0.05,1.007
2026/05/14 10:33:22.718,0.009,0.053,1.014
2026/05/14 10:33:22.736,0.004,0.052,1.009
2026/05/14 10:33:22.755,0.01,0.049,1.007
2026/05/14 10:33:22.774,0.009,0.047,1.012
2026/05/14 10:33:22.793,0.005,0.046,1.009
2026/05/14 10:33:22.811,0.011,0.049,1.011
2026/05/14 10:33:22.830,0.008,0.046,1.011
2026/05/14 10:33:22.849,0.009,0.051,1.016
2026/05/14 10:33:22.867,0.006,0.048,1.006
2026/05/14 10:33:22.886,0.003,0.045,1.016
2026/05/14 10:33:22.905,0.004,0.054,0.997
2026/05/14 10:33:22.923,0.012,0.041,1.021
2026/05/14 10:33:22.942,0.005,0.044,1.014
2026/05/14 10:33:22.961,0.005,0.05,1.003
2026/05/14 10:33:22.979,0.013,0.046,1.015
2026/05/14 10:33:22.998,0.007,0.045,1.013
2026/05/14 10:33:23.017,0.008,0.045,1.008
2026/05/14 10:33:23.036,0.007,0.051,1.012
2026/05/14 10:33:23.054,0.003,0.053,1.008
2026/05/14 10:33:23.073,0.0,0.051,1.01
2026/05/14 10:33:23.092,0.0,0.051,1.017
2026/05/14 10:33:23.110,0.001,0.052,1.009
2026/05/14 10:33:23.129,0.009,0.052,1.007
2026/05/14 10:33:23.148,0.007,0.051,1.013
2026/05/14 10:33:23.166,0.008,0.048,1.01
2026/05/14 10:33:23.185,0.012,0.049,1.002
2026/05/14 10:33:23.204,0.017,0.043,1.012
2026/05/14 10:33:23.223,0.013,0.042,1.01
2026/05/14 10:33:23.241,0.013,0.04,1.007
2026/05/14 10:33:23.260,0.009,0.045,1.01
2026/05/14 10:33:23.279,0.006,0.048,1.008
2026/05/14 10:33:23.297,0.001,0.052,1.014
2026/05/14 10:33:23.316,-0.002,0.055,1.009
2026/05/14 10:33:23.335,-0.001,0.058,1.016
2026/05/14 10:33:23.353,0.002,0.053,1.011
2026/05/14 10:33:23.372,0.005,0.056,1.01
2026/05/14 10:33:23.391,0.004,0.05,1.01
2026/05/14 10:33:23.410,0.005,0.046,1.009
2026/05/14 10:33:23.428,0.006,0.048,1.012
2026/05/14 10:33:23.447,0.012,0.048,1.01
2026/05/14 10:33:23.466,0.014,0.044,1.01
2026/05/14 10:33:23.484,0.011,0.042,1.01
2026/05/14 10:33:23.503,0.013,0.045,1.014
2026/05/14 10:33:23.522,0.015,0.05,1.015
2026/05/14 10:33:23.540,0.011,0.049,1.005
2026/05/14 10:33:23.559,0.008,0.047,1.011
2026/05/14 10:33:23.578,0.003,0.051,1.023
2026/05/14 10:33:23.596,0.006,0.048,1.001
2026/05/14 10:33:23.615,0.005,0.052,1.014
2026/05/14 10:33:23.634,-0.003,0.049,1.013
2026/05/14 10:33:23.653,-0.01,0.045,1.017
2026/05/14 10:33:23.671,0.002,0.054,1.014
2026/05/14 10:33:23.690,0.003,0.056,1.007
2026/05/14 10:33:23.709,0.008,0.051,1.013
2026/05/14 10:33:23.727,0.013,0.054,1.014
2026/05/14 10:33:23.746,0.01,0.046,1.007
2026/05/14 10:33:23.765,0.015,0.044,1.011
2026/05/14 10:33:23.783,0.013,0.047,1.008
2026/05/14 10:33:23.802,0.009,0.042,1.013
2026/05/14 10:33:23.821,0.009,0.045,1.014
2026/05/14 10:33:23.840,0.007,0.046,1.004
2026/05/14 10:33:23.858,0.006,0.048,1.011
2026/05/14 10:33:23.877,0.01,0.052,1.015
2026/05/14 10:33:23.896,0.004,0.053,1.009
2026/05/14 10:33:23.914,0.002,0.052,1.01
2026/05/14 10:33:23.933,0.003,0.055,1.011
2026/05/14 10:33:23.952,0.006,0.055,1.012
2026/05/14 10:33:23.970,0.009,0.049,1.011
2026/05/14 10:33:23.989,0.01,0.044,1.005
2026/05/14 10:33:24.008,0.014,0.046,1.009
2026/05/14 10:33:24.027,0.014,0.045,1.013
2026/05/14 10:33:24.045,0.01,0.045,1.01
2026/05/14 10:33:24.064,0.01,0.048,1.009
2026/05/14 10:33:24.083,0.008,0.042,1.011
2026/05/14 10:33:24.101,0.005,0.048,1.007
2026/05/14 10:33:24.120,0.0,0.048,1.011
2026/05/14 10:33:24.139,0.002,0.049,1.007
2026/05/14 10:33:24.157,-0.001,0.049,1.011
2026/05/14 10:33:24.176,0.0,0.052,1.014
2026/05/14 10:33:24.195,0.003,0.053,1.011
2026/05/14 10:33:24.213,0.005,0.053,1.011
2026/05/14 10:33:24.232,0.009,0.049,1.01
2026/05/14 10:33:24.251,0.011,0.049,1.012
2026/05/14 10:33:24.270,0.014,0.051,1.007
2026/05/14 10:33:24.288,0.01,0.044,1.01
2026/05/14 10:33:24.307,0.01,0.043,1.01
2026/05/14 10:33:24.326,0.011,0.045,1.009
2026/05/14 10:33:24.344,0.013,0.048,1.014
2026/05/14 10:33:24.363,0.01,0.054,1.01
2026/05/14 10:33:24.382,0.007,0.054,1.016
2026/05/14 10:33:24.400,0.002,0.05,1.014
2026/05/14 10:33:24.419,0.005,0.054,1.015
2026/05/14 10:33:24.438,0.006,0.048,1.01
2026/05/14 10:33:24.457,0.005,0.049,1.013
2026/05/14 10:33:24.475,0.008,0.048,1.012
2026/05/14 10:33:24.494,0.006,0.045,1.012
2026/05/14 10:33:24.513,0.008,0.048,1.01
2026/05/14 10:33:24.531,0.011,0.048,1.012
2026/05/14 10:33:24.550,0.013,0.047,1.009
2026/05/14 10:33:24.569,0.011,0.049,1.011
2026/05/14 10:33:24.587,0.009,0.046,1.013
2026/05/14 10:33:24.606,0.007,0.05,1.014
2026/05/14 10:33:24.625,0.002,0.047,1.01
2026/05/14 10:33:24.644,0.003,0.056,1.015
2026/05/14 10:33:24.662,0.004,0.048,1.012
2026/05/14 10:33:24.681,0.006,0.051,1.01
2026/05/14 10:33:24.700,0.009,0.047,1.016
2026/05/14 10:33:24.718,0.007,0.047,1.013
2026/05/14 10:33:24.737,0.005,0.046,1.01
2026/05/14 10:33:24.756,0.007,0.047,1.012
2026/05/14 10:33:24.774,0.003,0.046,1.008
2026/05/14 10:33:24.793,0.013,0.046,1.008
2026/05/14 10:33:24.812,0.009,0.046,1.011
2026/05/14 10:33:24.830,0.007,0.047,1.009
2026/05/14 10:33:24.849,0.008,0.049,1.013
2026/05/14 10:33:24.868,0.005,0.045,1.009
2026/05/14 10:33:24.887,0.01,0.049,1.007
2026/05/14 10:33:24.905,0.002,0.043,1.009
2026/05/14 10:33:24.924,0.007,0.051,1.017
2026/05/14 10:33:24.943,0.005,0.049,1.008
2026/05/14 10:33:24.961,0.007,0.052,1.016
2026/05/14 10:33:24.980,0.007,0.049,1.011
2026/05/14 10:33:24.999,0.005,0.05,1.004
2026/05/14 10:33:25.017,0.004,0.048,1.012
2026/05/14 10:33:25.036,0.008,0.048,1.009
2026/05/14 10:33:25.055,0.01,0.049,1.009
2026/05/14 10:33:25.074,0.009,0.047,1.006
2026/05/14 10:33:25.092,0.013,0.044,1.013
2026/05/14 10:33:25.111,0.012,0.047,1.013
2026/05/14 10:33:25.130,0.011,0.048,1.01
2026/05/14 10:33:25.148,0.005,0.047,1.012
2026/05/14 10:33:25.167,0.007,0.051,1.014
2026/05/14 10:33:25.186,0.005,0.049,1.007
2026/05/14 10:33:25.204,0.007,0.05,1.013
2026/05/14 10:33:25.223,0.004,0.052,1.006
2026/05/14 10:33:25.242,0.005,0.052,1.009
2026/05/14 10:33:25.261,0.006,0.047,1.013
2026/05/14 10:33:25.279,0.009,0.045,1.012
2026/05/14 10:33:25.298,0.007,0.048,1.009
2026/05/14 10:33:25.317,0.007,0.05,1.011
2026/05/14 10:33:25.335,0.008,0.046,1.01
2026/05/14 10:33:25.354,0.013,0.048,1.007
2026/05/14 10:33:25.373,0.008,0.05,1.012
2026/05/14 10:33:25.391,0.007,0.052,1.011
2026/05/14 10:33:25.410,0.009,0.05,1.011
2026/05/14 10:33:25.429,0.009,0.048,1.012
2026/05/14 10:33:25.447,0.009,0.045,1.011
2026/05/14 10:33:25.466,0.009,0.051,1.008
2026/05/14 10:33:25.485,0.011,0.049,1.011
2026/05/14 10:33:25.504,0.006,0.049,1.011
2026/05/14 10:33:25.522,0.009,0.051,1.012
2026/05/14 10:33:25.541,0.006,0.046,1.013
2026/05/14 10:33:25.560,0.009,0.046,1.011
2026/05/14 10:33:25.578,0.005,0.043,1.009
2026/05/14 10:33:25.597,0.003,0.05,1.014
2026/05/14 10:33:25.616,0.009,0.047,1.007
2026/05/14 10:33:25.634,0.01,0.051,1.011
2026/05/14 10:33:25.653,0.006,0.052,1.013
2026/05/14 10:33:25.672,0.008,0.05,1.008
2026/05/14 10:33:25.691,0.006,0.051,1.006
2026/05/14 10:33:25.709,0.009,0.046,1.009
2026/05/14 10:33:25.728,0.004,0.046,1.006
2026/05/14 10:33:25.747,0.006,0.047,1.01
2026/05/14 10:33:25.765,0.01,0.048,1.014
2026/05/14 10:33:25.784,0.011,0.049,1.009
2026/05/14 10:33:25.803,0.006,0.051,1.009
2026/05/14 10:33:25.821,0.008,0.051,1.012
2026/05/14 10:33:25.840,0.01,0.047,1.011
2026/05/14 10:33:25.859,0.007,0.044,1.011
2026/05/14 10:33:25.877,0.01,0.047,1.008
2026/05/14 10:33:25.896,0.008,0.047,1.008
2026/05/14 10:33:25.915,0.008,0.052,1.011
2026/05/14 10:33:25.934,0.009,0.052,1.012
2026/05/14 10:33:25.952,0.005,0.057,1.012
2026/05/14 10:33:25.971,0.002,0.058,1.01
2026/05/14 10:33:25.990,0.007,0.053,1.01
2026/05/14 10:33:26.008,0.005,0.052,1.01
2026/05/14 10:33:26.027,0.007,0.047,1.009
2026/05/14 10:33:26.046,0.008,0.045,1.006
2026/05/14 10:33:26.064,0.01,0.047,1.006
2026/05/14 10:33:26.083,0.012,0.053,1.009
2026/05/14 10:33:26.102,0.008,0.047,1.009
2026/05/14 10:33:26.121,0.009,0.051,1.011
2026/05/14 10:33:26.139,0.006,0.049,1.008
2026/05/14 10:33:26.158,0.012,0.051,1.011
2026/05/14 10:33:26.177,0.003,0.048,1.011
2026/05/14 10:33:26.195,0.002,0.046,1.012
2026/05/14 10:33:26.214,0.007,0.044,1.012
2026/05/14 10:33:26.233,0.006,0.052,1.011
2026/05/14 10:33:26.251,0.003,0.052,1.013
2026/05/14 10:33:26.270,0.008,0.052,1.009
2026/05/14 10:33:26.289,0.009,0.052,1.013
2026/05/14 10:33:26.308,0.01,0.05,1.008
2026/05/14 10:33:26.326,0.009,0.046,1.009
2026/05/14 10:33:26.345,0.009,0.049,1.013
2026/05/14 10:33:26.364,0.004,0.051,1.007
2026/05/14 10:33:26.382,0.011,0.054,1.01
2026/05/14 10:33:26.401,0.01,0.047,1.009
2026/05/14 10:33:26.420,0.01,0.046,1.012
2026/05/14 10:33:26.438,0.005,0.05,1.014
2026/05/14 10:33:26.457,0.006,0.05,1.012
2026/05/14 10:33:26.476,0.007,0.047,1.007
2026/05/14 10:33:26.494,0.006,0.051,1.009
2026/05/14 10:33:26.513,0.007,0.05,1.008
2026/05/14 10:33:26.532,0.009,0.047,1.012
2026/05/14 10:33:26.551,0.007,0.048,1.012
2026/05/14 10:33:26.569,0.008,0.052,1.011
2026/05/14 10:33:26.588,0.007,0.047,1.011
2026/05/14 10:33:26.607,0.007,0.051,1.014
2026/05/14 10:33:26.625,0.013,0.048,1.005
2026/05/14 10:33:26.644,0.012,0.045,1.009
2026/05/14 10:33:26.663,0.009,0.046,1.012
2026/05/14 10:33:26.681,0.009,0.047,1.013
2026/05/14 10:33:26.700,0.007,0.051,1.011
2026/05/14 10:33:26.719,0.007,0.048,1.014
2026/05/14 10:33:26.738,0.011,0.048,1.012
2026/05/14 10:33:26.756,0.005,0.057,1.011
2026/05/14 10:33:26.775,0.002,0.052,1.013
2026/05/14 10:33:26.794,0.008,0.051,1.012
2026/05/14 10:33:26.812,0.005,0.053,1.011
2026/05/14 10:33:26.831,0.005,0.051,1.011
2026/05/14 10:33:26.850,0.004,0.05,1.008
2026/05/14 10:33:26.868,0.006,0.057,1.017
2026/05/14 10:33:26.887,0.006,0.054,1.011
2026/05/14 10:33:26.906,0.007,0.049,1.011
2026/05/14 10:33:26.924,0.014,0.047,1.015
2026/05/14 10:33:26.943,0.012,0.049,0.996
2026/05/14 10:33:26.962,0.009,0.044,1.012
2026/05/14 10:33:26.981,0.016,0.047,1.014
2026/05/14 10:33:26.999,0.007,0.044,1.011
2026/05/14 10:33:27.018,0.012,0.047,1.014
2026/05/14 10:33:27.037,0.011,0.044,1.013
2026/05/14 10:33:27.055,0.005,0.049,1.008
2026/05/14 10:33:27.074,0.01,0.053,1.014
2026/05/14 10:33:27.093,0.0,0.05,1.011
2026/05/14 10:33:27.111,0.005,0.053,1.012
2026/05/14 10:33:27.130,-0.001,0.05,1.006
2026/05/14 10:33:27.149,0.001,0.051,1.01
2026/05/14 10:33:27.168,0.008,0.052,1.009
2026/05/14 10:33:27.186,0.006,0.049,1.01
2026/05/14 10:33:27.205,0.013,0.052,1.011
2026/05/14 10:33:27.224,0.009,0.049,1.011
2026/05/14 10:33:27.242,0.014,0.047,1.01
2026/05/14 10:33:27.261,0.013,0.046,1.011
2026/05/14 10:33:27.280,0.012,0.045,1.01
2026/05/14 10:33:27.298,0.008,0.046,1.014
2026/05/14 10:33:27.317,0.005,0.047,1.005
2026/05/14 10:33:27.336,0.009,0.05,1.012
2026/05/14 10:33:27.355,0.004,0.055,1.012
2026/05/14 10:33:27.373,0.003,0.055,1.008
2026/05/14 10:33:27.392,0.005,0.05,1.014
2026/05/14 10:33:27.411,0.003,0.047,1.013
2026/05/14 10:33:27.429,0.007,0.049,1.009
2026/05/14 10:33:27.448,0.011,0.05,1.008
2026/05/14 10:33:27.467,0.011,0.046,1.01
2026/05/14 10:33:27.485,0.014,0.044,1.013
2026/05/14 10:33:27.504,0.013,0.045,1.012
2026/05/14 10:33:27.523,0.013,0.044,1.011
2026/05/14 10:33:27.541,0.012,0.044,1.009
2026/05/14 10:33:27.560,0.013,0.049,1.009
2026/05/14 10:33:27.579,0.009,0.048,1.011
2026/05/14 10:33:27.598,0.006,0.051,1.014
2026/05/14 10:33:27.616,0.001,0.05,1.012
2026/05/14 10:33:27.635,0.004,0.054,1.013
2026/05/14 10:33:27.654,0.005,0.051,1.004
2026/05/14 10:33:27.672,0.003,0.049,1.009
2026/05/14 10:33:27.691,0.009,0.046,1.014
2026/05/14 10:33:27.710,0.008,0.048,1.005
2026/05/14 10:33:27.728,0.012,0.049,1.012
2026/05/14 10:33:27.747,0.009,0.046,1.011
2026/05/14 10:33:27.766,0.013,0.045,1.008
2026/05/14 10:33:27.785,0.009,0.044,1.009
2026/05/14 10:33:27.803,0.007,0.049,1.009
2026/05/14 10:33:27.822,0.004,0.052,1.008
2026/05/14 10:33:27.841,0.003,0.056,1.012
2026/05/14 10:33:27.859,0.007,0.05,1.009
2026/05/14 10:33:27.878,0.001,0.05,1.007
2026/05/14 10:33:27.897,0.005,0.053,1.012
2026/05/14 10:33:27.915,0.007,0.051,1.011
2026/05/14 10:33:27.934,0.008,0.049,1.01
2026/05/14 10:33:27.953,0.009,0.047,1.013
2026/05/14 10:33:27.972,0.009,0.043,1.011
2026/05/14 10:33:27.990,0.011,0.05,1.01
2026/05/14 10:33:28.009,0.013,0.045,1.01
2026/05/14 10:33:28.028,0.013,0.045,1.008
2026/05/14 10:33:28.046,0.008,0.045,1.011
2026/05/14 10:33:28.065,0.003,0.048,1.01
2026/05/14 10:33:28.084,0.005,0.053,1.007
2026/05/14 10:33:28.102,0.001,0.053,1.012
2026/05/14 10:33:28.121,0.002,0.054,1.006
2026/05/14 10:33:28.140,0.004,0.052,1.012
2026/05/14 10:33:28.158,0.007,0.044,1.014
2026/05/14 10:33:28.177,0.007,0.054,1.012
2026/05/14 10:33:28.196,0.008,0.049,1.007
2026/05/14 10:33:28.215,0.006,0.05,1.011
2026/05/14 10:33:28.233,0.011,0.05,1.014
2026/05/14 10:33:28.252,0.008,0.045,1.01
2026/05/14 10:33:28.271,0.009,0.047,1.009
2026/05/14 10:33:28.289,0.012,0.05,1.008
2026/05/14 10:33:28.308,0.009,0.043,1.01
2026/05/14 10:33:28.327,0.004,0.05,1.014
2026/05/14 10:33:28.345,0.0,0.051,1.01
2026/05/14 10:33:28.364,0.004,0.054,1.007
2026/05/14 10:33:28.383,0.003,0.049,1.012
2026/05/14 10:33:28.402,0.002,0.051,1.009
2026/05/14 10:33:28.420,0.009,0.045,1.015
2026/05/14 10:33:28.439,0.007,0.054,1.008
2026/05/14 10:33:28.458,0.013,0.048,1.013
2026/05/14 10:33:28.476,0.011,0.046,1.012
2026/05/14 10:33:28.495,0.014,0.051,1.007
2026/05/14 10:33:28.514,0.011,0.046,1.012
2026/05/14 10:33:28.532,0.011,0.046,1.013
2026/05/14 10:33:28.551,0.007,0.045,1.012
2026/05/14 10:33:28.570,0.01,0.048,1.015
2026/05/14 10:33:28.588,0.009,0.05,1.011
2026/05/14 10:33:28.607,0.008,0.051,1.013
2026/05/14 10:33:28.626,0.007,0.052,1.01
2026/05/14 10:33:28.645,0.006,0.055,1.013
2026/05/14 10:33:28.663,0.003,0.05,1.008
2026/05/14 10:33:28.682,0.003,0.05,1.011
2026/05/14 10:33:28.701,0.003,0.051,1.014
2026/05/14 10:33:28.719,0.0,0.046,1.012
2026/05/14 10:33:28.738,0.001,0.046,1.011
2026/05/14 10:33:28.757,0.006,0.048,1.01
2026/05/14 10:33:28.775,0.01,0.05,1.006
2026/05/14 10:33:28.794,0.01,0.048,1.009
2026/05/14 10:33:28.813,0.01,0.051,1.013
2026/05/14 10:33:28.832,0.006,0.048,1.014
2026/05/14 10:33:28.850,0.008,0.048,1.008
2026/05/14 10:33:28.869,0.009,0.049,1.01
2026/05/14 10:33:28.888,0.006,0.05,1.008
2026/05/14 10:33:28.906,0.009,0.047,1.01
2026/05/14 10:33:28.925,0.011,0.054,1.009
2026/05/14 10:33:28.944,0.008,0.046,1.009
2026/05/14 10:33:28.962,0.008,0.052,1.009
2026/05/14 10:33:28.981,0.01,0.05,1.014
2026/05/14 10:33:29.000,0.01,0.044,1.013
2026/05/14 10:33:29.019,0.006,0.053,1.012
2026/05/14 10:33:29.037,0.007,0.049,1.017
2026/05/14 10:33:29.056,0.006,0.049,1.015
2026/05/14 10:33:29.075,0.008,0.05,1.013
2026/05/14 10:33:29.093,0.007,0.049,1.009
2026/05/14 10:33:29.112,0.009,0.055,1.009
2026/05/14 10:33:29.131,0.011,0.05,1.01
2026/05/14 10:33:29.149,0.007,0.049,1.013
2026/05/14 10:33:29.168,0.015,0.046,1.013
2026/05/14 10:33:29.187,0.008,0.045,1.012
2026/05/14 10:33:29.205,0.007,0.049,1.016
2026/05/14 10:33:29.224,0.007,0.045,1.013
2026/05/14 10:33:29.243,0.009,0.051,1.006
2026/05/14 10:33:29.262,0.006,0.049,1.005
2026/05/14 10:33:29.280,0.007,0.054,1.014
2026/05/14 10:33:29.299,0.007,0.048,1.013
2026/05/14 10:33:29.318,0.004,0.048,1.01
2026/05/14 10:33:29.336,0.007,0.05,1.006
2026/05/14 10:33:29.355,0.009,0.047,1.009
2026/05/14 10:33:29.374,0.005,0.046,1.008
2026/05/14 10:33:29.392,0.006,0.045,1.014
2026/05/14 10:33:29.411,0.007,0.048,1.007
2026/05/14 10:33:29.430,0.001,0.048,1.009
2026/05/14 10:33:29.449,0.002,0.051,1.012
2026/05/14 10:33:29.467,0.0,0.05,1.008
2026/05/14 10:33:29.486,0.004,0.056,1.01
2026/05/14 10:33:29.505,0.003,0.053,1.012
2026/05/14 10:33:29.523,0.008,0.052,1.011
2026/05/14 10:33:29.542,0.01,0.051,1.011
2026/05/14 10:33:29.561,0.01,0.054,1.01
2026/05/14 10:33:29.579,0.011,0.046,1.014
2026/05/14 10:33:29.598,0.014,0.051,1.01
2026/05/14 10:33:29.617,0.012,0.045,1.006
2026/05/14 10:33:29.635,0.008,0.044,1.017
2026/05/14 10:33:29.654,0.011,0.049,1.013
2026/05/14 10:33:29.673,0.008,0.051,1.013
2026/05/14 10:33:29.692,0.004,0.053,1.007
2026/05/14 10:33:29.710,0.004,0.054,1.014
2026/05/14 10:33:29.729,-0.002,0.053,1.005
2026/05/14 10:33:29.748,0.001,0.054,1.01
2026/05/14 10:33:29.766,0.0,0.049,1.007
2026/05/14 10:33:29.785,-0.002,0.049,1.013
2026/05/14 10:33:29.804,0.004,0.047,1.011
2026/05/14 10:33:29.822,0.013,0.044,1.006
2026/05/14 10:33:29.841,0.015,0.047,1.012
2026/05/14 10:33:29.860,0.019,0.045,1.014
2026/05/14 10:33:29.879,0.019,0.047,1.008
2026/05/14 10:33:29.897,0.012,0.049,1.011
2026/05/14 10:33:29.916,0.009,0.046,1.008
2026/05/14 10:33:29.935,0.012,0.051,1.01
2026/05/14 10:33:29.953,0.005,0.048,1.01
2026/05/14 10:33:29.972,0.002,0.054,1.007
2026/05/14 10:33:29.991,-0.001,0.052,1.012
2026/05/14 10:33:30.009,-0.001,0.055,1.007
2026/05/14 10:33:30.028,0.001,0.056,1.01
2026/05/14 10:33:30.047,0.006,0.051,1.009
2026/05/14 10:33:30.065,0.006,0.05,1.008
2026/05/14 10:33:30.084,0.01,0.045,1.011
2026/05/14 10:33:30.103,0.013,0.045,1.009
2026/05/14 10:33:30.122,0.011,0.04,1.009
2026/05/14 10:33:30.140,0.013,0.039,1.008
2026/05/14 10:33:30.159,0.013,0.044,1.005
2026/05/14 10:33:30.178,0.008,0.05,1.013
2026/05/14 10:33:30.196,0.011,0.05,1.008
2026/05/14 10:33:30.215,0.003,0.049,1.011
2026/05/14 10:33:30.234,-0.001,0.055,1.01
2026/05/14 10:33:30.252,0.002,0.053,1.012
2026/05/14 10:33:30.271,0.003,0.052,1.012
2026/05/14 10:33:30.290,0.003,0.053,1.008
2026/05/14 10:33:30.309,0.009,0.055,1.005
2026/05/14 10:33:30.327,0.006,0.051,1.011
2026/05/14 10:33:30.346,0.01,0.049,1.013
2026/05/14 10:33:30.365,0.01,0.046,1.009
2026/05/14 10:33:30.383,0.012,0.044,1.013
2026/05/14 10:33:30.402,0.013,0.046,1.012
2026/05/14 10:33:30.421,0.008,0.047,1.013
2026/05/14 10:33:30.439,0.01,0.045,1.008
2026/05/14 10:33:30.458,0.004,0.048,1.011
2026/05/14 10:33:30.477,0.005,0.053,1.019
2026/05/14 10:33:30.495,0.006,0.054,1.011
2026/05/14 10:33:30.514,0.001,0.057,1.009
2026/05/14 10:33:30.533,0.004,0.053,1.014
2026/05/14 10:33:30.552,0.002,0.053,1.013
2026/05/14 10:33:30.570,0.009,0.047,1.013
2026/05/14 10:33:30.589,0.007,0.052,1.009
2026/05/14 10:33:30.608,0.009,0.047,1.009
2026/05/14 10:33:30.626,0.015,0.043,1.011
2026/05/14 10:33:30.645,0.012,0.045,1.01
2026/05/14 10:33:30.664,0.01,0.046,1.012
2026/05/14 10:33:30.682,0.014,0.052,1.007
2026/05/14 10:33:30.701,0.008,0.054,1.008
2026/05/14 10:33:30.720,0.008,0.047,1.01
2026/05/14 10:33:30.739,0.001,0.051,1.01
2026/05/14 10:33:30.757,0.007,0.049,1.01
2026/05/14 10:33:30.776,0.004,0.052,1.006
2026/05/14 10:33:30.795,0.005,0.052,1.007
2026/05/14 10:33:30.813,0.008,0.048,1.014
2026/05/14 10:33:30.832,0.009,0.047,1.008
2026/05/14 10:33:30.851,0.013,0.044,1.009
2026/05/14 10:33:30.869,0.012,0.043,1.007
2026/05/14 10:33:30.888,0.009,0.047,1.01
2026/05/14 10:33:30.907,0.011,0.047,1.007
2026/05/14 10:33:30.925,0.007,0.05,1.008
2026/05/14 10:33:30.944,0.009,0.048,1.01
2026/05/14 10:33:30.963,0.005,0.051,1.009
2026/05/14 10:33:30.982,0.004,0.051,1.013
2026/05/14 10:33:31.000,0.002,0.055,1.011
2026/05/14 10:33:31.019,0.002,0.048,1.01
2026/05/14 10:33:31.038,0.005,0.052,1.009
2026/05/14 10:33:31.056,0.002,0.05,1.013
2026/05/14 10:33:31.075,0.005,0.051,1.012
2026/05/14 10:33:31.094,0.009,0.046,1.015
2026/05/14 10:33:31.112,0.01,0.048,1.008
2026/05/14 10:33:31.131,0.009,0.048,1.014
2026/05/14 10:33:31.150,0.007,0.045,1.012
2026/05/14 10:33:31.169,0.005,0.049,1.008
2026/05/14 10:33:31.187,0.006,0.053,1.012
2026/05/14 10:33:31.206,0.007,0.049,1.007
2026/05/14 10:33:31.225,0.007,0.051,1.012
2026/05/14 10:33:31.243,0.007,0.045,1.008
2026/05/14 10:33:31.262,0.003,0.049,1.011
2026/05/14 10:33:31.281,0.006,0.047,1.01
2026/05/14 10:33:31.299,0.012,0.047,1.01
2026/05/14 10:33:31.318,0.005,0.049,1.009
2026/05/14 10:33:31.337,0.008,0.051,1.011
2026/05/14 10:33:31.355,0.009,0.047,1.008
2026/05/14 10:33:31.374,0.007,0.048,1.01
2026/05/14 10:33:31.393,0.007,0.051,1.012
2026/05/14 10:33:31.412,0.006,0.049,1.01
2026/05/14 10:33:31.430,0.005,0.05,1.012
2026/05/14 10:33:31.449,0.008,0.05,1.008
2026/05/14 10:33:31.468,0.005,0.051,1.016
2026/05/14 10:33:31.486,0.004,0.051,1.012
2026/05/14 10:33:31.505,0.008,0.051,1.012
2026/05/14 10:33:31.524,0.011,0.051,1.01
2026/05/14 10:33:31.542,0.007,0.05,1.01
2026/05/14 10:33:31.561,0.006,0.051,1.01
2026/05/14 10:33:31.580,0.015,0.049,1.01
2026/05/14 10:33:31.599,0.006,0.047,1.009
2026/05/14 10:33:31.617,0.01,0.047,1.01
2026/05/14 10:33:31.636,0.007,0.046,1.01
2026/05/14 10:33:31.655,0.005,0.048,1.012
2026/05/14 10:33:31.673,0.008,0.051,1.01
2026/05/14 10:33:31.692,0.007,0.054,1.016
2026/05/14 10:33:31.711,0.006,0.049,1.008
2026/05/14 10:33:31.729,0.005,0.046,1.004
2026/05/14 10:33:31.748,0.005,0.044,1.012
2026/05/14 10:33:31.767,0.007,0.049,1.007
2026/05/14 10:33:31.785,0.007,0.047,1.013
2026/05/14 10:33:31.804,0.011,0.047,1.01
2026/05/14 10:33:31.823,0.011,0.05,1.01
2026/05/14 10:33:31.842,0.01,0.049,1.009
2026/05/14 10:33:31.860,0.005,0.052,1.011
2026/05/14 10:33:31.879,0.009,0.05,1.009
2026/05/14 10:33:31.898,0.0,0.047,1.013
2026/05/14 10:33:31.916,0.006,0.054,1.011
2026/05/14 10:33:31.935,0.003,0.052,1.009
2026/05/14 10:33:31.954,0.007,0.055,1.011
2026/05/14 10:33:31.972,0.006,0.052,1.011
2026/05/14 10:33:31.991,0.005,0.045,1.011
2026/05/14 10:33:32.010,0.01,0.053,1.014
2026/05/14 10:33:32.029,0.014,0.049,1.008
2026/05/14 10:33:32.047,0.008,0.045,1.012
2026/05/14 10:33:32.066,0.009,0.048,1.012
2026/05/14 10:33:32.085,0.009,0.047,1.013
2026/05/14 10:33:32.103,0.009,0.045,1.008
2026/05/14 10:33:32.122,0.008,0.048,1.01
2026/05/14 10:33:32.141,0.005,0.047,1.007
2026/05/14 10:33:32.159,0.004,0.047,1.011
2026/05/14 10:33:32.178,0.006,0.05,1.013
2026/05/14 10:33:32.197,0.006,0.053,1.011
2026/05/14 10:33:32.215,0.009,0.05,1.016
2026/05/14 10:33:32.234,0.012,0.049,1.009
2026/05/14 10:33:32.253,0.008,0.047,1.01
2026/05/14 10:33:32.272,0.013,0.048,1.012
2026/05/14 10:33:32.290,0.01,0.046,1.012
2026/05/14 10:33:32.309,0.008,0.046,1.011
2026/05/14 10:33:32.328,0.008,0.046,1.01
2026/05/14 10:33:32.346,0.006,0.049,1.01
2026/05/14 10:33:32.365,0.002,0.046,1.004
2026/05/14 10:33:32.384,0.006,0.045,1.01
2026/05/14 10:33:32.402,0.008,0.051,1.009
2026/05/14 10:33:32.421,0.012,0.052,1.009
2026/05/14 10:33:32.440,0.01,0.049,1.01
2026/05/14 10:33:32.459,0.004,0.049,1.013
2026/05/14 10:33:32.477,0.006,0.049,1.013
2026/05/14 10:33:32.496,0.005,0.05,1.007
2026/05/14 10:33:32.515,0.006,0.051,1.004
2026/05/14 10:33:32.533,0.007,0.047,1.009
2026/05/14 10:33:32.552,0.009,0.044,1.011
2026/05/14 10:33:32.571,0.011,0.045,1.009
2026/05/14 10:33:32.589,0.008,0.05,1.01
2026/05/14 10:33:32.608,0.012,0.048,1.01
2026/05/14 10:33:32.627,0.007,0.047,1.008
2026/05/14 10:33:32.645,0.008,0.048,1.011
2026/05/14 10:33:32.664,0.002,0.052,1.013
2026/05/14 10:33:32.683,0.008,0.053,1.008
2026/05/14 10:33:32.702,0.006,0.051,1.01
2026/05/14 10:33:32.720,0.006,0.054,1.014
2026/05/14 10:33:32.739,0.005,0.049,1.007
2026/05/14 10:33:32.758,0.011,0.051,1.009
2026/05/14 10:33:32.776,0.004,0.049,1.009
2026/05/14 10:33:32.795,0.011,0.046,1.007
2026/05/14 10:33:32.814,0.011,0.046,1.011
2026/05/14 10:33:32.832,0.007,0.047,1.01
2026/05/14 10:33:32.851,0.011,0.046,1.012
2026/05/14 10:33:32.870,0.01,0.05,1.01
2026/05/14 10:33:32.889,0.005,0.049,1.015
2026/05/14 10:33:32.907,0.007,0.048,1.009
2026/05/14 10:33:32.926,0.011,0.048,1.011
2026/05/14 10:33:32.945,0.009,0.048,1.008
2026/05/14 10:33:32.963,0.006,0.051,1.008
2026/05/14 10:33:32.982,0.004,0.052,1.011
2026/05/14 10:33:33.001,0.006,0.047,1.012
2026/05/14 10:33:33.019,0.01,0.05,1.007
2026/05/14 10:33:33.038,0.01,0.05,1.006
2026/05/14 10:33:33.057,0.01,0.05,1.007
2026/05/14 10:33:33.075,0.013,0.048,1.013
2026/05/14 10:33:33.094,0.012,0.053,1.01
2026/05/14 10:33:33.113,0.008,0.049,1.009
2026/05/14 10:33:33.132,0.008,0.047,1.014
2026/05/14 10:33:33.150,0.008,0.049,1.007
2026/05/14 10:33:33.169,0.007,0.046,1.008
2026/05/14 10:33:33.188,0.009,0.045,1.01
2026/05/14 10:33:33.206,0.009,0.054,1.006
2026/05/14 10:33:33.225,0.004,0.054,1.009
2026/05/14 10:33:33.244,0.004,0.048,1.009
2026/05/14 10:33:33.262,0.008,0.049,1.005
2026/05/14 10:33:33.281,0.008,0.05,1.011
2026/05/14 10:33:33.300,0.007,0.048,1.007
2026/05/14 10:33:33.319,0.009,0.045,1.017
2026/05/14 10:33:33.337,0.008,0.05,1.007
2026/05/14 10:33:33.356,0.005,0.044,1.008
2026/05/14 10:33:33.375,0.008,0.05,1.006
2026/05/14 10:33:33.393,0.009,0.048,1.012
2026/05/14 10:33:33.412,0.007,0.052,1.003
2026/05/14 10:33:33.431,0.005,0.051,1.011
2026/05/14 10:33:33.449,0.008,0.053,1.01
2026/05/14 10:33:33.468,0.006,0.045,1.008
2026/05/14 10:33:33.487,0.009,0.048,1.01
2026/05/14 10:33:33.505,0.009,0.051,1.013
2026/05/14 10:33:33.524,0.005,0.053,1.011
2026/05/14 10:33:33.543,0.006,0.051,1.014
2026/05/14 10:33:33.562,0.007,0.046,1.01
2026/05/14 10:33:33.580,0.01,0.045,1.011
2026/05/14 10:33:33.599,0.008,0.047,1.014
2026/05/14 10:33:33.618,0.007,0.049,1.01
2026/05/14 10:33:33.636,0.008,0.05,1.011
2026/05/14 10:33:33.655,0.01,0.047,1.013
2026/05/14 10:33:33.674,0.009,0.049,1.007
2026/05/14 10:33:33.692,0.005,0.05,1.012
2026/05/14 10:33:33.711,0.004,0.052,1.011
2026/05/14 10:33:33.730,0.007,0.052,1.007
2026/05/14 10:33:33.749,0.009,0.047,1.011
2026/05/14 10:33:33.767,0.009,0.052,1.01
2026/05/14 10:33:33.786,0.007,0.045,1.01
2026/05/14 10:33:33.805,0.008,0.05,1.009
2026/05/14 10:33:33.823,0.009,0.048,1.012
2026/05/14 10:33:33.842,0.009,0.046,1.011
2026/05/14 10:33:33.861,0.014,0.054,1.006
2026/05/14 10:33:33.879,0.01,0.05,1.006
2026/05/14 10:33:33.898,0.011,0.047,1.012
2026/05/14 10:33:33.917,0.006,0.05,1.009
2026/05/14 10:33:33.935,0.004,0.048,1.005
2026/05/14 10:33:33.954,0.006,0.052,1.006
2026/05/14 10:33:33.973,0.005,0.044,1.009
2026/05/14 10:33:33.992,0.004,0.046,1.008
2026/05/14 10:33:34.010,0.006,0.051,1.009
2026/05/14 10:33:34.029,0.009,0.048,1.013
2026/05/14 10:33:34.048,0.006,0.048,1.011
2026/05/14 10:33:34.066,0.008,0.048,1.011
2026/05/14 10:33:34.085,0.007,0.048,1.01
2026/05/14 10:33:34.104,0.004,0.048,1.012
2026/05/14 10:33:34.122,0.009,0.047,1.008
2026/05/14 10:33:34.141,0.011,0.048,1.012
2026/05/14 10:33:34.160,0.012,0.046,1.014
2026/05/14 10:33:34.179,0.008,0.049,1.009
2026/05/14 10:33:34.197,0.012,0.049,1.01
2026/05/14 10:33:34.216,0.006,0.049,1.013
2026/05/14 10:33:34.235,0.005,0.052,1.011
2026/05/14 10:33:34.253,0.004,0.052,1.011
2026/05/14 10:33:34.272,0.008,0.049,1.015
2026/05/14 10:33:34.291,0.008,0.049,1.007
2026/05/14 10:33:34.309,0.01,0.048,1.011
2026/05/14 10:33:34.328,0.008,0.048,1.013
2026/05/14 10:33:34.347,0.009,0.047,1.011
2026/05/14 10:33:34.365,0.007,0.048,1.011
2026/05/14 10:33:34.384,0.009,0.046,1.011
2026/05/14 10:33:34.403,0.007,0.048,1.007
2026/05/14 10:33:34.422,0.006,0.045,1.011
2026/05/14 10:33:34.440,0.01,0.047,1.01
2026/05/14 10:33:34.459,0.007,0.049,1.011
2026/05/14 10:33:34.478,0.004,0.052,1.006
2026/05/14 10:33:34.496,0.004,0.051,1.008
2026/05/14 10:33:34.515,0.008,0.047,1.008
2026/05/14 10:33:34.534,0.005,0.05,1.012
2026/05/14 10:33:34.552,0.009,0.051,1.013
2026/05/14 10:33:34.571,0.011,0.044,1.008
2026/05/14 10:33:34.590,0.012,0.043,1.008
2026/05/14 10:33:34.608,0.009,0.047,1.01
2026/05/14 10:33:34.627,0.012,0.045,1.009
2026/05/14 10:33:34.646,0.007,0.046,1.01
2026/05/14 10:33:34.665,0.01,0.047,1.013
2026/05/14 10:33:34.683,0.007,0.051,1.012
2026/05/14 10:33:34.702,0.007,0.053,1.007
2026/05/14 10:33:34.721,0.005,0.052,1.011
2026/05/14 10:33:34.739,0.006,0.053,1.012
2026/05/14 10:33:34.758,0.01,0.049,1.011
2026/05/14 10:33:34.777,0.003,0.052,1.014
2026/05/14 10:33:34.795,0.006,0.047,1.013
2026/05/14 10:33:34.814,0.01,0.052,1.009
2026/05/14 10:33:34.833,0.014,0.047,1.013
2026/05/14 10:33:34.852,0.007,0.05,1.016
2026/05/14 10:33:34.870,0.012,0.046,1.014
2026/05/14 10:33:34.889,0.012,0.048,1.014
2026/05/14 10:33:34.908,0.011,0.046,1.012
2026/05/14 10:33:34.926,0.009,0.051,1.007
2026/05/14 10:33:34.945,0.004,0.048,1.012
2026/05/14 10:33:34.964,0.001,0.05,1.012
2026/05/14 10:33:34.982,0.004,0.05,1.008
2026/05/14 10:33:35.001,0.007,0.05,1.014
2026/05/14 10:33:35.020,0.005,0.047,1.012
2026/05/14 10:33:35.038,0.011,0.049,1.014
2026/05/14 10:33:35.057,0.01,0.054,1.011
2026/05/14 10:33:35.076,0.006,0.048,1.013
2026/05/14 10:33:35.095,0.011,0.044,1.01
2026/05/14 10:33:35.113,0.01,0.048,1.012
2026/05/14 10:33:35.132,0.008,0.048,1.005
2026/05/14 10:33:35.151,0.009,0.049,1.009
2026/05/14 10:33:35.169,0.007,0.052,1.014
2026/05/14 10:33:35.188,0.009,0.053,1.01
2026/05/14 10:33:35.207,0.003,0.049,1.007
2026/05/14 10:33:35.225,0.009,0.054,1.008
2026/05/14 10:33:35.244,0.007,0.053,1.011
2026/05/14 10:33:35.263,0.005,0.051,1.012
2026/05/14 10:33:35.282,0.008,0.05,1.01
2026/05/14 10:33:35.300,0.006,0.05,1.012
2026/05/14 10:33:35.319,0.01,0.049,1.01
2026/05/14 10:33:35.338,0.011,0.049,1.007
2026/05/14 10:33:35.356,0.01,0.048,1.01
2026/05/14 10:33:35.375,0.009,0.046,1.012
2026/05/14 10:33:35.394,0.008,0.049,1.007
2026/05/14 10:33:35.412,0.008,0.047,1.013
2026/05/14 10:33:35.431,0.007,0.049,1.009
2026/05/14 10:33:35.450,0.007,0.049,1.008
2026/05/14 10:33:35.468,0.008,0.052,1.013
2026/05/14 10:33:35.487,0.009,0.049,1.013
2026/05/14 10:33:35.506,0.007,0.049,1.007
2026/05/14 10:33:35.525,0.008,0.052,1.011
2026/05/14 10:33:35.543,0.004,0.048,1.012
2026/05/14 10:33:35.562,0.01,0.051,1.009
2026/05/14 10:33:35.581,0.009,0.045,1.01
2026/05/14 10:33:35.599,0.004,0.044,1.01
2026/05/14 10:33:35.618,0.01,0.049,1.012
2026/05/14 10:33:35.637,0.006,0.047,1.012
2026/05/14 10:33:35.655,0.007,0.047,1.015
2026/05/14 10:33:35.674,0.008,0.051,1.014
2026/05/14 10:33:35.693,0.006,0.048,1.008
2026/05/14 10:33:35.712,0.007,0.048,1.01
2026/05/14 10:33:35.730,0.006,0.052,1.012
2026/05/14 10:33:35.749,0.005,0.052,1.007
2026/05/14 10:33:35.768,0.006,0.048,1.014
2026/05/14 10:33:35.786,0.009,0.047,1.01
2026/05/14 10:33:35.805,0.009,0.048,1.009
2026/05/14 10:33:35.824,0.011,0.048,1.012
2026/05/14 10:33:35.842,0.008,0.047,1.008
2026/05/14 10:33:35.861,0.008,0.046,1.009
2026/05/14 10:33:35.880,0.009,0.048,1.009
2026/05/14 10:33:35.898,0.007,0.047,1.007
2026/05/14 10:33:35.917,0.009,0.046,1.017
2026/05/14 10:33:35.936,0.01,0.051,1.008
2026/05/14 10:33:35.955,0.003,0.05,1.007
2026/05/14 10:33:35.973,0.006,0.047,1.008
2026/05/14 10:33:35.992,0.005,0.046,1.014
2026/05/14 10:33:36.011,0.007,0.05,1.009
2026/05/14 10:33:36.029,0.006,0.048,1.009
2026/05/14 10:33:36.048,0.009,0.048,1.006
2026/05/14 10:33:36.067,0.009,0.052,1.014
2026/05/14 10:33:36.085,0.011,0.052,1.003
2026/05/14 10:33:36.104,0.011,0.048,1.008
2026/05/14 10:33:36.123,0.009,0.049,1.008
2026/05/14 10:33:36.142,0.006,0.049,1.014
2026/05/14 10:33:36.160,0.007,0.049,1.013
2026/05/14 10:33:36.179,0.006,0.047,1.015
2026/05/14 10:33:36.198,0.006,0.049,1.006
2026/05/14 10:33:36.216,0.003,0.047,1.01
2026/05/14 10:33:36.235,0.008,0.046,1.012
2026/05/14 10:33:36.254,0.006,0.048,1.009
2026/05/14 10:33:36.272,0.006,0.052,1.014
2026/05/14 10:33:36.291,0.009,0.052,1.008
2026/05/14 10:33:36.310,0.012,0.05,1.006
2026/05/14 10:33:36.328,0.008,0.048,1.009
2026/05/14 10:33:36.347,0.009,0.05,1.01
2026/05/14 10:33:36.366,0.007,0.048,1.013
2026/05/14 10:33:36.385,0.014,0.047,1.012
2026/05/14 10:33:36.403,0.007,0.048,1.013
2026/05/14 10:33:36.422,0.008,0.051,1.01
2026/05/14 10:33:36.441,0.006,0.047,1.01
2026/05/14 10:33:36.459,0.006,0.051,1.012
2026/05/14 10:33:36.478,0.009,0.051,1.007
2026/05/14 10:33:36.497,0.008,0.051,1.011
2026/05/14 10:33:36.515,0.008,0.048,1.013
2026/05/14 10:33:36.534,0.01,0.049,1.012
2026/05/14 10:33:36.553,0.009,0.048,1.008
2026/05/14 10:33:36.571,0.006,0.044,1.013
2026/05/14 10:33:36.590,0.008,0.049,1.009
2026/05/14 10:33:36.609,0.007,0.046,1.008
2026/05/14 10:33:36.628,0.007,0.048,1.014
2026/05/14 10:33:36.646,0.008,0.048,1.012
2026/05/14 10:33:36.665,0.008,0.047,1.013
2026/05/14 10:33:36.684,0.005,0.049,1.008
2026/05/14 10:33:36.702,0.007,0.051,1.014
2026/05/14 10:33:36.721,0.046,0.057,0.964
2026/05/14 10:33:36.740,0.042,0.03,1.016
2026/05/14 10:33:36.758,0.008,0.044,0.958
2026/05/14 10:33:36.777,0.009,0.062,1.008
2026/05/14 10:33:36.796,0.013,0.061,1.031
2026/05/14 10:33:36.815,0.004,0.049,0.978
2026/05/14 10:33:36.833,0.012,0.056,0.975
2026/05/14 10:33:36.852,0.013,0.058,0.999
2026/05/14 10:33:36.871,0.007,0.042,1.041
2026/05/14 10:33:36.889,0.003,0.029,1.029
2026/05/14 10:33:36.908,-0.003,0.049,0.998
2026/05/14 10:33:36.927,0.012,0.052,1.011
2026/05/14 10:33:36.945,0.017,0.05,1.039
2026/05/14 10:33:36.964,0.007,0.05,1.024
2026/05/14 10:33:36.983,0.007,0.058,1.003
2026/05/14 10:33:37.002,0.01,0.055,1.003
2026/05/14 10:33:37.020,0.006,0.045,1.015
2026/05/14 10:33:37.039,0.004,0.044,1.006
2026/05/14 10:33:37.058,0.008,0.044,1.014
2026/05/14 10:33:37.076,0.008,0.05,1.01
2026/05/14 10:33:37.095,0.005,0.048,1.001
2026/05/14 10:33:37.114,0.011,0.053,1.002
2026/05/14 10:33:37.132,0.008,0.05,1.009
2026/05/14 10:33:37.151,0.01,0.05,1.017
2026/05/14 10:33:37.170,0.008,0.044,1.016
2026/05/14 10:33:37.188,0.004,0.044,1.01
2026/05/14 10:33:37.207,0.008,0.053,1.004
2026/05/14 10:33:37.226,0.005,0.049,1.014
2026/05/14 10:33:37.245,0.009,0.051,1.018
2026/05/14 10:33:37.263,0.009,0.051,1.017
2026/05/14 10:33:37.282,0.015,0.05,1.008
2026/05/14 10:33:37.301,0.006,0.054,1.007
2026/05/14 10:33:37.319,0.008,0.048,1.01
2026/05/14 10:33:37.338,0.008,0.05,1.013
2026/05/14 10:33:37.357,0.005,0.049,1.012
2026/05/14 10:33:37.375,0.009,0.047,1.011
2026/05/14 10:33:37.394,0.008,0.05,1.009
2026/05/14 10:33:37.413,0.009,0.05,1.008
2026/05/14 10:33:37.432,0.006,0.052,1.007
2026/05/14 10:33:37.450,0.007,0.05,1.015
2026/05/14 10:33:37.469,0.008,0.05,1.011
2026/05/14 10:33:37.488,0.007,0.05,1.006
2026/05/14 10:33:37.506,0.009,0.047,1.009
2026/05/14 10:33:37.525,0.009,0.049,1.011
2026/05/14 10:33:37.544,0.007,0.048,1.008
2026/05/14 10:33:37.562,0.009,0.046,1.014
2026/05/14 10:33:37.581,0.007,0.053,1.007
2026/05/14 10:33:37.600,0.008,0.051,1.01
2026/05/14 10:33:37.619,0.006,0.049,1.006
2026/05/14 10:33:37.637,0.004,0.05,1.013
2026/05/14 10:33:37.656,0.005,0.05,1.009
2026/05/14 10:33:37.675,0.005,0.045,1.011
2026/05/14 10:33:37.693,0.002,0.042,1.009
2026/05/14 10:33:37.712,0.007,0.043,1.014
2026/05/14 10:33:37.731,0.011,0.043,1.01
2026/05/14 10:33:37.749,0.009,0.044,1.01
2026/05/14 10:33:37.768,0.009,0.051,1.007
2026/05/14 10:33:37.787,0.01,0.051,1.011
2026/05/14 10:33:37.805,0.003,0.058,1.01
2026/05/14 10:33:37.824,-0.001,0.062,1.008
2026/05/14 10:33:37.843,-0.003,0.06,1.013
2026/05/14 10:33:37.862,-0.003,0.054,1.012
2026/05/14 10:33:37.880,0.004,0.052,1.011
2026/05/14 10:33:37.899,0.008,0.049,1.017
2026/05/14 10:33:37.918,0.011,0.041,1.014
2026/05/14 10:33:37.936,0.021,0.039,1.011
2026/05/14 10:33:37.955,0.016,0.041,1.015
2026/05/14 10:33:37.974,0.017,0.043,1.009
2026/05/14 10:33:37.992,0.02,0.049,1.01
2026/05/14 10:33:38.011,0.011,0.048,1.014
2026/05/14 10:33:38.030,0.007,0.054,1.008
2026/05/14 10:33:38.049,0.001,0.053,1.012
2026/05/14 10:33:38.067,-0.003,0.054,1.012
2026/05/14 10:33:38.086,-0.002,0.054,1.014
2026/05/14 10:33:38.105,0.001,0.056,1.01
2026/05/14 10:33:38.123,0.003,0.052,1.01
2026/05/14 10:33:38.142,0.011,0.052,1.004
2026/05/14 10:33:38.161,0.01,0.047,1.011
2026/05/14 10:33:38.179,0.013,0.042,1.009
2026/05/14 10:33:38.198,0.019,0.041,1.006
2026/05/14 10:33:38.217,0.02,0.043,1.007
2026/05/14 10:33:38.236,0.014,0.041,1.014
2026/05/14 10:33:38.254,0.014,0.048,1.009
2026/05/14 10:33:38.273,0.005,0.049,1.004
2026/05/14 10:33:38.292,-0.001,0.053,1.014
2026/05/14 10:33:38.310,-0.002,0.055,1.009
2026/05/14 10:33:38.329,-0.003,0.058,1.008
2026/05/14 10:33:38.348,-0.007,0.056,1.009
2026/05/14 10:33:38.366,0.002,0.057,1.011
2026/05/14 10:33:38.385,0.006,0.051,1.011
2026/05/14 10:33:38.404,0.009,0.048,1.015
2026/05/14 10:33:38.422,0.016,0.044,1.01
2026/05/14 10:33:38.441,0.013,0.041,1.01
2026/05/14 10:33:38.460,0.022,0.04,1.006
2026/05/14 10:33:38.479,0.016,0.044,1.012
2026/05/14 10:33:38.497,0.013,0.046,1.01
2026/05/14 10:33:38.516,0.008,0.045,1.005
2026/05/14 10:33:38.535,0.007,0.053,1.009
2026/05/14 10:33:38.553,0.004,0.055,1.01
2026/05/14 10:33:38.572,-0.009,0.059,1.01
2026/05/14 10:33:38.591,-0.004,0.058,1.008
2026/05/14 10:33:38.609,-0.001,0.055,1.007
2026/05/14 10:33:38.628,0.006,0.051,1.009
2026/05/14 10:33:38.647,0.004,0.049,1.013
2026/05/14 10:33:38.666,0.009,0.045,1.01
2026/05/14 10:33:38.684,0.011,0.046,1.013
2026/05/14 10:33:38.703,0.011,0.043,1.012
2026/05/14 10:33:38.722,0.009,0.041,1.008
2026/05/14 10:33:38.740,0.014,0.042,1.009
2026/05/14 10:33:38.759,0.01,0.047,1.014
2026/05/14 10:33:38.778,0.012,0.048,1.015
2026/05/14 10:33:38.796,0.008,0.049,1.015
2026/05/14 10:33:38.815,0.006,0.048,1.011
2026/05/14 10:33:38.834,0.003,0.047,1.009
2026/05/14 10:33:38.853,0.003,0.055,1.014
2026/05/14 10:33:38.871,0.001,0.05,1.01
2026/05/14 10:33:38.890,0.005,0.054,1.011
2026/05/14 10:33:38.909,0.003,0.05,1.012
2026/05/14 10:33:38.927,0.01,0.045,1.011
2026/05/14 10:33:38.946,0.01,0.045,1.011
2026/05/14 10:33:38.965,0.012,0.046,1.013
2026/05/14 10:33:38.983,0.011,0.046,1.01
2026/05/14 10:33:39.002,0.009,0.044,1.013
2026/05/14 10:33:39.021,0.01,0.049,1.013
2026/05/14 10:33:39.039,0.004,0.052,1.007
2026/05/14 10:33:39.058,0.01,0.054,1.011
2026/05/14 10:33:39.077,0.005,0.055,1.009
2026/05/14 10:33:39.096,0.005,0.055,1.016
2026/05/14 10:33:39.114,0.0,0.051,1.008
2026/05/14 10:33:39.133,0.006,0.049,1.005
2026/05/14 10:33:39.152,0.006,0.052,1.009
2026/05/14 10:33:39.170,0.008,0.045,1.01
2026/05/14 10:33:39.189,0.01,0.047,1.014
2026/05/14 10:33:39.208,0.009,0.046,1.012
2026/05/14 10:33:39.226,0.016,0.053,1.014
2026/05/14 10:33:39.245,0.011,0.047,1.011
2026/05/14 10:33:39.264,0.01,0.049,1.011
2026/05/14 10:33:39.282,0.009,0.05,1.011
2026/05/14 10:33:39.301,0.005,0.049,1.015
2026/05/14 10:33:39.320,0.009,0.05,1.008
2026/05/14 10:33:39.339,0.005,0.051,1.01
2026/05/14 10:33:39.357,0.008,0.05,1.012
2026/05/14 10:33:39.376,0.005,0.048,1.01
2026/05/14 10:33:39.395,0.004,0.046,1.01
2026/05/14 10:33:39.413,0.008,0.048,1.007
2026/05/14 10:33:39.432,0.011,0.052,1.013
2026/05/14 10:33:39.451,0.011,0.046,1.009
2026/05/14 10:33:39.469,0.009,0.045,1.016
2026/05/14 10:33:39.488,0.01,0.051,1.007
2026/05/14 10:33:39.507,0.009,0.045,1.014
2026/05/14 10:33:39.526,0.007,0.047,1.009
2026/05/14 10:33:39.544,0.005,0.05,1.011
2026/05/14 10:33:39.563,0.003,0.05,1.011
2026/05/14 10:33:39.582,0.004,0.053,1.011
2026/05/14 10:33:39.600,0.007,0.05,1.014
2026/05/14 10:33:39.619,0.004,0.052,1.011
2026/05/14 10:33:39.638,0.005,0.051,1.008
2026/05/14 10:33:39.656,0.006,0.05,1.011
2026/05/14 10:33:39.675,0.011,0.048,1.007
2026/05/14 10:33:39.694,0.017,0.047,1.014
2026/05/14 10:33:39.712,0.009,0.046,1.011
2026/05/14 10:33:39.731,0.01,0.048,1.011
2026/05/14 10:33:39.750,0.01,0.048,1.006
2026/05/14 10:33:39.769,0.006,0.051,1.014
2026/05/14 10:33:39.787,0.008,0.049,1.011
2026/05/14 10:33:39.806,0.005,0.051,1.01
2026/05/14 10:33:39.825,0.007,0.053,1.018
2026/05/14 10:33:39.843,0.006,0.051,1.007
2026/05/14 10:33:39.862,0.002,0.05,1.006
2026/05/14 10:33:39.881,0.006,0.047,1.012
2026/05/14 10:33:39.899,0.005,0.047,1.016
2026/05/14 10:33:39.918,0.01,0.048,1.007
2026/05/14 10:33:39.937,0.008,0.045,1.014
2026/05/14 10:33:39.956,0.01,0.045,1.01
2026/05/14 10:33:39.974,0.009,0.052,1.008
2026/05/14 10:33:39.993,0.012,0.051,1.012
2026/05/14 10:33:40.012,0.007,0.05,1.009
2026/05/14 10:33:40.030,0.01,0.051,1.011
2026/05/14 10:33:40.049,0.007,0.049,1.013
2026/05/14 10:33:40.068,-0.001,0.048,1.011
2026/05/14 10:33:40.086,0.003,0.049,1.01
2026/05/14 10:33:40.105,0.008,0.051,1.015
2026/05/14 10:33:40.124,0.007,0.05,1.007
2026/05/14 10:33:40.142,0.009,0.051,1.007
2026/05/14 10:33:40.161,0.005,0.047,1.01
2026/05/14 10:33:40.180,0.008,0.048,1.012
2026/05/14 10:33:40.199,0.011,0.048,1.007
2026/05/14 10:33:40.217,0.007,0.051,1.012
2026/05/14 10:33:40.236,0.009,0.047,1.004
2026/05/14 10:33:40.255,0.006,0.048,1.007
2026/05/14 10:33:40.273,0.012,0.052,1.012
2026/05/14 10:33:40.292,0.005,0.047,1.01
2026/05/14 10:33:40.311,0.005,0.054,1.01
2026/05/14 10:33:40.329,0.006,0.051,1.01
2026/05/14 10:33:40.348,0.008,0.05,1.012
2026/05/14 10:33:40.367,0.007,0.047,1.012
2026/05/14 10:33:40.386,0.01,0.049,1.01
2026/05/14 10:33:40.404,0.009,0.05,1.007
2026/05/14 10:33:40.423,0.008,0.048,1.013
2026/05/14 10:33:40.442,0.01,0.047,1.01
2026/05/14 10:33:40.460,0.011,0.046,1.015
2026/05/14 10:33:40.479,0.005,0.049,1.008
2026/05/14 10:33:40.498,0.007,0.049,1.01
2026/05/14 10:33:40.516,0.009,0.052,1.011
2026/05/14 10:33:40.535,0.006,0.046,1.009
2026/05/14 10:33:40.554,0.008,0.049,1.011
2026/05/14 10:33:40.572,0.008,0.05,1.009
2026/05/14 10:33:40.591,0.003,0.049,1.012
2026/05/14 10:33:40.610,0.004,0.051,1.012
2026/05/14 10:33:40.629,0.008,0.05,1.015
2026/05/14 10:33:40.647,0.009,0.05,1.014
2026/05/14 10:33:40.666,0.009,0.046,1.016
2026/05/14 10:33:40.685,0.009,0.047,1.012
2026/05/14 10:33:40.703,0.007,0.05,1.009
2026/05/14 10:33:40.722,0.009,0.046,1.008
2026/05/14 10:33:40.741,0.01,0.048,1.007
2026/05/14 10:33:40.759,0.009,0.05,1.01
2026/05/14 10:33:40.778,0.004,0.049,1.013
2026/05/14 10:33:40.797,0.003,0.047,1.006
2026/05/14 10:33:40.816,0.008,0.05,1.012
2026/05/14 10:33:40.834,0.009,0.05,1.008
2026/05/14 10:33:40.853,0.007,0.05,1.009
2026/05/14 10:33:40.872,0.006,0.05,1.011
2026/05/14 10:33:40.890,0.008,0.046,1.01
2026/05/14 10:33:40.909,0.009,0.049,1.008
2026/05/14 10:33:40.928,0.009,0.05,1.009
2026/05/14 10:33:40.946,0.007,0.049,1.013
2026/05/14 10:33:40.965,0.01,0.05,1.007
2026/05/14 10:33:40.984,0.006,0.046,1.014
2026/05/14 10:33:41.002,0.005,0.049,1.011
2026/05/14 10:33:41.021,0.008,0.053,1.01
2026/05/14 10:33:41.040,0.002,0.049,1.008
2026/05/14 10:33:41.059,0.008,0.051,1.011
2026/05/14 10:33:41.077,0.009,0.05,1.006
2026/05/14 10:33:41.096,0.007,0.053,1.009
2026/05/14 10:33:41.115,0.007,0.052,1.012
2026/05/14 10:33:41.133,0.003,0.051,1.01
2026/05/14 10:33:41.152,0.009,0.049,1.012
2026/05/14 10:33:41.171,0.008,0.047,1.01
2026/05/14 10:33:41.189,0.01,0.049,1.009
2026/05/14 10:33:41.208,0.009,0.049,1.013
2026/05/14 10:33:41.227,0.01,0.049,1.014
2026/05/14 10:33:41.246,0.008,0.051,1.01
2026/05/14 10:33:41.264,0.009,0.05,1.012
2026/05/14 10:33:41.283,0.006,0.051,1.009
2026/05/14 10:33:41.302,0.01,0.046,1.008
2026/05/14 10:33:41.320,0.009,0.048,1.009
2026/05/14 10:33:41.339,0.008,0.046,1.018
2026/05/14 10:33:41.358,0.01,0.049,1.014
2026/05/14 10:33:41.376,0.005,0.053,1.011
2026/05/14 10:33:41.395,0.009,0.051,1.01
2026/05/14 10:33:41.414,0.008,0.046,1.006
2026/05/14 10:33:41.432,0.008,0.046,1.01
2026/05/14 10:33:41.451,0.007,0.048,1.012
2026/05/14 10:33:41.470,0.008,0.048,1.01
2026/05/14 10:33:41.489,0.007,0.049,1.01
2026/05/14 10:33:41.507,0.005,0.047,1.012
2026/05/14 10:33:41.526,0.009,0.045,1.013
2026/05/14 10:33:41.545,0.007,0.05,1.009
2026/05/14 10:33:41.563,0.009,0.052,1.011
2026/05/14 10:33:41.582,0.002,0.049,1.012
2026/05/14 10:33:41.601,0.006,0.05,1.013
2026/05/14 10:33:41.619,0.007,0.051,1.009
2026/05/14 10:33:41.638,0.009,0.053,1.005
2026/05/14 10:33:41.657,0.008,0.048,1.011
2026/05/14 10:33:41.676,0.007,0.046,1.014
2026/05/14 10:33:41.694,0.008,0.051,1.01
2026/05/14 10:33:41.713,0.009,0.049,1.011
2026/05/14 10:33:41.732,0.008,0.048,1.015
2026/05/14 10:33:41.750,0.008,0.045,1.013
2026/05/14 10:33:41.769,0.011,0.054,1.008
2026/05/14 10:33:41.788,0.011,0.049,1.009
2026/05/14 10:33:41.806,0.009,0.052,1.014
2026/05/14 10:33:41.825,0.004,0.049,1.009
2026/05/14 10:33:41.844,0.008,0.044,1.012
2026/05/14 10:33:41.862,0.009,0.046,1.008
2026/05/14 10:33:41.881,0.008,0.047,1.01
2026/05/14 10:33:41.900,0.008,0.05,1.01
2026/05/14 10:33:41.919,0.005,0.051,1.014
2026/05/14 10:33:41.937,0.005,0.046,1.009
2026/05/14 10:33:41.956,0.008,0.05,1.003
2026/05/14 10:33:41.975,0.008,0.049,1.013
2026/05/14 10:33:41.993,0.007,0.052,1.01
2026/05/14 10:33:42.012,0.009,0.049,1.012
2026/05/14 10:33:42.031,0.008,0.052,1.009
2026/05/14 10:33:42.049,0.006,0.047,1.011
2026/05/14 10:33:42.068,0.009,0.051,1.009
2026/05/14 10:33:42.087,0.005,0.047,1.012
2026/05/14 10:33:42.106,0.005,0.046,1.008
2026/05/14 10:33:42.124,0.005,0.049,1.012
2026/05/14 10:33:42.143,0.008,0.054,1.011
2026/05/14 10:33:42.162,0.009,0.051,1.013
2026/05/14 10:33:42.180,0.008,0.049,1.01
2026/05/14 10:33:42.199,0.008,0.047,1.009
2026/05/14 10:33:42.218,0.008,0.047,1.008
2026/05/14 10:33:42.236,0.009,0.047,1.009
2026/05/14 10:33:42.255,0.004,0.05,1.008
2026/05/14 10:33:42.274,0.009,0.047,1.015
2026/05/14 10:33:42.292,0.005,0.052,1.009
2026/05/14 10:33:42.311,0.007,0.046,1.009
2026/05/14 10:33:42.330,0.006,0.05,1.014
2026/05/14 10:33:42.349,0.008,0.049,1.01
2026/05/14 10:33:42.367,0.004,0.052,1.01
2026/05/14 10:33:42.386,0.009,0.05,1.01
2026/05/14 10:33:42.405,0.006,0.052,1.011
2026/05/14 10:33:42.423,0.009,0.049,1.008
2026/05/14 10:33:42.442,0.005,0.044,1.013
2026/05/14 10:33:42.461,0.006,0.051,1.011
2026/05/14 10:33:42.479,0.009,0.049,1.011
2026/05/14 10:33:42.498,0.005,0.048,1.008
2026/05/14 10:33:42.517,0.008,0.053,1.008
2026/05/14 10:33:42.536,0.008,0.056,1.008
2026/05/14 10:33:42.554,0.005,0.051,1.01
2026/05/14 10:33:42.573,0.008,0.048,1.011
2026/05/14 10:33:42.592,0.005,0.051,1.01
2026/05/14 10:33:42.610,0.008,0.053,1.014
2026/05/14 10:33:42.629,0.008,0.049,1.013
2026/05/14 10:33:42.648,0.01,0.048,1.006
2026/05/14 10:33:42.666,0.007,0.053,1.013
2026/05/14 10:33:42.685,0.009,0.048,1.01
2026/05/14 10:33:42.704,0.007,0.049,1.01
2026/05/14 10:33:42.722,0.009,0.051,1.008
2026/05/14 10:33:42.741,0.004,0.047,1.009
2026/05/14 10:33:42.760,0.006,0.05,1.006
2026/05/14 10:33:42.779,0.005,0.047,1.009
2026/05/14 10:33:42.797,0.005,0.043,1.008
2026/05/14 10:33:42.816,0.01,0.051,1.01
2026/05/14 10:33:42.835,0.008,0.052,1.007
2026/05/14 10:33:42.853,0.007,0.049,1.009
2026/05/14 10:33:42.872,0.007,0.052,1.011
2026/05/14 10:33:42.891,0.008,0.045,1.013
2026/05/14 10:33:42.909,0.007,0.049,1.011
2026/05/14 10:33:42.928,0.007,0.05,1.009
2026/05/14 10:33:42.947,0.01,0.047,1.009
2026/05/14 10:33:42.966,0.008,0.053,1.01
2026/05/14 10:33:42.984,0.004,0.049,1.013
2026/05/14 10:33:43.003,0.007,0.045,1.008
2026/05/14 10:33:43.022,0.009,0.044,1.009
2026/05/14 10:33:43.040,0.008,0.05,1.011
2026/05/14 10:33:43.059,0.005,0.05,1.01
2026/05/14 10:33:43.078,0.004,0.05,1.009
2026/05/14 10:33:43.096,0.006,0.049,1.008
2026/05/14 10:33:43.115,0.006,0.048,1.009
2026/05/14 10:33:43.134,0.007,0.049,1.013
2026/05/14 10:33:43.152,0.009,0.049,1.01
2026/05/14 10:33:43.171,0.005,0.047,1.009
2026/05/14 10:33:43.190,0.008,0.049,1.007
2026/05/14 10:33:43.209,0.008,0.05,1.007
2026/05/14 10:33:43.227,0.011,0.047,1.013
2026/05/14 10:33:43.246,0.009,0.051,1.011
2026/05/14 10:33:43.265,0.004,0.052,1.01
2026/05/14 10:33:43.283,0.01,0.049,1.01
2026/05/14 10:33:43.302,0.009,0.048,1.01
2026/05/14 10:33:43.321,0.007,0.05,1.01
2026/05/14 10:33:43.339,0.01,0.048,1.007
2026/05/14 10:33:43.358,0.009,0.049,1.01
2026/05/14 10:33:43.377,0.005,0.05,1.013
2026/05/14 10:33:43.396,0.008,0.048,1.011
2026/05/14 10:33:43.414,0.011,0.046,1.011
2026/05/14 10:33:43.433,0.01,0.048,1.009
2026/05/14 10:33:43.452,0.009,0.051,1.009
2026/05/14 10:33:43.470,0.008,0.05,1.014
2026/05/14 10:33:43.489,0.009,0.05,1.013
2026/05/14 10:33:43.508,0.008,0.046,1.013
2026/05/14 10:33:43.526,0.007,0.051,1.011
2026/05/14 10:33:43.545,0.004,0.049,1.011
2026/05/14 10:33:43.564,0.009,0.044,1.011
2026/05/14 10:33:43.582,0.011,0.049,1.012
2026/05/14 10:33:43.601,0.008,0.048,1.008
2026/05/14 10:33:43.620,0.007,0.05,1.009
2026/05/14 10:33:43.639,0.006,0.046,1.009
2026/05/14 10:33:43.657,0.007,0.051,1.012
2026/05/14 10:33:43.676,0.008,0.053,1.008
2026/05/14 10:33:43.695,0.006,0.048,1.009
2026/05/14 10:33:43.713,0.007,0.052,1.009
2026/05/14 10:33:43.732,0.006,0.046,1.013
2026/05/14 10:33:43.751,0.008,0.046,1.013
2026/05/14 10:33:43.769,0.004,0.053,1.008
2026/05/14 10:33:43.788,0.006,0.049,1.013
2026/05/14 10:33:43.807,0.003,0.05,1.008
2026/05/14 10:33:43.826,0.007,0.045,1.01
2026/05/14 10:33:43.844,0.006,0.048,1.011
2026/05/14 10:33:43.863,0.009,0.05,1.01
2026/05/14 10:33:43.882,0.01,0.051,1.007
2026/05/14 10:33:43.900,0.006,0.05,1.01
2026/05/14 10:33:43.919,0.008,0.048,1.011
2026/05/14 10:33:43.938,0.007,0.049,1.013
2026/05/14 10:33:43.956,0.008,0.05,1.01
2026/05/14 10:33:43.975,0.007,0.046,1.011
2026/05/14 10:33:43.994,0.009,0.049,1.013
2026/05/14 10:33:44.013,0.009,0.05,1.012
2026/05/14 10:33:44.031,0.007,0.049,1.013
2026/05/14 10:33:44.050,0.005,0.044,1.014
2026/05/14 10:33:44.069,0.005,0.05,1.011
2026/05/14 10:33:44.087,0.006,0.049,1.012
2026/05/14 10:33:44.106,0.009,0.05,1.009
2026/05/14 10:33:44.125,0.003,0.05,1.014
2026/05/14 10:33:44.143,0.008,0.049,1.008
2026/05/14 10:33:44.162,0.008,0.052,1.009
2026/05/14 10:33:44.181,0.005,0.051,1.011
2026/05/14 10:33:44.199,0.007,0.051,1.011
2026/05/14 10:33:44.218,0.005,0.048,1.006
2026/05/14 10:33:44.237,0.007,0.048,1.009
2026/05/14 10:33:44.256,0.009,0.055,1.009
2026/05/14 10:33:44.274,0.012,0.049,1.008
2026/05/14 10:33:44.293,0.005,0.045,1.014
2026/05/14 10:33:44.312,0.008,0.052,1.01
2026/05/14 10:33:44.330,0.016,0.048,1.006
2026/05/14 10:33:44.349,0.009,0.046,1.01
2026/05/14 10:33:44.368,0.005,0.048,1.01
2026/05/14 10:33:44.386,0.01,0.051,1.012
2026/05/14 10:33:44.405,0.01,0.05,1.011
2026/05/14 10:33:44.424,0.007,0.051,1.009
2026/05/14 10:33:44.443,0.005,0.047,1.012
2026/05/14 10:33:44.461,0.006,0.049,1.014
2026/05/14 10:33:44.480,0.007,0.052,1.008
2026/05/14 10:33:44.499,0.012,0.049,1.014
2026/05/14 10:33:44.517,0.007,0.05,1.009
2026/05/14 10:33:44.536,0.004,0.046,1.011
2026/05/14 10:33:44.555,0.008,0.05,1.009
2026/05/14 10:33:44.573,0.005,0.051,1.013
2026/05/14 10:33:44.592,0.006,0.047,1.006
2026/05/14 10:33:44.611,0.007,0.053,1.007
2026/05/14 10:33:44.629,0.009,0.05,1.012
2026/05/14 10:33:44.648,0.008,0.051,1.009
2026/05/14 10:33:44.667,0.006,0.049,1.009
2026/05/14 10:33:44.686,0.007,0.051,1.014
2026/05/14 10:33:44.704,0.008,0.05,1.01
2026/05/14 10:33:44.723,0.008,0.048,1.011
2026/05/14 10:33:44.742,0.01,0.049,1.011
2026/05/14 10:33:44.760,0.01,0.049,1.015
2026/05/14 10:33:44.779,0.008,0.051,1.008
2026/05/14 10:33:44.798,0.01,0.051,1.011
2026/05/14 10:33:44.816,0.008,0.05,1.011
2026/05/14 10:33:44.835,0.007,0.049,1.008
2026/05/14 10:33:44.854,0.009,0.049,1.013
2026/05/14 10:33:44.873,0.004,0.049,1.017
2026/05/14 10:33:44.891,0.006,0.052,1.014
2026/05/14 10:33:44.910,0.009,0.05,1.009
2026/05/14 10:33:44.929,0.012,0.049,1.015
2026/05/14 10:33:44.947,0.009,0.052,1.012
2026/05/14 10:33:44.966,0.011,0.05,1.012
2026/05/14 10:33:44.985,0.008,0.048,1.01
2026/05/14 10:33:45.003,0.007,0.049,1.005
2026/05/14 10:33:45.022,0.006,0.045,1.012
2026/05/14 10:33:45.041,0.01,0.049,1.009
2026/05/14 10:33:45.059,0.009,0.054,1.009
2026/05/14 10:33:45.078,0.007,0.049,1.007
2026/05/14 10:33:45.097,0.008,0.051,1.012
2026/05/14 10:33:45.116,0.007,0.053,1.012
2026/05/14 10:33:45.134,0.007,0.047,1.01
2026/05/14 10:33:45.153,0.009,0.046,1.007
2026/05/14 10:33:45.172,0.009,0.047,1.013
2026/05/14 10:33:45.190,0.009,0.05,1.012
2026/05/14 10:33:45.209,0.008,0.048,1.01
2026/05/14 10:33:45.228,0.006,0.054,1.008
2026/05/14 10:33:45.246,0.009,0.051,1.009
2026/05/14 10:33:45.265,0.009,0.052,1.01
2026/05/14 10:33:45.284,0.007,0.047,1.014
2026/05/14 10:33:45.303,0.007,0.047,1.013
2026/05/14 10:33:45.321,0.013,0.048,1.008
2026/05/14 10:33:45.340,0.007,0.051,1.012
2026/05/14 10:33:45.359,0.006,0.05,1.009
2026/05/14 10:33:45.377,0.007,0.045,1.01
2026/05/14 10:33:45.396,0.006,0.05,1.009
2026/05/14 10:33:45.415,0.005,0.052,1.008
2026/05/14 10:33:45.433,0.008,0.05,1.012
2026/05/14 10:33:45.452,0.007,0.053,1.014
