Timestamp,ACC X,ACC Y,ACC Z
2026/05/14 10:31:43.125,-0.054,0.088,1.003
2026/05/14 10:31:43.144,-0.056,0.083,0.999
2026/05/14 10:31:43.164,-0.053,0.086,1.007
2026/05/14 10:31:43.183,-0.055,0.083,1.003
2026/05/14 10:31:43.202,-0.052,0.082,1.005
2026/05/14 10:31:43.221,-0.052,0.082,1.005
2026/05/14 10:31:43.241,-0.054,0.082,1.005
2026/05/14 10:31:43.260,-0.052,0.083,1.003
2026/05/14 10:31:43.279,-0.052,0.084,1.007
2026/05/14 10:31:43.298,-0.052,0.086,1.008
2026/05/14 10:31:43.318,-0.054,0.084,1.004
2026/05/14 10:31:43.337,-0.055,0.087,1.003
2026/05/14 10:31:43.356,-0.054,0.086,1.006
2026/05/14 10:31:43.375,-0.054,0.08,1.006
2026/05/14 10:31:43.394,-0.053,0.083,1.006
2026/05/14 10:31:43.414,-0.054,0.083,1.003
2026/05/14 10:31:43.433,-0.054,0.079,1.01
2026/05/14 10:31:43.452,-0.054,0.083,1.005
2026/05/14 10:31:43.471,-0.055,0.085,1.005
2026/05/14 10:31:43.491,-0.058,0.084,1.002
2026/05/14 10:31:43.510,-0.056,0.083,1.004
2026/05/14 10:31:43.529,-0.055,0.085,1.003
2026/05/14 10:31:43.548,-0.053,0.086,1.003
2026/05/14 10:31:43.568,-0.051,0.084,0.998
2026/05/14 10:31:43.587,-0.051,0.083,0.999
2026/05/14 10:31:43.606,-0.053,0.085,1.004
2026/05/14 10:31:43.625,-0.055,0.086,1.003
2026/05/14 10:31:43.644,-0.054,0.084,1.008
2026/05/14 10:31:43.664,-0.051,0.086,1.008
2026/05/14 10:31:43.683,-0.053,0.088,1.0
2026/05/14 10:31:43.702,-0.052,0.085,1.005
2026/05/14 10:31:43.721,-0.054,0.085,1.004
2026/05/14 10:31:43.741,-0.055,0.084,1.005
2026/05/14 10:31:43.760,-0.048,0.08,1.002
2026/05/14 10:31:43.779,-0.056,0.085,0.997
2026/05/14 10:31:43.798,-0.056,0.083,1.004
2026/05/14 10:31:43.818,-0.054,0.082,1.003
2026/05/14 10:31:43.837,-0.054,0.082,1.008
2026/05/14 10:31:43.856,-0.051,0.086,1.007
2026/05/14 10:31:43.875,-0.056,0.084,1.004
2026/05/14 10:31:43.894,-0.053,0.084,1.003
2026/05/14 10:31:43.914,-0.055,0.087,1.003
2026/05/14 10:31:43.933,-0.053,0.084,1.004
2026/05/14 10:31:43.952,-0.054,0.085,1.006
2026/05/14 10:31:43.971,-0.051,0.084,1.005
2026/05/14 10:31:43.991,-0.057,0.084,1.004
2026/05/14 10:31:44.010,-0.053,0.084,1.004
2026/05/14 10:31:44.029,-0.053,0.081,1.003
2026/05/14 10:31:44.048,-0.05,0.083,1.004
2026/05/14 10:31:44.068,-0.052,0.085,1.003
2026/05/14 10:31:44.087,-0.054,0.084,1.001
2026/05/14 10:31:44.106,-0.049,0.083,1.0
2026/05/14 10:31:44.125,-0.05,0.088,1.004
2026/05/14 10:31:44.144,-0.052,0.086,1.002
2026/05/14 10:31:44.164,-0.053,0.086,1.005
2026/05/14 10:31:44.183,-0.056,0.089,1.003
2026/05/14 10:31:44.202,-0.052,0.084,1.002
2026/05/14 10:31:44.221,-0.052,0.084,1.004
2026/05/14 10:31:44.241,-0.049,0.084,1.003
2026/05/14 10:31:44.260,-0.052,0.083,1.008
2026/05/14 10:31:44.279,-0.051,0.084,1.005
2026/05/14 10:31:44.298,-0.049,0.084,1.003
2026/05/14 10:31:44.318,-0.06,0.087,1.003
2026/05/14 10:31:44.337,-0.055,0.084,1.004
2026/05/14 10:31:44.356,-0.048,0.085,1.002
2026/05/14 10:31:44.375,-0.051,0.088,1.007
2026/05/14 10:31:44.394,-0.057,0.085,1.008
2026/05/14 10:31:44.414,-0.057,0.087,1.004
2026/05/14 10:31:44.433,-0.051,0.086,1.004
2026/05/14 10:31:44.452,-0.053,0.082,1.005
2026/05/14 10:31:44.471,-0.054,0.082,1.001
2026/05/14 10:31:44.491,-0.052,0.086,1.002
2026/05/14 10:31:44.510,-0.053,0.087,1.005
2026/05/14 10:31:44.529,-0.055,0.083,1.004
2026/05/14 10:31:44.548,-0.05,0.083,1.004
2026/05/14 10:31:44.568,-0.05,0.081,1.007
2026/05/14 10:31:44.587,-0.055,0.085,1.006
2026/05/14 10:31:44.606,-0.056,0.083,1.005
2026/05/14 10:31:44.625,-0.054,0.086,1.002
2026/05/14 10:31:44.644,-0.051,0.086,1.006
2026/05/14 10:31:44.664,-0.055,0.083,1.003
2026/05/14 10:31:44.683,-0.053,0.086,1.006
2026/05/14 10:31:44.702,-0.055,0.081,1.003
2026/05/14 10:31:44.721,-0.052,0.088,1.005
2026/05/14 10:31:44.741,-0.051,0.082,1.006
2026/05/14 10:31:44.760,-0.052,0.084,1.006
2026/05/14 10:31:44.779,-0.054,0.082,1.003
2026/05/14 10:31:44.798,-0.053,0.082,1.009
2026/05/14 10:31:44.818,-0.05,0.083,1.005
2026/05/14 10:31:44.837,-0.054,0.08,1.005
2026/05/14 10:31:44.856,-0.053,0.081,1.0
2026/05/14 10:31:44.875,-0.053,0.087,1.003
2026/05/14 10:31:44.894,-0.057,0.082,1.001
2026/05/14 10:31:44.914,-0.05,0.082,1.004
2026/05/14 10:31:44.933,-0.056,0.084,1.002
2026/05/14 10:31:44.952,-0.054,0.089,1.002
2026/05/14 10:31:44.971,-0.054,0.085,1.005
2026/05/14 10:31:44.991,-0.05,0.083,1.001
2026/05/14 10:31:45.010,-0.055,0.087,1.001
2026/05/14 10:31:45.029,-0.054,0.084,1.005
2026/05/14 10:31:45.048,-0.051,0.083,1.007
2026/05/14 10:31:45.068,-0.051,0.083,1.003
2026/05/14 10:31:45.087,-0.051,0.086,1.004
2026/05/14 10:31:45.106,-0.055,0.086,1.007
2026/05/14 10:31:45.125,-0.054,0.083,1.005
2026/05/14 10:31:45.144,-0.053,0.079,1.004
2026/05/14 10:31:45.164,-0.052,0.085,1.004
2026/05/14 10:31:45.183,-0.056,0.088,1.002
2026/05/14 10:31:45.202,-0.053,0.088,1.004
2026/05/14 10:31:45.221,-0.056,0.081,1.003
2026/05/14 10:31:45.241,-0.052,0.085,1.001
2026/05/14 10:31:45.260,-0.056,0.085,1.006
2026/05/14 10:31:45.279,-0.051,0.084,1.004
2026/05/14 10:31:45.298,-0.048,0.08,1.005
2026/05/14 10:31:45.318,-0.05,0.087,1.005
2026/05/14 10:31:45.337,-0.052,0.087,1.009
2026/05/14 10:31:45.356,-0.053,0.083,1.004
2026/05/14 10:31:45.375,-0.052,0.078,1.004
2026/05/14 10:31:45.394,-0.05,0.086,1.005
2026/05/14 10:31:45.414,-0.054,0.088,1.006
2026/05/14 10:31:45.433,-0.052,0.083,1.009
2026/05/14 10:31:45.452,-0.055,0.086,1.005
2026/05/14 10:31:45.471,-0.055,0.083,1.002
2026/05/14 10:31:45.491,-0.053,0.086,1.002
2026/05/14 10:31:45.510,-0.056,0.086,1.007
2026/05/14 10:31:45.529,-0.055,0.085,1.0
2026/05/14 10:31:45.548,-0.053,0.083,1.006
2026/05/14 10:31:45.568,-0.055,0.085,1.007
2026/05/14 10:31:45.587,-0.051,0.083,1.003
2026/05/14 10:31:45.606,-0.05,0.082,1.006
2026/05/14 10:31:45.625,-0.053,0.086,1.005
2026/05/14 10:31:45.644,-0.052,0.082,1.005
2026/05/14 10:31:45.664,-0.049,0.084,1.007
2026/05/14 10:31:45.682,-0.055,0.086,1.003
2026/05/14 10:31:45.701,-0.053,0.085,1.005
2026/05/14 10:31:45.719,-0.052,0.082,1.005
2026/05/14 10:31:45.738,-0.053,0.088,1.003
2026/05/14 10:31:45.756,-0.051,0.087,1.002
2026/05/14 10:31:45.775,-0.053,0.084,1.004
2026/05/14 10:31:45.793,-0.05,0.083,1.002
2026/05/14 10:31:45.812,-0.051,0.083,1.004
2026/05/14 10:31:45.830,-0.052,0.092,1.007
2026/05/14 10:31:45.849,-0.056,0.082,1.004
2026/05/14 10:31:45.867,-0.053,0.082,1.003
2026/05/14 10:31:45.886,-0.051,0.085,1.008
2026/05/14 10:31:45.904,-0.054,0.085,1.006
2026/05/14 10:31:45.923,-0.05,0.085,1.006
2026/05/14 10:31:45.941,-0.053,0.084,1.004
2026/05/14 10:31:45.960,-0.051,0.086,1.005
2026/05/14 10:31:45.978,-0.053,0.087,1.003
2026/05/14 10:31:45.997,-0.052,0.084,1.004
2026/05/14 10:31:46.015,-0.052,0.089,1.006
2026/05/14 10:31:46.034,-0.053,0.085,1.004
2026/05/14 10:31:46.052,-0.051,0.086,1.003
2026/05/14 10:31:46.071,-0.053,0.09,1.005
2026/05/14 10:31:46.090,-0.056,0.084,1.003
2026/05/14 10:31:46.108,-0.052,0.084,1.003
2026/05/14 10:31:46.127,-0.054,0.085,1.006
2026/05/14 10:31:46.145,-0.053,0.084,1.003
2026/05/14 10:31:46.164,-0.053,0.083,1.006
2026/05/14 10:31:46.182,-0.054,0.085,1.007
2026/05/14 10:31:46.201,-0.053,0.085,1.008
2026/05/14 10:31:46.219,-0.053,0.088,1.006
2026/05/14 10:31:46.238,-0.055,0.081,1.006
2026/05/14 10:31:46.256,-0.053,0.08,1.006
2026/05/14 10:31:46.275,-0.051,0.087,1.007
2026/05/14 10:31:46.293,-0.049,0.082,1.007
2026/05/14 10:31:46.312,-0.053,0.082,1.006
2026/05/14 10:31:46.330,-0.053,0.085,1.003
2026/05/14 10:31:46.349,-0.052,0.085,1.008
2026/05/14 10:31:46.367,-0.054,0.083,1.005
2026/05/14 10:31:46.386,-0.049,0.085,1.007
2026/05/14 10:31:46.404,-0.056,0.084,1.003
2026/05/14 10:31:46.423,-0.054,0.082,1.006
2026/05/14 10:31:46.441,-0.053,0.083,1.004
2026/05/14 10:31:46.460,-0.055,0.085,1.006
2026/05/14 10:31:46.478,-0.053,0.085,1.002
2026/05/14 10:31:46.497,-0.051,0.087,1.004
2026/05/14 10:31:46.515,-0.054,0.084,1.007
2026/05/14 10:31:46.534,-0.055,0.083,1.001
2026/05/14 10:31:46.552,-0.053,0.086,1.003
2026/05/14 10:31:46.571,-0.053,0.083,1.007
2026/05/14 10:31:46.589,-0.051,0.083,1.006
2026/05/14 10:31:46.608,-0.052,0.086,1.007
2026/05/14 10:31:46.626,-0.051,0.08,1.004
2026/05/14 10:31:46.645,-0.056,0.085,1.006
2026/05/14 10:31:46.663,-0.053,0.084,1.003
2026/05/14 10:31:46.682,-0.057,0.083,1.007
2026/05/14 10:31:46.701,-0.05,0.087,1.006
2026/05/14 10:31:46.719,-0.049,0.084,1.004
2026/05/14 10:31:46.738,-0.053,0.081,1.006
2026/05/14 10:31:46.756,-0.051,0.08,1.009
2026/05/14 10:31:46.775,-0.052,0.083,1.003
2026/05/14 10:31:46.793,-0.054,0.084,1.003
2026/05/14 10:31:46.812,-0.049,0.085,1.005
2026/05/14 10:31:46.830,-0.054,0.083,1.003
2026/05/14 10:31:46.849,-0.054,0.085,1.005
2026/05/14 10:31:46.867,-0.053,0.082,1.002
2026/05/14 10:31:46.886,-0.052,0.082,1.005
2026/05/14 10:31:46.904,-0.051,0.081,1.011
2026/05/14 10:31:46.923,-0.053,0.084,1.005
2026/05/14 10:31:46.941,-0.051,0.082,1.001
2026/05/14 10:31:46.960,-0.053,0.086,1.004
2026/05/14 10:31:46.978,-0.056,0.088,1.005
2026/05/14 10:31:46.997,-0.059,0.082,1.006
2026/05/14 10:31:47.015,-0.054,0.083,1.006
2026/05/14 10:31:47.034,-0.051,0.087,1.003
2026/05/14 10:31:47.052,-0.054,0.084,1.006
2026/05/14 10:31:47.071,-0.055,0.09,1.005
2026/05/14 10:31:47.089,-0.05,0.086,1.008
2026/05/14 10:31:47.108,-0.055,0.082,1.009
2026/05/14 10:31:47.126,-0.058,0.08,1.004
2026/05/14 10:31:47.145,-0.053,0.081,1.002
2026/05/14 10:31:47.163,-0.054,0.086,1.003
2026/05/14 10:31:47.182,-0.05,0.084,1.003
2026/05/14 10:31:47.200,-0.053,0.083,1.005
2026/05/14 10:31:47.219,-0.053,0.087,1.004
2026/05/14 10:31:47.237,-0.052,0.082,1.007
2026/05/14 10:31:47.256,-0.051,0.084,1.005
2026/05/14 10:31:47.274,-0.054,0.087,1.001
2026/05/14 10:31:47.293,-0.055,0.08,1.008
2026/05/14 10:31:47.312,-0.055,0.081,1.006
2026/05/14 10:31:47.330,-0.056,0.084,1.003
2026/05/14 10:31:47.349,-0.051,0.08,1.009
2026/05/14 10:31:47.367,-0.05,0.082,1.008
2026/05/14 10:31:47.386,-0.053,0.084,1.001
2026/05/14 10:31:47.404,-0.052,0.086,1.001
2026/05/14 10:31:47.423,-0.055,0.083,1.01
2026/05/14 10:31:47.441,-0.053,0.085,1.004
2026/05/14 10:31:47.460,-0.055,0.082,1.005
2026/05/14 10:31:47.478,-0.052,0.084,1.01
2026/05/14 10:31:47.497,-0.051,0.085,1.004
2026/05/14 10:31:47.515,-0.054,0.081,1.005
2026/05/14 10:31:47.534,-0.053,0.086,1.006
2026/05/14 10:31:47.552,-0.053,0.086,1.005
2026/05/14 10:31:47.571,-0.053,0.085,1.004
2026/05/14 10:31:47.589,-0.054,0.085,1.003
2026/05/14 10:31:47.608,-0.047,0.08,1.008
2026/05/14 10:31:47.626,-0.054,0.084,1.008
2026/05/14 10:31:47.645,-0.055,0.081,1.004
2026/05/14 10:31:47.663,-0.051,0.085,1.003
2026/05/14 10:31:47.682,-0.051,0.087,1.0
2026/05/14 10:31:47.700,-0.053,0.084,1.004
2026/05/14 10:31:47.719,-0.056,0.086,1.004
2026/05/14 10:31:47.737,-0.059,0.08,1.003
2026/05/14 10:31:47.756,-0.053,0.08,1.005
2026/05/14 10:31:47.774,-0.052,0.084,1.006
2026/05/14 10:31:47.793,-0.053,0.083,1.005
2026/05/14 10:31:47.811,-0.055,0.087,1.003
2026/05/14 10:31:47.830,-0.055,0.087,1.006
2026/05/14 10:31:47.848,-0.051,0.08,1.003
2026/05/14 10:31:47.867,-0.055,0.084,1.003
2026/05/14 10:31:47.885,-0.056,0.088,1.001
2026/05/14 10:31:47.904,-0.053,0.082,1.006
2026/05/14 10:31:47.923,-0.056,0.086,1.003
2026/05/14 10:31:47.941,-0.055,0.08,1.004
2026/05/14 10:31:47.960,-0.052,0.085,1.006
2026/05/14 10:31:47.978,-0.053,0.083,1.009
2026/05/14 10:31:47.997,-0.05,0.083,1.006
2026/05/14 10:31:48.015,-0.052,0.083,1.002
2026/05/14 10:31:48.034,-0.05,0.086,1.008
2026/05/14 10:31:48.052,-0.054,0.083,1.003
2026/05/14 10:31:48.071,-0.054,0.084,1.006
2026/05/14 10:31:48.089,-0.056,0.085,1.002
2026/05/14 10:31:48.108,-0.054,0.087,1.009
2026/05/14 10:31:48.126,-0.051,0.083,1.004
2026/05/14 10:31:48.145,-0.056,0.086,1.006
2026/05/14 10:31:48.163,-0.053,0.083,1.009
2026/05/14 10:31:48.182,-0.052,0.086,1.003
2026/05/14 10:31:48.200,-0.055,0.085,1.005
2026/05/14 10:31:48.219,-0.052,0.085,1.007
2026/05/14 10:31:48.237,-0.056,0.087,1.004
2026/05/14 10:31:48.256,-0.053,0.084,1.001
2026/05/14 10:31:48.274,-0.053,0.086,1.005
2026/05/14 10:31:48.293,-0.055,0.082,1.004
2026/05/14 10:31:48.311,-0.053,0.084,1.006
2026/05/14 10:31:48.330,-0.056,0.086,1.006
2026/05/14 10:31:48.348,-0.055,0.087,1.01
2026/05/14 10:31:48.367,-0.054,0.083,1.003
2026/05/14 10:31:48.385,-0.052,0.085,1.0
2026/05/14 10:31:48.404,-0.054,0.088,1.003
2026/05/14 10:31:48.422,-0.051,0.084,1.005
2026/05/14 10:31:48.441,-0.058,0.082,1.002
2026/05/14 10:31:48.459,-0.052,0.085,1.007
2026/05/14 10:31:48.478,-0.053,0.085,1.002
2026/05/14 10:31:48.496,-0.054,0.087,1.006
2026/05/14 10:31:48.515,-0.051,0.084,1.006
2026/05/14 10:31:48.533,-0.053,0.087,1.006
2026/05/14 10:31:48.552,-0.055,0.085,1.004
2026/05/14 10:31:48.571,-0.053,0.08,1.009
2026/05/14 10:31:48.589,-0.055,0.084,1.005
2026/05/14 10:31:48.608,-0.055,0.087,1.005
2026/05/14 10:31:48.626,-0.053,0.081,1.008
2026/05/14 10:31:48.645,-0.053,0.081,1.003
2026/05/14 10:31:48.663,-0.054,0.083,1.004
2026/05/14 10:31:48.682,-0.053,0.081,1.004
2026/05/14 10:31:48.700,-0.053,0.086,1.003
2026/05/14 10:31:48.719,-0.049,0.082,1.003
2026/05/14 10:31:48.737,-0.053,0.081,1.005
2026/05/14 10:31:48.756,-0.05,0.084,1.004
2026/05/14 10:31:48.774,-0.056,0.08,1.0
2026/05/14 10:31:48.793,-0.051,0.08,1.002
2026/05/14 10:31:48.811,-0.054,0.083,1.004
2026/05/14 10:31:48.830,-0.053,0.083,1.005
2026/05/14 10:31:48.848,-0.051,0.087,1.006
2026/05/14 10:31:48.867,-0.05,0.084,1.004
2026/05/14 10:31:48.885,-0.051,0.085,1.005
2026/05/14 10:31:48.904,-0.055,0.086,1.006
2026/05/14 10:31:48.922,-0.055,0.086,1.001
2026/05/14 10:31:48.941,-0.055,0.086,1.008
2026/05/14 10:31:48.959,-0.053,0.086,1.003
2026/05/14 10:31:48.978,-0.052,0.083,1.007
2026/05/14 10:31:48.996,-0.054,0.076,1.007
2026/05/14 10:31:49.015,-0.057,0.083,1.006
2026/05/14 10:31:49.033,-0.049,0.085,1.008
2026/05/14 10:31:49.052,-0.051,0.087,1.008
2026/05/14 10:31:49.070,-0.052,0.081,1.005
2026/05/14 10:31:49.089,-0.054,0.083,1.006
2026/05/14 10:31:49.107,-0.051,0.086,1.003
2026/05/14 10:31:49.126,-0.054,0.085,1.005
2026/05/14 10:31:49.144,-0.052,0.084,1.006
2026/05/14 10:31:49.163,-0.052,0.09,1.006
2026/05/14 10:31:49.181,-0.052,0.081,1.003
2026/05/14 10:31:49.200,-0.057,0.085,1.006
2026/05/14 10:31:49.219,-0.052,0.087,1.005
2026/05/14 10:31:49.237,-0.054,0.08,1.002
2026/05/14 10:31:49.256,-0.051,0.083,1.009
2026/05/14 10:31:49.274,-0.056,0.083,1.001
2026/05/14 10:31:49.293,-0.052,0.088,1.007
2026/05/14 10:31:49.311,-0.05,0.084,1.006
2026/05/14 10:31:49.330,-0.05,0.085,1.004
2026/05/14 10:31:49.348,-0.053,0.085,1.007
2026/05/14 10:31:49.367,-0.053,0.08,1.004
2026/05/14 10:31:49.385,-0.049,0.078,1.006
2026/05/14 10:31:49.404,-0.057,0.083,1.004
2026/05/14 10:31:49.422,-0.056,0.088,1.004
2026/05/14 10:31:49.441,-0.056,0.089,1.004
2026/05/14 10:31:49.459,-0.057,0.086,1.006
2026/05/14 10:31:49.478,-0.053,0.089,1.004
2026/05/14 10:31:49.496,-0.057,0.086,1.002
2026/05/14 10:31:49.515,-0.054,0.086,1.005
2026/05/14 10:31:49.533,-0.053,0.086,1.001
2026/05/14 10:31:49.552,-0.055,0.08,1.007
2026/05/14 10:31:49.570,-0.053,0.081,1.004
2026/05/14 10:31:49.589,-0.052,0.086,1.002
2026/05/14 10:31:49.607,-0.052,0.087,1.005
2026/05/14 10:31:49.626,-0.053,0.083,1.001
2026/05/14 10:31:49.644,-0.054,0.083,1.002
2026/05/14 10:31:49.663,-0.056,0.084,1.003
2026/05/14 10:31:49.681,-0.052,0.086,1.004
2026/05/14 10:31:49.700,-0.051,0.082,1.004
2026/05/14 10:31:49.718,-0.053,0.081,1.005
2026/05/14 10:31:49.737,-0.052,0.085,1.006
2026/05/14 10:31:49.755,-0.055,0.083,1.003
2026/05/14 10:31:49.774,-0.056,0.082,1.005
2026/05/14 10:31:49.792,-0.056,0.083,1.005
2026/05/14 10:31:49.811,-0.052,0.088,1.007
2026/05/14 10:31:49.829,-0.052,0.084,1.004
2026/05/14 10:31:49.848,-0.052,0.083,1.004
2026/05/14 10:31:49.866,-0.054,0.081,1.002
2026/05/14 10:31:49.885,-0.051,0.09,1.006
2026/05/14 10:31:49.904,-0.053,0.084,1.006
2026/05/14 10:31:49.922,-0.051,0.081,1.003
2026/05/14 10:31:49.941,-0.052,0.084,1.001
2026/05/14 10:31:49.959,-0.053,0.081,1.008
2026/05/14 10:31:49.978,-0.053,0.086,1.003
2026/05/14 10:31:49.996,-0.053,0.083,1.006
2026/05/14 10:31:50.015,-0.053,0.083,1.009
2026/05/14 10:31:50.033,-0.057,0.081,1.006
2026/05/14 10:31:50.052,-0.053,0.084,1.007
2026/05/14 10:31:50.070,-0.05,0.088,1.004
2026/05/14 10:31:50.089,-0.052,0.081,1.003
2026/05/14 10:31:50.107,-0.057,0.088,1.003
2026/05/14 10:31:50.126,-0.054,0.084,1.006
2026/05/14 10:31:50.144,-0.056,0.084,1.012
2026/05/14 10:31:50.163,-0.057,0.085,1.002
2026/05/14 10:31:50.181,-0.052,0.084,1.003
2026/05/14 10:31:50.200,-0.056,0.083,1.005
2026/05/14 10:31:50.218,-0.057,0.084,1.005
2026/05/14 10:31:50.237,-0.054,0.085,1.004
2026/05/14 10:31:50.255,-0.051,0.083,1.004
2026/05/14 10:31:50.274,-0.052,0.085,1.003
2026/05/14 10:31:50.292,-0.049,0.085,1.004
2026/05/14 10:31:50.311,-0.052,0.085,1.004
2026/05/14 10:31:50.329,-0.055,0.084,1.007
2026/05/14 10:31:50.348,-0.053,0.082,1.002
2026/05/14 10:31:50.366,-0.055,0.086,1.001
2026/05/14 10:31:50.385,-0.05,0.084,1.008
2026/05/14 10:31:50.403,-0.054,0.085,1.004
2026/05/14 10:31:50.422,-0.054,0.085,1.003
2026/05/14 10:31:50.440,-0.047,0.083,1.002
2026/05/14 10:31:50.459,-0.053,0.086,1.004
2026/05/14 10:31:50.477,-0.057,0.082,1.004
2026/05/14 10:31:50.496,-0.055,0.087,1.005
2026/05/14 10:31:50.514,-0.054,0.086,1.007
2026/05/14 10:31:50.533,-0.056,0.085,1.006
2026/05/14 10:31:50.551,-0.051,0.08,1.007
2026/05/14 10:31:50.570,-0.054,0.086,1.004
2026/05/14 10:31:50.589,-0.053,0.086,1.006
2026/05/14 10:31:50.607,-0.057,0.085,1.004
2026/05/14 10:31:50.626,-0.054,0.084,1.005
2026/05/14 10:31:50.644,-0.053,0.084,1.003
2026/05/14 10:31:50.663,-0.054,0.086,1.0
2026/05/14 10:31:50.681,-0.053,0.084,1.004
2026/05/14 10:31:50.700,-0.05,0.086,1.007
2026/05/14 10:31:50.718,-0.051,0.083,1.005
2026/05/14 10:31:50.737,-0.05,0.082,1.005
2026/05/14 10:31:50.755,-0.053,0.085,1.004
2026/05/14 10:31:50.774,-0.056,0.084,1.005
2026/05/14 10:31:50.792,-0.059,0.084,1.006
2026/05/14 10:31:50.811,-0.054,0.083,1.002
2026/05/14 10:31:50.829,-0.052,0.086,1.007
2026/05/14 10:31:50.848,-0.051,0.082,1.0
2026/05/14 10:31:50.866,-0.053,0.084,1.003
2026/05/14 10:31:50.885,-0.053,0.085,1.007
2026/05/14 10:31:50.903,-0.054,0.086,1.003
2026/05/14 10:31:50.922,-0.053,0.082,1.002
2026/05/14 10:31:50.940,-0.056,0.081,1.003
2026/05/14 10:31:50.959,-0.054,0.083,1.004
2026/05/14 10:31:50.977,-0.052,0.08,1.004
2026/05/14 10:31:50.996,-0.051,0.084,1.009
2026/05/14 10:31:51.014,-0.052,0.082,1.003
2026/05/14 10:31:51.033,-0.055,0.083,1.006
2026/05/14 10:31:51.051,-0.055,0.085,1.007
2026/05/14 10:31:51.070,-0.056,0.08,1.007
2026/05/14 10:31:51.088,-0.052,0.081,1.004
2026/05/14 10:31:51.107,-0.055,0.087,1.004
2026/05/14 10:31:51.125,-0.054,0.088,1.01
2026/05/14 10:31:51.144,-0.053,0.081,1.006
2026/05/14 10:31:51.162,-0.052,0.089,1.004
2026/05/14 10:31:51.181,-0.051,0.085,1.0
2026/05/14 10:31:51.199,-0.052,0.08,1.007
2026/05/14 10:31:51.218,-0.054,0.091,1.001
2026/05/14 10:31:51.236,-0.056,0.084,1.003
2026/05/14 10:31:51.255,-0.052,0.084,1.002
2026/05/14 10:31:51.274,-0.054,0.085,1.006
2026/05/14 10:31:51.292,-0.051,0.086,1.006
2026/05/14 10:31:51.311,-0.053,0.083,1.003
2026/05/14 10:31:51.329,-0.052,0.082,1.003
2026/05/14 10:31:51.348,-0.052,0.083,1.003
2026/05/14 10:31:51.366,-0.051,0.087,1.003
2026/05/14 10:31:51.385,-0.057,0.086,1.0
2026/05/14 10:31:51.403,-0.051,0.085,1.004
2026/05/14 10:31:51.422,-0.054,0.08,1.001
2026/05/14 10:31:51.440,-0.059,0.086,1.004
2026/05/14 10:31:51.459,-0.052,0.086,1.004
2026/05/14 10:31:51.477,-0.052,0.084,1.004
2026/05/14 10:31:51.496,-0.052,0.081,1.006
2026/05/14 10:31:51.514,-0.053,0.087,1.006
2026/05/14 10:31:51.533,-0.053,0.084,1.002
2026/05/14 10:31:51.551,-0.052,0.086,1.003
2026/05/14 10:31:51.570,-0.057,0.088,1.006
2026/05/14 10:31:51.588,-0.053,0.082,1.005
2026/05/14 10:31:51.607,-0.053,0.083,1.004
2026/05/14 10:31:51.625,-0.051,0.085,1.003
2026/05/14 10:31:51.644,-0.054,0.083,1.003
2026/05/14 10:31:51.662,-0.052,0.085,1.004
2026/05/14 10:31:51.681,-0.051,0.087,1.006
2026/05/14 10:31:51.699,-0.054,0.082,1.003
2026/05/14 10:31:51.718,-0.055,0.081,1.001
2026/05/14 10:31:51.736,-0.054,0.085,1.004
2026/05/14 10:31:51.755,-0.055,0.083,1.002
2026/05/14 10:31:51.773,-0.05,0.082,1.004
2026/05/14 10:31:51.792,-0.051,0.082,1.002
2026/05/14 10:31:51.810,-0.054,0.084,1.006
2026/05/14 10:31:51.829,-0.054,0.084,1.005
2026/05/14 10:31:51.847,-0.054,0.082,1.004
2026/05/14 10:31:51.866,-0.048,0.081,1.01
2026/05/14 10:31:51.884,-0.052,0.083,1.003
2026/05/14 10:31:51.903,-0.051,0.085,1.006
2026/05/14 10:31:51.922,-0.055,0.082,1.005
2026/05/14 10:31:51.940,-0.052,0.083,1.002
2026/05/14 10:31:51.959,-0.051,0.086,1.005
2026/05/14 10:31:51.977,-0.05,0.086,1.004
2026/05/14 10:31:51.996,-0.054,0.083,1.004
2026/05/14 10:31:52.014,-0.051,0.083,1.0
2026/05/14 10:31:52.033,-0.053,0.089,1.005
2026/05/14 10:31:52.051,-0.055,0.089,1.003
2026/05/14 10:31:52.070,-0.054,0.084,1.002
2026/05/14 10:31:52.088,-0.054,0.086,1.006
2026/05/14 10:31:52.107,-0.053,0.086,1.003
2026/05/14 10:31:52.125,-0.052,0.085,1.0
2026/05/14 10:31:52.144,-0.052,0.086,1.006
2026/05/14 10:31:52.162,-0.052,0.083,1.003
2026/05/14 10:31:52.181,-0.052,0.085,1.004
2026/05/14 10:31:52.199,-0.054,0.085,1.001
2026/05/14 10:31:52.218,-0.051,0.087,0.997
2026/05/14 10:31:52.236,-0.053,0.086,1.004
2026/05/14 10:31:52.255,-0.053,0.083,1.002
2026/05/14 10:31:52.273,-0.056,0.082,0.998
2026/05/14 10:31:52.292,-0.054,0.081,1.006
2026/05/14 10:31:52.310,-0.053,0.083,1.003
2026/05/14 10:31:52.329,-0.051,0.087,1.003
2026/05/14 10:31:52.347,-0.054,0.087,1.003
2026/05/14 10:31:52.366,-0.052,0.088,1.002
2026/05/14 10:31:52.384,-0.054,0.084,1.005
2026/05/14 10:31:52.403,-0.052,0.083,1.003
2026/05/14 10:31:52.421,-0.051,0.084,1.004
2026/05/14 10:31:52.440,-0.053,0.084,1.008
2026/05/14 10:31:52.458,-0.052,0.086,1.002
2026/05/14 10:31:52.477,-0.051,0.083,1.002
2026/05/14 10:31:52.495,-0.054,0.087,1.008
2026/05/14 10:31:52.514,-0.052,0.084,1.006
2026/05/14 10:31:52.532,-0.052,0.083,1.008
2026/05/14 10:31:52.551,-0.054,0.081,1.002
2026/05/14 10:31:52.569,-0.051,0.083,1.005
2026/05/14 10:31:52.588,-0.056,0.085,1.008
2026/05/14 10:31:52.607,-0.053,0.086,1.003
2026/05/14 10:31:52.625,-0.055,0.083,1.006
2026/05/14 10:31:52.644,-0.053,0.084,1.004
2026/05/14 10:31:52.662,-0.053,0.088,1.004
2026/05/14 10:31:52.681,-0.048,0.085,1.003
2026/05/14 10:31:52.699,-0.051,0.087,1.001
2026/05/14 10:31:52.718,-0.054,0.079,1.005
2026/05/14 10:31:52.736,-0.055,0.083,1.003
2026/05/14 10:31:52.755,-0.052,0.087,1.004
2026/05/14 10:31:52.773,-0.054,0.083,1.005
2026/05/14 10:31:52.792,-0.056,0.087,1.004
2026/05/14 10:31:52.810,-0.056,0.084,1.008
2026/05/14 10:31:52.829,-0.054,0.084,1.006
2026/05/14 10:31:52.847,-0.051,0.082,1.007
2026/05/14 10:31:52.866,-0.053,0.086,1.002
2026/05/14 10:31:52.884,-0.054,0.085,1.006
2026/05/14 10:31:52.903,-0.052,0.084,1.002
2026/05/14 10:31:52.921,-0.053,0.088,1.004
2026/05/14 10:31:52.940,-0.053,0.083,1.007
2026/05/14 10:31:52.958,-0.052,0.084,1.006
2026/05/14 10:31:52.977,-0.055,0.085,1.003
2026/05/14 10:31:52.995,-0.054,0.083,1.004
2026/05/14 10:31:53.014,-0.054,0.085,1.008
2026/05/14 10:31:53.032,-0.055,0.085,1.005
2026/05/14 10:31:53.051,-0.052,0.092,1.007
2026/05/14 10:31:53.069,-0.057,0.081,1.0
2026/05/14 10:31:53.088,-0.052,0.082,1.005
2026/05/14 10:31:53.106,-0.056,0.084,1.007
2026/05/14 10:31:53.125,-0.057,0.082,1.004
2026/05/14 10:31:53.143,-0.053,0.086,1.005
2026/05/14 10:31:53.162,-0.052,0.083,1.002
2026/05/14 10:31:53.180,-0.055,0.088,1.007
2026/05/14 10:31:53.199,-0.052,0.085,1.006
2026/05/14 10:31:53.217,-0.054,0.083,1.002
2026/05/14 10:31:53.236,-0.055,0.086,1.008
2026/05/14 10:31:53.254,-0.056,0.088,1.005
2026/05/14 10:31:53.273,-0.051,0.081,1.006
2026/05/14 10:31:53.292,-0.055,0.083,1.007
2026/05/14 10:31:53.310,-0.051,0.08,1.006
2026/05/14 10:31:53.329,-0.052,0.084,1.002
2026/05/14 10:31:53.347,-0.052,0.085,1.002
2026/05/14 10:31:53.366,-0.054,0.082,1.004
2026/05/14 10:31:53.384,-0.053,0.085,1.006
2026/05/14 10:31:53.403,-0.052,0.081,1.004
2026/05/14 10:31:53.421,-0.051,0.082,1.009
2026/05/14 10:31:53.440,-0.051,0.084,1.005
2026/05/14 10:31:53.458,-0.049,0.084,1.003
2026/05/14 10:31:53.477,-0.056,0.084,1.004
2026/05/14 10:31:53.495,-0.054,0.081,1.009
2026/05/14 10:31:53.514,-0.052,0.083,1.007
2026/05/14 10:31:53.532,-0.056,0.083,1.005
2026/05/14 10:31:53.551,-0.055,0.083,1.005
2026/05/14 10:31:53.569,-0.055,0.084,1.004
2026/05/14 10:31:53.588,-0.056,0.084,1.003
2026/05/14 10:31:53.606,-0.052,0.083,1.006
2026/05/14 10:31:53.625,-0.049,0.085,1.002
2026/05/14 10:31:53.643,-0.055,0.085,1.008
2026/05/14 10:31:53.662,-0.056,0.083,1.004
2026/05/14 10:31:53.680,-0.053,0.084,1.001
2026/05/14 10:31:53.699,-0.056,0.085,1.007
2026/05/14 10:31:53.717,-0.052,0.082,1.007
2026/05/14 10:31:53.736,-0.051,0.085,1.004
2026/05/14 10:31:53.754,-0.055,0.086,1.006
2026/05/14 10:31:53.773,-0.055,0.083,0.999
2026/05/14 10:31:53.791,-0.052,0.082,1.002
2026/05/14 10:31:53.810,-0.049,0.085,1.001
2026/05/14 10:31:53.828,-0.05,0.083,1.01
2026/05/14 10:31:53.847,-0.052,0.084,1.006
2026/05/14 10:31:53.865,-0.054,0.083,1.007
2026/05/14 10:31:53.884,-0.052,0.082,1.001
2026/05/14 10:31:53.902,-0.052,0.082,1.004
2026/05/14 10:31:53.921,-0.052,0.085,1.005
2026/05/14 10:31:53.940,-0.052,0.081,1.008
2026/05/14 10:31:53.958,-0.053,0.083,1.005
2026/05/14 10:31:53.977,-0.056,0.085,1.004
2026/05/14 10:31:53.995,-0.053,0.085,1.007
2026/05/14 10:31:54.014,-0.052,0.084,1.004
2026/05/14 10:31:54.032,-0.053,0.085,1.007
2026/05/14 10:31:54.051,-0.051,0.084,1.005
2026/05/14 10:31:54.069,-0.056,0.087,1.003
2026/05/14 10:31:54.088,-0.055,0.082,1.008
2026/05/14 10:31:54.106,-0.052,0.085,1.004
2026/05/14 10:31:54.125,-0.052,0.087,1.005
2026/05/14 10:31:54.143,-0.049,0.088,1.005
2026/05/14 10:31:54.162,-0.052,0.085,1.007
2026/05/14 10:31:54.180,-0.05,0.086,1.002
2026/05/14 10:31:54.199,-0.056,0.083,1.006
2026/05/14 10:31:54.217,-0.055,0.082,1.005
2026/05/14 10:31:54.236,-0.054,0.084,1.002
2026/05/14 10:31:54.254,-0.055,0.082,1.006
2026/05/14 10:31:54.273,-0.053,0.082,1.003
2026/05/14 10:31:54.291,-0.054,0.084,1.0
2026/05/14 10:31:54.310,-0.05,0.085,1.007
2026/05/14 10:31:54.328,-0.052,0.08,1.007
2026/05/14 10:31:54.347,-0.051,0.082,1.005
2026/05/14 10:31:54.365,-0.054,0.085,1.0
2026/05/14 10:31:54.384,-0.054,0.083,1.008
2026/05/14 10:31:54.402,-0.059,0.086,1.006
2026/05/14 10:31:54.421,-0.056,0.085,1.004
2026/05/14 10:31:54.439,-0.054,0.079,1.004
2026/05/14 10:31:54.458,-0.055,0.08,1.0
2026/05/14 10:31:54.476,-0.054,0.083,1.003
2026/05/14 10:31:54.495,-0.054,0.085,1.002
2026/05/14 10:31:54.513,-0.055,0.083,1.001
2026/05/14 10:31:54.532,-0.051,0.081,1.005
2026/05/14 10:31:54.551,-0.056,0.086,1.002
2026/05/14 10:31:54.569,-0.056,0.091,1.005
2026/05/14 10:31:54.588,-0.056,0.081,1.002
2026/05/14 10:31:54.606,-0.055,0.085,1.001
2026/05/14 10:31:54.625,-0.054,0.082,1.003
2026/05/14 10:31:54.643,-0.052,0.083,1.001
2026/05/14 10:31:54.662,-0.054,0.082,1.005
2026/05/14 10:31:54.680,-0.057,0.087,1.004
2026/05/14 10:31:54.699,-0.052,0.086,1.002
2026/05/14 10:31:54.717,-0.053,0.082,1.004
2026/05/14 10:31:54.736,-0.052,0.082,1.002
2026/05/14 10:31:54.754,-0.051,0.088,1.005
2026/05/14 10:31:54.773,-0.054,0.088,1.006
2026/05/14 10:31:54.791,-0.053,0.086,1.006
2026/05/14 10:31:54.810,-0.052,0.083,1.006
2026/05/14 10:31:54.828,-0.05,0.083,1.007
2026/05/14 10:31:54.847,-0.055,0.083,1.006
2026/05/14 10:31:54.865,-0.052,0.09,1.004
2026/05/14 10:31:54.884,-0.054,0.084,1.004
2026/05/14 10:31:54.902,-0.054,0.085,1.004
2026/05/14 10:31:54.921,-0.053,0.086,1.003
2026/05/14 10:31:54.939,-0.053,0.085,1.006
2026/05/14 10:31:54.958,-0.054,0.082,1.003
2026/05/14 10:31:54.976,-0.055,0.087,1.005
2026/05/14 10:31:54.995,-0.056,0.085,1.0
2026/05/14 10:31:55.013,-0.055,0.085,1.003
2026/05/14 10:31:55.032,-0.056,0.085,1.006
2026/05/14 10:31:55.050,-0.054,0.084,1.001
2026/05/14 10:31:55.069,-0.049,0.084,1.006
2026/05/14 10:31:55.087,-0.053,0.086,1.006
2026/05/14 10:31:55.106,-0.056,0.085,1.006
2026/05/14 10:31:55.124,-0.051,0.083,1.002
2026/05/14 10:31:55.143,-0.053,0.087,1.001
2026/05/14 10:31:55.161,-0.056,0.082,1.004
2026/05/14 10:31:55.180,-0.051,0.083,1.003
2026/05/14 10:31:55.199,-0.053,0.082,1.003
2026/05/14 10:31:55.217,-0.049,0.084,1.008
2026/05/14 10:31:55.236,-0.053,0.084,1.003
2026/05/14 10:31:55.254,-0.052,0.084,1.003
2026/05/14 10:31:55.273,-0.059,0.08,1.005
2026/05/14 10:31:55.291,-0.052,0.086,1.002
2026/05/14 10:31:55.310,-0.057,0.084,1.003
2026/05/14 10:31:55.328,-0.051,0.088,1.008
2026/05/14 10:31:55.347,-0.052,0.088,1.007
2026/05/14 10:31:55.365,-0.054,0.083,1.003
2026/05/14 10:31:55.384,-0.052,0.083,1.001
2026/05/14 10:31:55.402,-0.053,0.087,1.001
2026/05/14 10:31:55.421,-0.051,0.085,1.001
2026/05/14 10:31:55.439,-0.054,0.083,1.004
2026/05/14 10:31:55.458,-0.054,0.084,1.005
2026/05/14 10:31:55.476,-0.056,0.086,1.0
2026/05/14 10:31:55.495,-0.051,0.082,1.004
2026/05/14 10:31:55.513,-0.055,0.083,1.004
2026/05/14 10:31:55.532,-0.055,0.08,1.006
2026/05/14 10:31:55.550,-0.056,0.082,1.001
2026/05/14 10:31:55.569,-0.052,0.087,1.006
2026/05/14 10:31:55.587,-0.055,0.082,1.003
2026/05/14 10:31:55.606,-0.052,0.083,1.005
2026/05/14 10:31:55.624,-0.055,0.086,1.007
2026/05/14 10:31:55.643,-0.055,0.086,1.005
2026/05/14 10:31:55.661,-0.052,0.089,1.002
2026/05/14 10:31:55.680,-0.051,0.085,1.0
2026/05/14 10:31:55.698,-0.051,0.084,1.004
2026/05/14 10:31:55.717,-0.051,0.085,1.007
2026/05/14 10:31:55.735,-0.048,0.086,1.006
2026/05/14 10:31:55.754,-0.054,0.089,1.003
2026/05/14 10:31:55.772,-0.052,0.088,1.003
2026/05/14 10:31:55.791,-0.052,0.086,1.004
2026/05/14 10:31:55.809,-0.053,0.082,1.002
2026/05/14 10:31:55.828,-0.054,0.081,1.002
2026/05/14 10:31:55.847,-0.053,0.081,1.004
2026/05/14 10:31:55.865,-0.05,0.082,1.006
2026/05/14 10:31:55.884,-0.051,0.083,1.005
2026/05/14 10:31:55.902,-0.056,0.084,1.006
2026/05/14 10:31:55.921,-0.053,0.084,1.004
2026/05/14 10:31:55.939,-0.055,0.086,1.0
2026/05/14 10:31:55.958,-0.051,0.081,1.001
2026/05/14 10:31:55.976,-0.054,0.085,1.004
2026/05/14 10:31:55.995,-0.053,0.08,1.005
2026/05/14 10:31:56.013,-0.055,0.082,1.002
2026/05/14 10:31:56.032,-0.059,0.087,1.004
2026/05/14 10:31:56.050,-0.052,0.088,1.006
2026/05/14 10:31:56.069,-0.055,0.085,1.005
2026/05/14 10:31:56.087,-0.053,0.084,1.006
2026/05/14 10:31:56.106,-0.052,0.086,1.004
2026/05/14 10:31:56.124,-0.055,0.084,1.004
2026/05/14 10:31:56.143,-0.054,0.085,1.004
2026/05/14 10:31:56.161,-0.055,0.08,1.006
2026/05/14 10:31:56.180,-0.057,0.089,1.002
2026/05/14 10:31:56.198,-0.054,0.082,1.003
2026/05/14 10:31:56.217,-0.055,0.082,1.002
2026/05/14 10:31:56.235,-0.053,0.088,1.004
2026/05/14 10:31:56.254,-0.053,0.085,1.0
2026/05/14 10:31:56.272,-0.048,0.085,1.002
2026/05/14 10:31:56.291,-0.054,0.085,1.007
2026/05/14 10:31:56.309,-0.052,0.081,1.007
2026/05/14 10:31:56.328,-0.054,0.082,1.002
2026/05/14 10:31:56.346,-0.055,0.083,1.007
2026/05/14 10:31:56.365,-0.057,0.081,1.002
2026/05/14 10:31:56.383,-0.055,0.083,1.001
2026/05/14 10:31:56.402,-0.054,0.085,1.001
2026/05/14 10:31:56.420,-0.051,0.084,1.003
2026/05/14 10:31:56.439,-0.052,0.08,1.004
2026/05/14 10:31:56.457,-0.055,0.083,1.005
2026/05/14 10:31:56.476,-0.058,0.083,1.003
2026/05/14 10:31:56.495,-0.051,0.083,1.004
2026/05/14 10:31:56.513,-0.056,0.087,1.01
2026/05/14 10:31:56.532,-0.048,0.085,1.005
2026/05/14 10:31:56.550,-0.05,0.084,1.007
2026/05/14 10:31:56.569,-0.055,0.087,1.006
2026/05/14 10:31:56.587,-0.055,0.084,1.005
2026/05/14 10:31:56.606,-0.055,0.086,1.004
2026/05/14 10:31:56.624,-0.051,0.089,1.006
2026/05/14 10:31:56.643,-0.052,0.085,1.003
2026/05/14 10:31:56.661,-0.053,0.086,1.002
2026/05/14 10:31:56.680,-0.056,0.084,1.008
2026/05/14 10:31:56.698,-0.055,0.085,1.003
2026/05/14 10:31:56.717,-0.051,0.086,1.004
2026/05/14 10:31:56.735,-0.055,0.082,1.004
2026/05/14 10:31:56.754,-0.058,0.085,1.004
2026/05/14 10:31:56.772,-0.055,0.082,1.003
2026/05/14 10:31:56.791,-0.052,0.083,1.004
2026/05/14 10:31:56.809,-0.053,0.082,1.004
2026/05/14 10:31:56.828,-0.052,0.084,1.001
2026/05/14 10:31:56.846,-0.051,0.085,1.003
2026/05/14 10:31:56.865,-0.055,0.083,1.002
2026/05/14 10:31:56.883,-0.055,0.088,1.002
2026/05/14 10:31:56.902,-0.052,0.082,1.006
2026/05/14 10:31:56.920,-0.053,0.086,1.004
2026/05/14 10:31:56.939,-0.051,0.083,1.004
2026/05/14 10:31:56.957,-0.054,0.083,1.005
2026/05/14 10:31:56.976,-0.05,0.079,1.004
2026/05/14 10:31:56.994,-0.056,0.084,1.005
2026/05/14 10:31:57.013,-0.055,0.082,1.0
2026/05/14 10:31:57.031,-0.054,0.088,1.006
2026/05/14 10:31:57.050,-0.053,0.083,1.003
2026/05/14 10:31:57.068,-0.056,0.083,1.004
2026/05/14 10:31:57.087,-0.053,0.079,1.0
2026/05/14 10:31:57.105,-0.053,0.083,1.004
2026/05/14 10:31:57.124,-0.055,0.082,1.002
2026/05/14 10:31:57.142,-0.052,0.085,1.004
2026/05/14 10:31:57.161,-0.052,0.082,1.007
2026/05/14 10:31:57.180,-0.052,0.086,1.006
2026/05/14 10:31:57.198,-0.052,0.084,1.007
2026/05/14 10:31:57.217,-0.054,0.08,1.001
2026/05/14 10:31:57.235,-0.053,0.084,1.003
2026/05/14 10:31:57.254,-0.056,0.088,1.008
2026/05/14 10:31:57.272,-0.054,0.085,1.005
2026/05/14 10:31:57.291,-0.053,0.086,1.003
2026/05/14 10:31:57.309,-0.054,0.083,1.006
2026/05/14 10:31:57.328,-0.056,0.085,1.005
2026/05/14 10:31:57.346,-0.052,0.085,1.004
2026/05/14 10:31:57.365,-0.051,0.084,1.003
2026/05/14 10:31:57.383,-0.053,0.084,1.005
2026/05/14 10:31:57.402,-0.052,0.083,1.007
2026/05/14 10:31:57.420,-0.052,0.083,1.004
2026/05/14 10:31:57.439,-0.05,0.083,1.003
2026/05/14 10:31:57.457,-0.051,0.085,1.002
2026/05/14 10:31:57.476,-0.054,0.086,1.006
2026/05/14 10:31:57.494,-0.053,0.085,1.002
2026/05/14 10:31:57.513,-0.054,0.083,1.003
2026/05/14 10:31:57.531,-0.054,0.085,1.004
2026/05/14 10:31:57.550,-0.05,0.087,1.003
2026/05/14 10:31:57.568,-0.056,0.083,1.008
2026/05/14 10:31:57.587,-0.05,0.084,1.003
2026/05/14 10:31:57.605,-0.053,0.085,1.001
2026/05/14 10:31:57.624,-0.049,0.082,1.003
2026/05/14 10:31:57.642,-0.053,0.081,1.003
2026/05/14 10:31:57.661,-0.054,0.085,1.004
2026/05/14 10:31:57.679,-0.055,0.088,1.003
2026/05/14 10:31:57.698,-0.053,0.086,1.004
2026/05/14 10:31:57.716,-0.055,0.081,1.006
2026/05/14 10:31:57.735,-0.054,0.083,1.003
2026/05/14 10:31:57.753,-0.051,0.084,1.001
2026/05/14 10:31:57.772,-0.05,0.086,1.002
2026/05/14 10:31:57.790,-0.052,0.084,0.999
2026/05/14 10:31:57.809,-0.056,0.083,1.007
2026/05/14 10:31:57.827,-0.054,0.08,1.002
2026/05/14 10:31:57.846,-0.055,0.087,1.003
2026/05/14 10:31:57.865,-0.052,0.086,1.004
2026/05/14 10:31:57.883,-0.056,0.084,1.003
2026/05/14 10:31:57.902,-0.054,0.082,1.002
2026/05/14 10:31:57.920,-0.054,0.082,1.002
2026/05/14 10:31:57.939,-0.051,0.082,1.005
2026/05/14 10:31:57.957,-0.051,0.087,1.002
2026/05/14 10:31:57.976,-0.053,0.087,1.006
2026/05/14 10:31:57.994,-0.054,0.079,1.005
2026/05/14 10:31:58.013,-0.053,0.087,1.003
2026/05/14 10:31:58.031,-0.054,0.083,1.003
2026/05/14 10:31:58.050,-0.055,0.086,1.005
2026/05/14 10:31:58.068,-0.051,0.088,1.005
2026/05/14 10:31:58.087,-0.055,0.084,1.001
2026/05/14 10:31:58.105,-0.053,0.087,1.004
2026/05/14 10:31:58.124,-0.054,0.081,1.003
2026/05/14 10:31:58.142,-0.048,0.084,1.002
2026/05/14 10:31:58.161,-0.049,0.087,1.002
2026/05/14 10:31:58.179,-0.054,0.083,1.007
2026/05/14 10:31:58.198,-0.05,0.085,0.998
2026/05/14 10:31:58.216,-0.053,0.08,1.009
2026/05/14 10:31:58.235,-0.053,0.082,1.003
2026/05/14 10:31:58.253,-0.055,0.082,1.004
2026/05/14 10:31:58.272,-0.056,0.083,1.004
2026/05/14 10:31:58.290,-0.051,0.085,1.008
2026/05/14 10:31:58.309,-0.053,0.086,1.003
2026/05/14 10:31:58.327,-0.052,0.087,0.999
2026/05/14 10:31:58.346,-0.051,0.084,1.006
2026/05/14 10:31:58.364,-0.055,0.085,1.008
2026/05/14 10:31:58.383,-0.052,0.083,1.003
2026/05/14 10:31:58.401,-0.048,0.087,1.011
2026/05/14 10:31:58.420,-0.052,0.085,1.001
2026/05/14 10:31:58.438,-0.053,0.084,1.005
2026/05/14 10:31:58.457,-0.052,0.086,1.004
2026/05/14 10:31:58.475,-0.052,0.084,1.006
2026/05/14 10:31:58.494,-0.049,0.08,1.001
2026/05/14 10:31:58.512,-0.054,0.083,1.005
2026/05/14 10:31:58.531,-0.055,0.088,1.004
2026/05/14 10:31:58.550,-0.055,0.084,0.998
2026/05/14 10:31:58.568,-0.05,0.081,1.004
2026/05/14 10:31:58.587,-0.055,0.084,1.002
2026/05/14 10:31:58.605,-0.051,0.081,1.007
2026/05/14 10:31:58.624,-0.056,0.081,1.004
2026/05/14 10:31:58.642,-0.052,0.085,1.006
2026/05/14 10:31:58.661,-0.051,0.084,1.005
2026/05/14 10:31:58.679,-0.053,0.085,1.002
2026/05/14 10:31:58.698,-0.053,0.083,1.004
2026/05/14 10:31:58.716,-0.053,0.085,1.005
2026/05/14 10:31:58.735,-0.056,0.085,0.998
2026/05/14 10:31:58.753,-0.057,0.083,1.003
2026/05/14 10:31:58.772,-0.051,0.086,1.007
2026/05/14 10:31:58.790,-0.053,0.082,1.001
2026/05/14 10:31:58.809,-0.054,0.086,1.001
2026/05/14 10:31:58.827,-0.053,0.085,1.004
2026/05/14 10:31:58.846,-0.055,0.084,1.003
2026/05/14 10:31:58.864,-0.053,0.084,1.005
2026/05/14 10:31:58.883,-0.053,0.084,1.003
2026/05/14 10:31:58.901,-0.053,0.082,1.003
2026/05/14 10:31:58.920,-0.053,0.084,1.002
2026/05/14 10:31:58.938,-0.054,0.087,1.006
2026/05/14 10:31:58.957,-0.053,0.084,1.002
2026/05/14 10:31:58.975,-0.05,0.087,1.006
2026/05/14 10:31:58.994,-0.049,0.088,1.002
2026/05/14 10:31:59.012,-0.058,0.081,1.0
2026/05/14 10:31:59.031,-0.052,0.083,1.003
2026/05/14 10:31:59.049,-0.055,0.084,1.003
2026/05/14 10:31:59.068,-0.054,0.085,1.005
2026/05/14 10:31:59.086,-0.053,0.084,1.005
2026/05/14 10:31:59.105,-0.056,0.089,1.003
2026/05/14 10:31:59.123,-0.058,0.079,1.005
2026/05/14 10:31:59.142,-0.057,0.083,1.002
2026/05/14 10:31:59.160,-0.053,0.087,1.006
2026/05/14 10:31:59.179,-0.056,0.087,1.003
2026/05/14 10:31:59.198,-0.057,0.084,1.003
2026/05/14 10:31:59.216,-0.05,0.087,1.007
2026/05/14 10:31:59.235,-0.05,0.082,1.003
2026/05/14 10:31:59.253,-0.051,0.088,1.0
2026/05/14 10:31:59.272,-0.052,0.083,1.006
2026/05/14 10:31:59.290,-0.056,0.084,1.004
2026/05/14 10:31:59.309,-0.055,0.084,1.007
2026/05/14 10:31:59.327,-0.053,0.081,1.007
2026/05/14 10:31:59.346,-0.053,0.085,1.004
2026/05/14 10:31:59.364,-0.056,0.086,1.003
2026/05/14 10:31:59.383,-0.053,0.085,1.004
2026/05/14 10:31:59.401,-0.057,0.085,1.006
2026/05/14 10:31:59.420,-0.051,0.081,1.004
2026/05/14 10:31:59.438,-0.051,0.082,1.004
2026/05/14 10:31:59.457,-0.053,0.081,1.007
2026/05/14 10:31:59.475,-0.055,0.082,1.0
2026/05/14 10:31:59.494,-0.052,0.089,1.006
2026/05/14 10:31:59.512,-0.05,0.087,1.004
2026/05/14 10:31:59.531,-0.053,0.087,1.004
2026/05/14 10:31:59.549,-0.053,0.088,1.005
2026/05/14 10:31:59.568,-0.051,0.085,1.006
2026/05/14 10:31:59.586,-0.054,0.083,1.005
2026/05/14 10:31:59.605,-0.051,0.088,1.008
2026/05/14 10:31:59.623,-0.056,0.085,1.006
2026/05/14 10:31:59.642,-0.055,0.082,1.001
2026/05/14 10:31:59.660,-0.055,0.083,1.005
2026/05/14 10:31:59.679,-0.052,0.083,1.006
2026/05/14 10:31:59.697,-0.052,0.083,1.004
2026/05/14 10:31:59.716,-0.056,0.085,1.002
2026/05/14 10:31:59.734,-0.051,0.084,1.001
2026/05/14 10:31:59.753,-0.052,0.083,1.003
2026/05/14 10:31:59.771,-0.053,0.081,1.006
2026/05/14 10:31:59.790,-0.055,0.085,1.005
2026/05/14 10:31:59.808,-0.056,0.082,1.005
2026/05/14 10:31:59.827,-0.051,0.088,1.005
2026/05/14 10:31:59.846,-0.053,0.084,1.002
2026/05/14 10:31:59.864,-0.052,0.087,1.006
2026/05/14 10:31:59.883,-0.052,0.084,1.005
2026/05/14 10:31:59.901,-0.056,0.087,1.008
2026/05/14 10:31:59.920,-0.054,0.088,1.003
2026/05/14 10:31:59.938,-0.051,0.087,1.004
2026/05/14 10:31:59.957,-0.055,0.083,1.005
2026/05/14 10:31:59.975,-0.051,0.083,1.001
2026/05/14 10:31:59.994,-0.053,0.081,1.003
2026/05/14 10:32:00.012,-0.052,0.086,1.005
2026/05/14 10:32:00.031,-0.056,0.085,1.003
2026/05/14 10:32:00.049,-0.054,0.082,1.006
2026/05/14 10:32:00.068,-0.051,0.089,1.003
2026/05/14 10:32:00.086,-0.053,0.084,1.006
2026/05/14 10:32:00.105,-0.053,0.085,1.0
2026/05/14 10:32:00.123,-0.053,0.084,1.0
2026/05/14 10:32:00.142,-0.056,0.086,1.005
2026/05/14 10:32:00.160,-0.053,0.084,0.997
2026/05/14 10:32:00.179,-0.054,0.085,1.004
2026/05/14 10:32:00.197,-0.05,0.084,1.003
2026/05/14 10:32:00.216,-0.051,0.083,1.008
2026/05/14 10:32:00.234,-0.05,0.085,1.004
2026/05/14 10:32:00.253,-0.053,0.081,1.003
2026/05/14 10:32:00.271,-0.054,0.081,0.998
2026/05/14 10:32:00.290,-0.053,0.085,1.005
2026/05/14 10:32:00.308,-0.053,0.087,1.004
2026/05/14 10:32:00.327,-0.05,0.086,1.006
2026/05/14 10:32:00.345,-0.054,0.082,1.003
2026/05/14 10:32:00.364,-0.056,0.085,1.004
2026/05/14 10:32:00.382,-0.056,0.083,1.004
2026/05/14 10:32:00.401,-0.055,0.086,1.007
2026/05/14 10:32:00.419,-0.054,0.085,0.997
2026/05/14 10:32:00.438,-0.054,0.083,1.005
2026/05/14 10:32:00.457,-0.056,0.085,1.003
2026/05/14 10:32:00.475,-0.05,0.082,1.008
2026/05/14 10:32:00.494,-0.052,0.083,1.003
2026/05/14 10:32:00.512,-0.055,0.085,1.003
2026/05/14 10:32:00.531,-0.054,0.086,1.006
2026/05/14 10:32:00.549,-0.054,0.08,1.004
2026/05/14 10:32:00.568,-0.051,0.086,1.006
2026/05/14 10:32:00.586,-0.051,0.086,1.004
2026/05/14 10:32:00.605,-0.054,0.086,1.003
2026/05/14 10:32:00.623,-0.053,0.085,1.003
2026/05/14 10:32:00.642,-0.053,0.087,1.008
2026/05/14 10:32:00.660,-0.05,0.08,1.004
2026/05/14 10:32:00.679,-0.054,0.084,1.002
2026/05/14 10:32:00.697,-0.056,0.087,1.003
2026/05/14 10:32:00.716,-0.053,0.084,1.005
2026/05/14 10:32:00.734,-0.054,0.084,1.005
2026/05/14 10:32:00.753,-0.053,0.084,1.007
2026/05/14 10:32:00.771,-0.055,0.079,1.003
2026/05/14 10:32:00.790,-0.052,0.084,1.002
2026/05/14 10:32:00.808,-0.057,0.084,1.003
2026/05/14 10:32:00.827,-0.054,0.081,1.007
2026/05/14 10:32:00.845,-0.049,0.087,1.005
2026/05/14 10:32:00.864,-0.053,0.083,1.0
2026/05/14 10:32:00.882,-0.057,0.08,1.006
2026/05/14 10:32:00.901,-0.05,0.081,1.004
2026/05/14 10:32:00.919,-0.052,0.086,1.004
2026/05/14 10:32:00.938,-0.057,0.082,1.002
2026/05/14 10:32:00.956,-0.056,0.083,1.005
2026/05/14 10:32:00.975,-0.054,0.085,1.003
2026/05/14 10:32:00.993,-0.053,0.084,1.006
2026/05/14 10:32:01.012,-0.052,0.08,1.0
2026/05/14 10:32:01.030,-0.055,0.084,1.001
2026/05/14 10:32:01.049,-0.055,0.084,1.001
2026/05/14 10:32:01.068,-0.054,0.085,1.002
2026/05/14 10:32:01.086,-0.056,0.082,1.004
2026/05/14 10:32:01.105,-0.056,0.088,1.005
2026/05/14 10:32:01.123,-0.052,0.082,1.004
2026/05/14 10:32:01.142,-0.052,0.081,1.001
2026/05/14 10:32:01.160,-0.052,0.085,0.998
2026/05/14 10:32:01.179,-0.053,0.085,1.004
2026/05/14 10:32:01.197,-0.056,0.085,1.005
2026/05/14 10:32:01.216,-0.053,0.087,1.003
2026/05/14 10:32:01.234,-0.051,0.083,1.003
2026/05/14 10:32:01.253,-0.051,0.087,1.001
2026/05/14 10:32:01.271,-0.05,0.081,1.002
2026/05/14 10:32:01.290,-0.052,0.084,1.003
2026/05/14 10:32:01.308,-0.056,0.085,1.004
2026/05/14 10:32:01.327,-0.053,0.086,1.005
2026/05/14 10:32:01.345,-0.057,0.086,1.004
2026/05/14 10:32:01.364,-0.049,0.084,1.002
2026/05/14 10:32:01.382,-0.055,0.081,1.004
2026/05/14 10:32:01.401,-0.054,0.084,1.002
2026/05/14 10:32:01.419,-0.054,0.084,1.002
2026/05/14 10:32:01.438,-0.054,0.084,1.007
2026/05/14 10:32:01.456,-0.052,0.088,1.007
2026/05/14 10:32:01.475,-0.056,0.084,1.004
2026/05/14 10:32:01.493,-0.051,0.085,1.005
2026/05/14 10:32:01.512,-0.053,0.081,1.005
2026/05/14 10:32:01.530,-0.057,0.084,1.006
2026/05/14 10:32:01.549,-0.048,0.087,1.005
2026/05/14 10:32:01.567,-0.055,0.079,1.001
2026/05/14 10:32:01.586,-0.055,0.083,1.003
2026/05/14 10:32:01.604,-0.051,0.084,1.005
2026/05/14 10:32:01.623,-0.053,0.085,1.002
2026/05/14 10:32:01.641,-0.053,0.083,1.005
2026/05/14 10:32:01.660,-0.054,0.089,1.002
2026/05/14 10:32:01.678,-0.053,0.086,1.003
2026/05/14 10:32:01.697,-0.052,0.087,1.003
2026/05/14 10:32:01.716,-0.053,0.085,1.0
2026/05/14 10:32:01.734,-0.054,0.084,1.004
2026/05/14 10:32:01.753,-0.051,0.084,1.006
2026/05/14 10:32:01.771,-0.055,0.085,1.004
2026/05/14 10:32:01.790,-0.053,0.085,1.006
2026/05/14 10:32:01.808,-0.05,0.084,1.002
2026/05/14 10:32:01.827,-0.054,0.083,1.002
2026/05/14 10:32:01.845,-0.05,0.082,1.003
2026/05/14 10:32:01.864,-0.052,0.084,1.004
2026/05/14 10:32:01.882,-0.051,0.09,1.008
2026/05/14 10:32:01.901,-0.052,0.085,1.006
2026/05/14 10:32:01.919,-0.052,0.082,1.003
2026/05/14 10:32:01.938,-0.055,0.087,1.003
2026/05/14 10:32:01.956,-0.056,0.082,1.0
2026/05/14 10:32:01.975,-0.054,0.085,1.008
2026/05/14 10:32:01.993,-0.056,0.083,1.007
2026/05/14 10:32:02.012,-0.055,0.082,1.007
2026/05/14 10:32:02.030,-0.051,0.085,1.004
2026/05/14 10:32:02.049,-0.054,0.087,1.006
2026/05/14 10:32:02.067,-0.055,0.088,1.002
2026/05/14 10:32:02.086,-0.052,0.085,1.0
2026/05/14 10:32:02.104,-0.054,0.085,1.004
2026/05/14 10:32:02.123,-0.053,0.082,1.008
2026/05/14 10:32:02.141,-0.051,0.085,1.009
2026/05/14 10:32:02.160,-0.055,0.086,1.001
2026/05/14 10:32:02.178,-0.053,0.084,1.002
2026/05/14 10:32:02.197,-0.055,0.087,1.001
2026/05/14 10:32:02.215,-0.054,0.087,1.004
2026/05/14 10:32:02.234,-0.054,0.081,1.0
2026/05/14 10:32:02.252,-0.055,0.084,1.005
2026/05/14 10:32:02.271,-0.052,0.08,1.008
2026/05/14 10:32:02.289,-0.051,0.085,1.005
2026/05/14 10:32:02.308,-0.055,0.086,1.001
2026/05/14 10:32:02.327,-0.052,0.086,1.002
2026/05/14 10:32:02.345,-0.055,0.078,1.004
2026/05/14 10:32:02.364,-0.052,0.082,1.003
2026/05/14 10:32:02.382,-0.055,0.089,1.002
2026/05/14 10:32:02.401,-0.055,0.083,1.006
2026/05/14 10:32:02.419,-0.052,0.084,1.009
2026/05/14 10:32:02.438,-0.053,0.081,1.0
2026/05/14 10:32:02.456,-0.054,0.084,1.004
2026/05/14 10:32:02.475,-0.052,0.085,1.005
2026/05/14 10:32:02.493,-0.056,0.086,1.007
2026/05/14 10:32:02.512,-0.053,0.082,1.002
2026/05/14 10:32:02.530,-0.053,0.083,1.003
2026/05/14 10:32:02.549,-0.053,0.084,1.0
2026/05/14 10:32:02.567,-0.055,0.089,1.004
2026/05/14 10:32:02.586,-0.049,0.087,1.006
2026/05/14 10:32:02.604,-0.055,0.084,1.005
2026/05/14 10:32:02.623,-0.051,0.084,1.006
2026/05/14 10:32:02.641,-0.056,0.085,1.007
2026/05/14 10:32:02.660,-0.057,0.082,1.007
2026/05/14 10:32:02.678,-0.051,0.087,1.009
2026/05/14 10:32:02.697,-0.053,0.086,1.002
2026/05/14 10:32:02.715,-0.055,0.086,1.003
2026/05/14 10:32:02.734,-0.057,0.083,1.004
2026/05/14 10:32:02.752,-0.051,0.084,1.003
2026/05/14 10:32:02.771,-0.053,0.082,1.006
2026/05/14 10:32:02.789,-0.051,0.085,1.006
2026/05/14 10:32:02.808,-0.052,0.088,1.006
2026/05/14 10:32:02.826,-0.052,0.084,1.0
2026/05/14 10:32:02.845,-0.051,0.081,1.007
2026/05/14 10:32:02.863,-0.051,0.085,1.004
2026/05/14 10:32:02.882,-0.053,0.082,1.003
2026/05/14 10:32:02.900,-0.055,0.08,1.001
2026/05/14 10:32:02.919,-0.056,0.084,1.008
2026/05/14 10:32:02.938,-0.056,0.084,1.008
2026/05/14 10:32:02.956,-0.052,0.084,1.003
2026/05/14 10:32:02.975,-0.052,0.081,0.998
2026/05/14 10:32:02.993,-0.053,0.088,1.004
2026/05/14 10:32:03.012,-0.049,0.085,1.007
2026/05/14 10:32:03.030,-0.056,0.085,1.003
2026/05/14 10:32:03.049,-0.051,0.085,1.002
2026/05/14 10:32:03.067,-0.052,0.084,1.003
2026/05/14 10:32:03.086,-0.048,0.085,1.004
2026/05/14 10:32:03.104,-0.053,0.084,1.005
2026/05/14 10:32:03.123,-0.051,0.085,1.005
2026/05/14 10:32:03.141,-0.055,0.088,1.001
2026/05/14 10:32:03.160,-0.054,0.085,1.002
2026/05/14 10:32:03.178,-0.056,0.084,1.003
2026/05/14 10:32:03.197,-0.053,0.08,1.001
2026/05/14 10:32:03.215,-0.056,0.087,1.001
2026/05/14 10:32:03.234,-0.052,0.087,1.005
2026/05/14 10:32:03.252,-0.054,0.083,1.002
2026/05/14 10:32:03.271,-0.055,0.086,1.008
2026/05/14 10:32:03.289,-0.054,0.087,1.003
2026/05/14 10:32:03.308,-0.054,0.081,1.002
2026/05/14 10:32:03.326,-0.053,0.083,1.004
2026/05/14 10:32:03.345,-0.052,0.084,1.004
2026/05/14 10:32:03.363,-0.048,0.085,1.006
2026/05/14 10:32:03.382,-0.055,0.084,1.008
2026/05/14 10:32:03.400,-0.054,0.085,1.006
2026/05/14 10:32:03.419,-0.053,0.087,1.007
2026/05/14 10:32:03.437,-0.055,0.088,1.004
2026/05/14 10:32:03.456,-0.052,0.083,1.004
2026/05/14 10:32:03.474,-0.052,0.082,1.004
2026/05/14 10:32:03.493,-0.054,0.081,1.007
2026/05/14 10:32:03.511,-0.052,0.083,1.007
2026/05/14 10:32:03.530,-0.054,0.083,1.006
2026/05/14 10:32:03.549,-0.052,0.087,1.002
2026/05/14 10:32:03.567,-0.05,0.084,1.0
2026/05/14 10:32:03.586,-0.055,0.084,1.001
2026/05/14 10:32:03.604,-0.054,0.09,1.001
2026/05/14 10:32:03.623,-0.054,0.08,1.006
2026/05/14 10:32:03.641,-0.049,0.085,0.998
2026/05/14 10:32:03.660,-0.053,0.083,1.006
2026/05/14 10:32:03.678,-0.054,0.084,1.005
2026/05/14 10:32:03.697,-0.055,0.079,1.001
2026/05/14 10:32:03.715,-0.056,0.082,1.003
2026/05/14 10:32:03.734,-0.051,0.086,1.0
2026/05/14 10:32:03.752,-0.054,0.086,1.005
2026/05/14 10:32:03.771,-0.051,0.084,1.008
2026/05/14 10:32:03.789,-0.053,0.084,1.006
2026/05/14 10:32:03.808,-0.053,0.086,1.003
2026/05/14 10:32:03.826,-0.053,0.084,1.004
2026/05/14 10:32:03.845,-0.057,0.083,1.005
2026/05/14 10:32:03.863,-0.052,0.084,1.006
2026/05/14 10:32:03.882,-0.048,0.083,1.005
2026/05/14 10:32:03.900,-0.053,0.089,1.005
2026/05/14 10:32:03.919,-0.052,0.086,1.004
2026/05/14 10:32:03.937,-0.048,0.086,1.002
2026/05/14 10:32:03.956,-0.054,0.083,1.005
2026/05/14 10:32:03.974,-0.054,0.084,1.001
2026/05/14 10:32:03.993,-0.053,0.086,1.005
2026/05/14 10:32:04.011,-0.054,0.087,1.002
2026/05/14 10:32:04.030,-0.051,0.084,1.003
2026/05/14 10:32:04.048,-0.054,0.085,1.006
2026/05/14 10:32:04.067,-0.05,0.085,1.003
2026/05/14 10:32:04.085,-0.055,0.087,1.004
2026/05/14 10:32:04.104,-0.053,0.09,1.001
2026/05/14 10:32:04.122,-0.052,0.084,1.004
2026/05/14 10:32:04.141,-0.046,0.082,1.003
2026/05/14 10:32:04.159,-0.054,0.086,1.003
2026/05/14 10:32:04.178,-0.056,0.085,1.003
2026/05/14 10:32:04.197,-0.052,0.085,1.003
2026/05/14 10:32:04.215,-0.051,0.086,1.002
2026/05/14 10:32:04.234,-0.054,0.087,1.004
2026/05/14 10:32:04.252,-0.056,0.083,1.005
2026/05/14 10:32:04.271,-0.053,0.082,1.005
2026/05/14 10:32:04.289,-0.052,0.088,1.001
2026/05/14 10:32:04.308,-0.054,0.085,1.003
2026/05/14 10:32:04.326,-0.054,0.09,1.002
2026/05/14 10:32:04.345,-0.053,0.084,1.005
2026/05/14 10:32:04.363,-0.051,0.086,1.005
2026/05/14 10:32:04.382,-0.052,0.082,1.003
2026/05/14 10:32:04.400,-0.053,0.087,1.003
2026/05/14 10:32:04.419,-0.053,0.083,1.004
2026/05/14 10:32:04.437,-0.05,0.089,1.003
2026/05/14 10:32:04.456,-0.054,0.083,1.005
2026/05/14 10:32:04.474,-0.053,0.086,1.002
2026/05/14 10:32:04.493,-0.051,0.083,1.0
2026/05/14 10:32:04.511,-0.052,0.084,1.007
2026/05/14 10:32:04.530,-0.056,0.08,1.004
2026/05/14 10:32:04.548,-0.055,0.086,1.004
2026/05/14 10:32:04.567,-0.054,0.08,1.003
2026/05/14 10:32:04.585,-0.053,0.086,1.007
2026/05/14 10:32:04.604,-0.052,0.086,0.999
2026/05/14 10:32:04.622,-0.052,0.081,1.004
2026/05/14 10:32:04.641,-0.053,0.082,1.002
2026/05/14 10:32:04.659,-0.049,0.081,1.004
2026/05/14 10:32:04.678,-0.052,0.083,1.005
2026/05/14 10:32:04.696,-0.05,0.085,1.006
2026/05/14 10:32:04.715,-0.05,0.086,1.005
2026/05/14 10:32:04.733,-0.055,0.084,1.004
2026/05/14 10:32:04.752,-0.055,0.088,1.004
2026/05/14 10:32:04.770,-0.051,0.079,1.004
2026/05/14 10:32:04.789,-0.052,0.085,1.004
2026/05/14 10:32:04.807,-0.054,0.087,1.004
2026/05/14 10:32:04.826,-0.051,0.087,1.004
2026/05/14 10:32:04.844,-0.052,0.083,1.002
2026/05/14 10:32:04.863,-0.056,0.079,1.003
2026/05/14 10:32:04.882,-0.053,0.084,1.002
2026/05/14 10:32:04.900,-0.056,0.085,1.007
2026/05/14 10:32:04.919,-0.055,0.087,1.003
2026/05/14 10:32:04.937,-0.053,0.086,1.005
2026/05/14 10:32:04.956,-0.053,0.085,1.003
2026/05/14 10:32:04.974,-0.052,0.081,1.005
2026/05/14 10:32:04.993,-0.057,0.086,1.002
2026/05/14 10:32:05.011,-0.051,0.083,1.003
2026/05/14 10:32:05.030,-0.05,0.084,1.01
2026/05/14 10:32:05.048,-0.057,0.081,1.004
2026/05/14 10:32:05.067,-0.055,0.082,1.004
2026/05/14 10:32:05.085,-0.053,0.083,1.005
2026/05/14 10:32:05.104,-0.056,0.083,1.006
2026/05/14 10:32:05.122,-0.055,0.082,1.003
2026/05/14 10:32:05.141,-0.051,0.084,1.003
2026/05/14 10:32:05.159,-0.055,0.084,1.006
2026/05/14 10:32:05.178,-0.052,0.081,1.003
2026/05/14 10:32:05.196,-0.054,0.084,1.008
2026/05/14 10:32:05.215,-0.056,0.081,1.003
2026/05/14 10:32:05.233,-0.053,0.086,1.005
2026/05/14 10:32:05.252,-0.058,0.084,1.006
2026/05/14 10:32:05.270,-0.055,0.086,1.003
2026/05/14 10:32:05.289,-0.055,0.085,1.003
2026/05/14 10:32:05.307,-0.055,0.085,1.003
2026/05/14 10:32:05.326,-0.055,0.084,1.003
2026/05/14 10:32:05.344,-0.053,0.085,1.006
2026/05/14 10:32:05.363,-0.054,0.084,1.007
2026/05/14 10:32:05.381,-0.055,0.085,1.005
2026/05/14 10:32:05.400,-0.053,0.083,1.006
2026/05/14 10:32:05.418,-0.051,0.084,1.005
2026/05/14 10:32:05.437,-0.054,0.086,1.004
2026/05/14 10:32:05.455,-0.055,0.087,1.006
2026/05/14 10:32:05.474,-0.052,0.085,1.0
2026/05/14 10:32:05.492,-0.058,0.08,1.005
2026/05/14 10:32:05.511,-0.048,0.085,1.005
2026/05/14 10:32:05.529,-0.051,0.087,1.002
2026/05/14 10:32:05.548,-0.054,0.084,1.007
2026/05/14 10:32:05.566,-0.05,0.084,1.005
2026/05/14 10:32:05.585,-0.056,0.087,1.002
2026/05/14 10:32:05.604,-0.054,0.085,1.007
2026/05/14 10:32:05.622,-0.053,0.081,1.005
2026/05/14 10:32:05.641,-0.054,0.084,1.006
2026/05/14 10:32:05.659,-0.051,0.089,1.005
2026/05/14 10:32:05.678,-0.052,0.081,1.001
2026/05/14 10:32:05.696,-0.057,0.084,1.005
2026/05/14 10:32:05.715,-0.053,0.084,1.008
2026/05/14 10:32:05.733,-0.05,0.086,1.004
2026/05/14 10:32:05.752,-0.049,0.082,1.003
2026/05/14 10:32:05.770,-0.056,0.079,1.005
2026/05/14 10:32:05.789,-0.055,0.084,1.005
2026/05/14 10:32:05.807,-0.058,0.083,1.001
2026/05/14 10:32:05.826,-0.05,0.087,1.008
2026/05/14 10:32:05.844,-0.051,0.089,1.001
2026/05/14 10:32:05.863,-0.054,0.083,1.007
2026/05/14 10:32:05.881,-0.053,0.088,1.005
2026/05/14 10:32:05.900,-0.054,0.085,1.003
2026/05/14 10:32:05.918,-0.05,0.087,1.006
2026/05/14 10:32:05.937,-0.051,0.083,1.003
2026/05/14 10:32:05.955,-0.05,0.085,1.004
2026/05/14 10:32:05.974,-0.052,0.084,1.002
2026/05/14 10:32:05.992,-0.051,0.082,1.005
2026/05/14 10:32:06.011,-0.052,0.085,1.005
2026/05/14 10:32:06.029,-0.055,0.084,1.0
2026/05/14 10:32:06.048,-0.054,0.079,1.004
2026/05/14 10:32:06.066,-0.053,0.085,1.005
2026/05/14 10:32:06.085,-0.051,0.086,1.003
2026/05/14 10:32:06.103,-0.056,0.08,1.003
2026/05/14 10:32:06.122,-0.054,0.084,1.005
2026/05/14 10:32:06.140,-0.052,0.083,1.001
2026/05/14 10:32:06.159,-0.052,0.084,1.0
2026/05/14 10:32:06.177,-0.057,0.087,1.002
2026/05/14 10:32:06.196,-0.054,0.085,1.004
2026/05/14 10:32:06.214,-0.056,0.082,1.005
2026/05/14 10:32:06.233,-0.054,0.082,1.006
2026/05/14 10:32:06.251,-0.054,0.086,1.003
2026/05/14 10:32:06.270,-0.055,0.087,1.005
2026/05/14 10:32:06.289,-0.051,0.088,1.007
2026/05/14 10:32:06.307,-0.054,0.086,1.003
2026/05/14 10:32:06.326,-0.053,0.082,1.004
2026/05/14 10:32:06.344,-0.05,0.084,1.004
2026/05/14 10:32:06.363,-0.053,0.086,1.001
2026/05/14 10:32:06.381,-0.056,0.082,1.007
2026/05/14 10:32:06.400,-0.052,0.084,1.002
2026/05/14 10:32:06.418,-0.057,0.08,1.004
2026/05/14 10:32:06.437,-0.056,0.081,1.005
2026/05/14 10:32:06.455,-0.053,0.085,1.009
2026/05/14 10:32:06.474,-0.053,0.086,1.008
2026/05/14 10:32:06.492,-0.051,0.089,1.005
2026/05/14 10:32:06.511,-0.053,0.084,1.001
2026/05/14 10:32:06.529,-0.052,0.086,1.007
2026/05/14 10:32:06.548,-0.056,0.088,1.007
2026/05/14 10:32:06.566,-0.051,0.082,1.004
2026/05/14 10:32:06.585,-0.053,0.082,1.007
2026/05/14 10:32:06.603,-0.055,0.082,1.005
2026/05/14 10:32:06.622,-0.053,0.083,1.005
2026/05/14 10:32:06.640,-0.054,0.083,1.005
2026/05/14 10:32:06.659,-0.052,0.08,1.005
2026/05/14 10:32:06.677,-0.055,0.087,1.002
2026/05/14 10:32:06.696,-0.053,0.083,1.003
2026/05/14 10:32:06.714,-0.051,0.081,1.0
2026/05/14 10:32:06.733,-0.054,0.082,1.005
2026/05/14 10:32:06.751,-0.055,0.084,1.009
2026/05/14 10:32:06.770,-0.051,0.082,1.004
2026/05/14 10:32:06.788,-0.054,0.087,1.001
2026/05/14 10:32:06.807,-0.055,0.083,1.002
2026/05/14 10:32:06.825,-0.056,0.087,1.004
2026/05/14 10:32:06.844,-0.053,0.084,1.003
2026/05/14 10:32:06.862,-0.049,0.085,1.005
2026/05/14 10:32:06.881,-0.05,0.086,1.007
2026/05/14 10:32:06.899,-0.053,0.082,1.004
2026/05/14 10:32:06.918,-0.053,0.085,1.004
2026/05/14 10:32:06.936,-0.047,0.083,1.003
2026/05/14 10:32:06.955,-0.055,0.078,1.003
2026/05/14 10:32:06.974,-0.055,0.086,1.006
2026/05/14 10:32:06.992,-0.051,0.088,1.005
2026/05/14 10:32:07.011,-0.051,0.085,1.004
2026/05/14 10:32:07.029,-0.054,0.081,1.002
2026/05/14 10:32:07.048,-0.054,0.085,1.004
2026/05/14 10:32:07.066,-0.056,0.082,1.004
2026/05/14 10:32:07.085,-0.055,0.087,1.006
2026/05/14 10:32:07.103,-0.052,0.085,1.002
2026/05/14 10:32:07.122,-0.053,0.086,1.009
2026/05/14 10:32:07.140,-0.052,0.081,1.004
2026/05/14 10:32:07.159,-0.056,0.082,0.999
2026/05/14 10:32:07.177,-0.049,0.084,1.001
2026/05/14 10:32:07.196,-0.049,0.08,1.004
2026/05/14 10:32:07.214,-0.054,0.081,1.002
2026/05/14 10:32:07.233,-0.056,0.085,1.005
2026/05/14 10:32:07.251,-0.05,0.084,1.004
2026/05/14 10:32:07.270,-0.054,0.081,1.001
2026/05/14 10:32:07.288,-0.05,0.084,1.003
2026/05/14 10:32:07.307,-0.057,0.082,1.006
2026/05/14 10:32:07.325,-0.048,0.083,1.002
2026/05/14 10:32:07.344,-0.052,0.087,1.003
2026/05/14 10:32:07.362,-0.053,0.083,1.005
2026/05/14 10:32:07.381,-0.055,0.084,1.004
2026/05/14 10:32:07.399,-0.052,0.083,1.001
2026/05/14 10:32:07.418,-0.054,0.08,1.005
2026/05/14 10:32:07.436,-0.053,0.088,1.005
2026/05/14 10:32:07.455,-0.054,0.084,1.003
2026/05/14 10:32:07.473,-0.052,0.081,1.004
2026/05/14 10:32:07.492,-0.053,0.085,1.002
2026/05/14 10:32:07.510,-0.055,0.083,1.003
2026/05/14 10:32:07.529,-0.053,0.086,1.003
2026/05/14 10:32:07.547,-0.054,0.087,1.001
2026/05/14 10:32:07.566,-0.056,0.084,1.008
2026/05/14 10:32:07.584,-0.055,0.081,1.007
2026/05/14 10:32:07.603,-0.056,0.083,1.005
2026/05/14 10:32:07.621,-0.048,0.088,1.001
2026/05/14 10:32:07.640,-0.048,0.086,1.004
2026/05/14 10:32:07.659,-0.055,0.087,1.001
2026/05/14 10:32:07.677,-0.057,0.084,1.002
2026/05/14 10:32:07.696,-0.054,0.084,1.005
2026/05/14 10:32:07.714,-0.055,0.082,1.0
2026/05/14 10:32:07.733,-0.054,0.086,1.002
2026/05/14 10:32:07.751,-0.053,0.087,1.002
2026/05/14 10:32:07.770,-0.058,0.084,1.008
2026/05/14 10:32:07.788,-0.056,0.083,1.005
2026/05/14 10:32:07.807,-0.049,0.084,1.004
2026/05/14 10:32:07.825,-0.053,0.085,1.003
2026/05/14 10:32:07.844,-0.053,0.085,1.004
2026/05/14 10:32:07.862,-0.055,0.085,1.002
2026/05/14 10:32:07.881,-0.053,0.089,1.004
2026/05/14 10:32:07.899,-0.052,0.083,1.003
2026/05/14 10:32:07.918,-0.05,0.082,1.004
2026/05/14 10:32:07.936,-0.056,0.083,1.004
2026/05/14 10:32:07.955,-0.051,0.083,1.003
2026/05/14 10:32:07.973,-0.053,0.083,1.002
2026/05/14 10:32:07.992,-0.053,0.084,1.003
2026/05/14 10:32:08.010,-0.054,0.084,1.005
2026/05/14 10:32:08.029,-0.051,0.084,1.003
2026/05/14 10:32:08.047,-0.055,0.083,1.005
2026/05/14 10:32:08.066,-0.053,0.08,1.006
2026/05/14 10:32:08.084,-0.055,0.082,1.001
2026/05/14 10:32:08.103,-0.051,0.084,1.003
2026/05/14 10:32:08.121,-0.048,0.087,1.002
2026/05/14 10:32:08.140,-0.052,0.084,1.004
2026/05/14 10:32:08.158,-0.054,0.088,1.009
2026/05/14 10:32:08.177,-0.053,0.083,1.004
2026/05/14 10:32:08.195,-0.055,0.083,1.007
2026/05/14 10:32:08.214,-0.05,0.086,1.005
2026/05/14 10:32:08.232,-0.053,0.085,1.006
2026/05/14 10:32:08.251,-0.052,0.084,1.006
2026/05/14 10:32:08.269,-0.056,0.084,1.006
2026/05/14 10:32:08.288,-0.053,0.08,1.007
2026/05/14 10:32:08.307,-0.05,0.082,1.003
2026/05/14 10:32:08.325,-0.051,0.08,1.004
2026/05/14 10:32:08.344,-0.052,0.084,1.006
2026/05/14 10:32:08.362,-0.053,0.085,1.007
2026/05/14 10:32:08.381,-0.055,0.079,1.003
2026/05/14 10:32:08.399,-0.053,0.083,1.003
2026/05/14 10:32:08.418,-0.052,0.083,1.006
2026/05/14 10:32:08.436,-0.053,0.084,1.004
2026/05/14 10:32:08.455,-0.055,0.084,1.004
2026/05/14 10:32:08.473,-0.054,0.089,1.002
2026/05/14 10:32:08.492,-0.049,0.083,1.005
2026/05/14 10:32:08.510,-0.048,0.082,0.998
2026/05/14 10:32:08.529,-0.054,0.084,1.003
2026/05/14 10:32:08.547,-0.051,0.089,1.006
2026/05/14 10:32:08.566,-0.056,0.085,1.003
2026/05/14 10:32:08.584,-0.055,0.08,1.005
2026/05/14 10:32:08.603,-0.055,0.086,1.004
2026/05/14 10:32:08.621,-0.049,0.088,1.005
2026/05/14 10:32:08.640,-0.052,0.084,1.0
2026/05/14 10:32:08.658,-0.054,0.085,1.003
2026/05/14 10:32:08.677,-0.055,0.083,1.004
2026/05/14 10:32:08.695,-0.056,0.085,1.0
2026/05/14 10:32:08.714,-0.052,0.082,1.002
2026/05/14 10:32:08.732,-0.049,0.079,1.007
2026/05/14 10:32:08.751,-0.054,0.083,1.002
2026/05/14 10:32:08.769,-0.057,0.084,1.004
2026/05/14 10:32:08.788,-0.055,0.083,1.006
2026/05/14 10:32:08.806,-0.053,0.086,1.003
2026/05/14 10:32:08.825,-0.051,0.084,1.007
2026/05/14 10:32:08.843,-0.056,0.087,1.005
2026/05/14 10:32:08.862,-0.051,0.087,1.003
2026/05/14 10:32:08.880,-0.051,0.084,1.002
2026/05/14 10:32:08.899,-0.053,0.086,1.004
2026/05/14 10:32:08.917,-0.055,0.086,1.002
2026/05/14 10:32:08.936,-0.052,0.084,1.007
2026/05/14 10:32:08.954,-0.054,0.086,1.005
2026/05/14 10:32:08.973,-0.056,0.084,1.002
2026/05/14 10:32:08.992,-0.055,0.082,1.005
2026/05/14 10:32:09.010,-0.057,0.084,1.005
2026/05/14 10:32:09.029,-0.053,0.084,1.002
2026/05/14 10:32:09.047,-0.056,0.085,1.004
2026/05/14 10:32:09.066,-0.053,0.088,1.001
2026/05/14 10:32:09.084,-0.049,0.085,1.007
2026/05/14 10:32:09.103,-0.055,0.082,1.007
2026/05/14 10:32:09.121,-0.049,0.084,1.01
2026/05/14 10:32:09.140,-0.05,0.081,1.003
2026/05/14 10:32:09.158,-0.053,0.085,1.007
2026/05/14 10:32:09.177,-0.054,0.086,1.001
2026/05/14 10:32:09.195,-0.055,0.081,1.002
2026/05/14 10:32:09.214,-0.052,0.081,1.002
2026/05/14 10:32:09.232,-0.056,0.087,1.004
2026/05/14 10:32:09.251,-0.051,0.086,1.004
2026/05/14 10:32:09.269,-0.054,0.085,1.005
2026/05/14 10:32:09.288,-0.051,0.08,1.004
2026/05/14 10:32:09.306,-0.054,0.084,1.007
2026/05/14 10:32:09.325,-0.055,0.082,1.003
2026/05/14 10:32:09.343,-0.053,0.081,1.006
2026/05/14 10:32:09.362,-0.049,0.082,1.005
2026/05/14 10:32:09.380,-0.054,0.084,1.001
2026/05/14 10:32:09.399,-0.052,0.081,1.009
2026/05/14 10:32:09.417,-0.054,0.083,1.002
2026/05/14 10:32:09.436,-0.054,0.084,1.005
2026/05/14 10:32:09.454,-0.054,0.084,1.005
2026/05/14 10:32:09.473,-0.054,0.085,1.004
2026/05/14 10:32:09.491,-0.051,0.083,1.006
2026/05/14 10:32:09.510,-0.056,0.083,1.005
2026/05/14 10:32:09.528,-0.051,0.082,1.002
2026/05/14 10:32:09.547,-0.052,0.082,1.006
2026/05/14 10:32:09.565,-0.052,0.084,1.005
2026/05/14 10:32:09.584,-0.054,0.085,1.003
2026/05/14 10:32:09.602,-0.054,0.084,1.002
2026/05/14 10:32:09.621,-0.057,0.089,1.004
2026/05/14 10:32:09.640,-0.053,0.084,1.003
2026/05/14 10:32:09.658,-0.053,0.083,1.006
2026/05/14 10:32:09.677,-0.051,0.086,1.004
2026/05/14 10:32:09.695,-0.05,0.085,1.005
2026/05/14 10:32:09.714,-0.056,0.079,1.004
2026/05/14 10:32:09.732,-0.053,0.085,1.005
2026/05/14 10:32:09.751,-0.049,0.083,1.004
2026/05/14 10:32:09.769,-0.054,0.082,1.007
2026/05/14 10:32:09.788,-0.05,0.087,1.001
2026/05/14 10:32:09.806,-0.051,0.084,1.006
2026/05/14 10:32:09.825,-0.05,0.087,1.004
2026/05/14 10:32:09.843,-0.056,0.082,1.004
2026/05/14 10:32:09.862,-0.054,0.086,1.002
2026/05/14 10:32:09.880,-0.057,0.087,1.005
2026/05/14 10:32:09.899,-0.052,0.083,1.006
2026/05/14 10:32:09.917,-0.053,0.083,1.005
2026/05/14 10:32:09.936,-0.054,0.085,1.004
2026/05/14 10:32:09.954,-0.054,0.085,1.002
2026/05/14 10:32:09.973,-0.054,0.083,1.008
2026/05/14 10:32:09.991,-0.054,0.082,1.006
2026/05/14 10:32:10.010,-0.052,0.085,1.003
2026/05/14 10:32:10.028,-0.057,0.086,1.007
2026/05/14 10:32:10.047,-0.051,0.082,1.002
2026/05/14 10:32:10.065,-0.053,0.084,1.002
2026/05/14 10:32:10.084,-0.053,0.08,1.004
2026/05/14 10:32:10.102,-0.052,0.083,1.004
2026/05/14 10:32:10.121,-0.055,0.085,1.001
2026/05/14 10:32:10.139,-0.048,0.082,1.005
2026/05/14 10:32:10.158,-0.057,0.088,1.002
2026/05/14 10:32:10.176,-0.053,0.087,1.008
2026/05/14 10:32:10.195,-0.056,0.085,1.006
2026/05/14 10:32:10.213,-0.055,0.083,1.002
2026/05/14 10:32:10.232,-0.052,0.087,1.007
2026/05/14 10:32:10.250,-0.054,0.085,1.005
2026/05/14 10:32:10.269,-0.048,0.083,1.004
2026/05/14 10:32:10.287,-0.053,0.081,1.002
2026/05/14 10:32:10.306,-0.056,0.083,1.001
2026/05/14 10:32:10.325,-0.054,0.086,1.007
2026/05/14 10:32:10.343,-0.052,0.084,1.003
2026/05/14 10:32:10.362,-0.054,0.086,1.008
2026/05/14 10:32:10.380,-0.053,0.088,1.006
2026/05/14 10:32:10.399,-0.053,0.084,1.003
2026/05/14 10:32:10.417,-0.055,0.083,1.005
2026/05/14 10:32:10.436,-0.054,0.082,1.003
2026/05/14 10:32:10.454,-0.052,0.09,1.004
2026/05/14 10:32:10.473,-0.056,0.089,1.007
2026/05/14 10:32:10.491,-0.051,0.083,1.007
2026/05/14 10:32:10.510,-0.053,0.084,1.004
2026/05/14 10:32:10.528,-0.046,0.081,1.007
2026/05/14 10:32:10.547,-0.053,0.082,1.005
2026/05/14 10:32:10.565,-0.052,0.087,1.004
2026/05/14 10:32:10.584,-0.054,0.086,1.003
2026/05/14 10:32:10.602,-0.052,0.087,1.006
2026/05/14 10:32:10.621,-0.05,0.083,1.005
2026/05/14 10:32:10.639,-0.051,0.082,1.005
2026/05/14 10:32:10.658,-0.051,0.085,1.005
2026/05/14 10:32:10.676,-0.054,0.085,1.005
2026/05/14 10:32:10.695,-0.052,0.086,1.002
2026/05/14 10:32:10.713,-0.053,0.082,1.004
2026/05/14 10:32:10.732,-0.052,0.082,1.002
2026/05/14 10:32:10.750,-0.051,0.085,1.005
2026/05/14 10:32:10.769,-0.051,0.087,1.007
2026/05/14 10:32:10.787,-0.055,0.087,1.004
2026/05/14 10:32:10.806,-0.052,0.082,1.002
2026/05/14 10:32:10.824,-0.056,0.085,1.002
2026/05/14 10:32:10.843,-0.055,0.085,1.004
2026/05/14 10:32:10.861,-0.054,0.084,1.001
2026/05/14 10:32:10.880,-0.055,0.083,1.004
2026/05/14 10:32:10.898,-0.054,0.085,1.004
2026/05/14 10:32:10.917,-0.052,0.084,1.005
2026/05/14 10:32:10.935,-0.052,0.084,1.002
2026/05/14 10:32:10.954,-0.056,0.083,1.003
2026/05/14 10:32:10.972,-0.056,0.085,1.004
2026/05/14 10:32:10.991,-0.053,0.087,1.003
2026/05/14 10:32:11.010,-0.057,0.084,1.005
2026/05/14 10:32:11.028,-0.05,0.082,1.005
2026/05/14 10:32:11.047,-0.051,0.084,1.003
2026/05/14 10:32:11.065,-0.052,0.084,1.003
2026/05/14 10:32:11.084,-0.052,0.086,1.0
2026/05/14 10:32:11.102,-0.054,0.084,1.004
2026/05/14 10:32:11.121,-0.053,0.082,1.002
2026/05/14 10:32:11.139,-0.052,0.088,1.002
2026/05/14 10:32:11.158,-0.054,0.083,1.006
2026/05/14 10:32:11.176,-0.054,0.088,1.003
2026/05/14 10:32:11.195,-0.054,0.084,1.001
2026/05/14 10:32:11.213,-0.054,0.085,1.006
2026/05/14 10:32:11.232,-0.058,0.085,1.006
2026/05/14 10:32:11.250,-0.053,0.085,1.002
2026/05/14 10:32:11.269,-0.052,0.081,1.005
2026/05/14 10:32:11.287,-0.053,0.082,1.001
2026/05/14 10:32:11.306,-0.053,0.083,1.003
2026/05/14 10:32:11.324,-0.051,0.086,1.003
2026/05/14 10:32:11.343,-0.052,0.084,1.008
2026/05/14 10:32:11.361,-0.052,0.084,1.005
2026/05/14 10:32:11.380,-0.053,0.084,1.002
2026/05/14 10:32:11.398,-0.053,0.088,1.005
2026/05/14 10:32:11.417,-0.055,0.086,1.004
2026/05/14 10:32:11.435,-0.053,0.081,1.004
2026/05/14 10:32:11.454,-0.054,0.081,1.003
2026/05/14 10:32:11.472,-0.052,0.084,1.004
2026/05/14 10:32:11.491,-0.055,0.083,1.002
2026/05/14 10:32:11.509,-0.054,0.087,1.005
2026/05/14 10:32:11.528,-0.051,0.086,1.004
2026/05/14 10:32:11.546,-0.053,0.085,1.003
2026/05/14 10:32:11.565,-0.052,0.088,1.007
2026/05/14 10:32:11.583,-0.053,0.086,1.002
2026/05/14 10:32:11.602,-0.051,0.086,1.005
2026/05/14 10:32:11.620,-0.054,0.088,1.006
2026/05/14 10:32:11.639,-0.052,0.085,1.007
2026/05/14 10:32:11.658,-0.051,0.085,1.004
2026/05/14 10:32:11.676,-0.055,0.084,1.0
2026/05/14 10:32:11.695,-0.056,0.084,1.003
2026/05/14 10:32:11.713,-0.054,0.082,1.005
2026/05/14 10:32:11.732,-0.049,0.085,1.006
2026/05/14 10:32:11.750,-0.052,0.084,1.003
2026/05/14 10:32:11.769,-0.055,0.082,1.004
2026/05/14 10:32:11.787,-0.053,0.084,1.005
2026/05/14 10:32:11.806,-0.057,0.083,1.003
2026/05/14 10:32:11.824,-0.054,0.084,1.006
2026/05/14 10:32:11.843,-0.052,0.083,1.004
2026/05/14 10:32:11.861,-0.051,0.084,1.005
2026/05/14 10:32:11.880,-0.056,0.087,0.999
2026/05/14 10:32:11.898,-0.054,0.087,1.004
2026/05/14 10:32:11.917,-0.053,0.088,1.002
2026/05/14 10:32:11.935,-0.057,0.086,1.009
2026/05/14 10:32:11.954,-0.052,0.082,1.003
2026/05/14 10:32:11.972,-0.052,0.088,1.003
2026/05/14 10:32:11.991,-0.051,0.085,1.004
2026/05/14 10:32:12.009,-0.057,0.084,1.003
2026/05/14 10:32:12.028,-0.054,0.087,1.004
2026/05/14 10:32:12.046,-0.055,0.084,1.004
2026/05/14 10:32:12.065,-0.054,0.081,1.006
2026/05/14 10:32:12.083,-0.054,0.081,1.004
2026/05/14 10:32:12.102,-0.052,0.085,1.005
2026/05/14 10:32:12.120,-0.05,0.088,1.001
2026/05/14 10:32:12.139,-0.051,0.083,1.006
2026/05/14 10:32:12.157,-0.053,0.083,1.007
2026/05/14 10:32:12.176,-0.054,0.08,1.005
2026/05/14 10:32:12.194,-0.054,0.083,1.003
2026/05/14 10:32:12.213,-0.053,0.082,1.004
2026/05/14 10:32:12.231,-0.057,0.084,1.004
2026/05/14 10:32:12.250,-0.056,0.085,1.003
2026/05/14 10:32:12.268,-0.049,0.086,1.006
2026/05/14 10:32:12.287,-0.055,0.082,1.006
2026/05/14 10:32:12.306,-0.052,0.085,1.002
2026/05/14 10:32:12.324,-0.055,0.085,1.001
2026/05/14 10:32:12.343,-0.053,0.083,1.003
2026/05/14 10:32:12.361,-0.054,0.086,1.006
2026/05/14 10:32:12.380,-0.056,0.088,1.004
2026/05/14 10:32:12.398,-0.052,0.085,1.006
2026/05/14 10:32:12.417,-0.052,0.086,1.005
2026/05/14 10:32:12.435,-0.053,0.089,1.002
2026/05/14 10:32:12.454,-0.055,0.081,1.006
2026/05/14 10:32:12.472,-0.051,0.082,1.002
2026/05/14 10:32:12.491,-0.056,0.081,1.004
2026/05/14 10:32:12.509,-0.055,0.083,1.002
2026/05/14 10:32:12.528,-0.05,0.084,1.001
2026/05/14 10:32:12.546,-0.051,0.085,1.005
2026/05/14 10:32:12.565,-0.049,0.085,1.003
2026/05/14 10:32:12.583,-0.055,0.085,1.005
2026/05/14 10:32:12.602,-0.055,0.083,1.005
2026/05/14 10:32:12.620,-0.052,0.083,1.004
2026/05/14 10:32:12.639,-0.053,0.083,1.004
2026/05/14 10:32:12.657,-0.052,0.085,1.006
2026/05/14 10:32:12.676,-0.052,0.082,1.002
2026/05/14 10:32:12.694,-0.054,0.085,1.007
2026/05/14 10:32:12.713,-0.054,0.083,1.004
2026/05/14 10:32:12.731,-0.052,0.083,1.0
2026/05/14 10:32:12.750,-0.053,0.085,1.01
2026/05/14 10:32:12.768,-0.049,0.082,1.004
2026/05/14 10:32:12.787,-0.053,0.089,1.008
2026/05/14 10:32:12.805,-0.05,0.082,1.005
2026/05/14 10:32:12.824,-0.054,0.086,1.002
2026/05/14 10:32:12.842,-0.054,0.084,1.0
2026/05/14 10:32:12.861,-0.049,0.082,1.0
2026/05/14 10:32:12.879,-0.051,0.084,1.004
2026/05/14 10:32:12.898,-0.051,0.083,1.003
2026/05/14 10:32:12.916,-0.05,0.087,1.002
2026/05/14 10:32:12.935,-0.053,0.087,1.005
2026/05/14 10:32:12.954,-0.051,0.087,1.005
2026/05/14 10:32:12.972,-0.052,0.083,1.004
2026/05/14 10:32:12.991,-0.054,0.087,1.004
2026/05/14 10:32:13.009,-0.057,0.083,1.005
2026/05/14 10:32:13.028,-0.052,0.085,1.005
2026/05/14 10:32:13.046,-0.053,0.086,1.008
2026/05/14 10:32:13.065,-0.052,0.086,1.0
2026/05/14 10:32:13.083,-0.051,0.085,1.001
2026/05/14 10:32:13.102,-0.054,0.084,1.004
2026/05/14 10:32:13.120,-0.052,0.084,1.005
2026/05/14 10:32:13.139,-0.053,0.084,1.003
2026/05/14 10:32:13.157,-0.05,0.081,1.004
2026/05/14 10:32:13.176,-0.053,0.087,1.006
2026/05/14 10:32:13.194,-0.052,0.082,1.0
2026/05/14 10:32:13.213,-0.056,0.084,1.004
2026/05/14 10:32:13.231,-0.056,0.085,1.002
2026/05/14 10:32:13.250,-0.057,0.086,1.003
2026/05/14 10:32:13.268,-0.051,0.083,1.005
2026/05/14 10:32:13.287,-0.052,0.083,1.005
2026/05/14 10:32:13.305,-0.049,0.086,1.005
2026/05/14 10:32:13.324,-0.054,0.084,1.006
2026/05/14 10:32:13.342,-0.05,0.084,1.001
2026/05/14 10:32:13.361,-0.055,0.085,1.003
2026/05/14 10:32:13.379,-0.056,0.083,1.005
2026/05/14 10:32:13.398,-0.051,0.082,1.006
2026/05/14 10:32:13.416,-0.052,0.089,1.004
2026/05/14 10:32:13.435,-0.051,0.086,1.002
2026/05/14 10:32:13.453,-0.052,0.086,1.007
2026/05/14 10:32:13.472,-0.05,0.089,1.004
2026/05/14 10:32:13.490,-0.052,0.083,1.005
2026/05/14 10:32:13.509,-0.052,0.083,1.004
2026/05/14 10:32:13.527,-0.054,0.083,1.005
2026/05/14 10:32:13.546,-0.055,0.086,1.005
2026/05/14 10:32:13.564,-0.054,0.084,1.002
2026/05/14 10:32:13.583,-0.05,0.085,1.003
2026/05/14 10:32:13.602,-0.054,0.085,1.002
2026/05/14 10:32:13.620,-0.053,0.087,1.007
2026/05/14 10:32:13.639,-0.053,0.087,1.006
2026/05/14 10:32:13.657,-0.05,0.085,1.005
2026/05/14 10:32:13.676,-0.054,0.084,0.997
2026/05/14 10:32:13.694,-0.053,0.083,1.003
2026/05/14 10:32:13.713,-0.055,0.084,1.0
2026/05/14 10:32:13.731,-0.052,0.083,1.006
2026/05/14 10:32:13.750,-0.052,0.084,1.002
2026/05/14 10:32:13.768,-0.054,0.084,1.003
2026/05/14 10:32:13.787,-0.056,0.085,1.002
2026/05/14 10:32:13.805,-0.053,0.085,1.004
2026/05/14 10:32:13.824,-0.054,0.084,1.003
2026/05/14 10:32:13.842,-0.054,0.082,1.006
2026/05/14 10:32:13.861,-0.055,0.086,1.007
2026/05/14 10:32:13.879,-0.055,0.082,1.007
2026/05/14 10:32:13.898,-0.049,0.079,1.001
2026/05/14 10:32:13.916,-0.05,0.081,1.002
2026/05/14 10:32:13.935,-0.05,0.085,1.003
2026/05/14 10:32:13.953,-0.049,0.081,1.006
2026/05/14 10:32:13.972,-0.056,0.082,1.005
2026/05/14 10:32:13.990,-0.052,0.083,1.004
2026/05/14 10:32:14.009,-0.054,0.08,1.004
2026/05/14 10:32:14.027,-0.056,0.084,1.007
2026/05/14 10:32:14.046,-0.052,0.083,1.006
2026/05/14 10:32:14.064,-0.05,0.083,1.006
2026/05/14 10:32:14.083,-0.049,0.08,1.003
2026/05/14 10:32:14.101,-0.051,0.082,1.007
2026/05/14 10:32:14.120,-0.053,0.084,1.006
2026/05/14 10:32:14.138,-0.054,0.082,1.006
2026/05/14 10:32:14.157,-0.05,0.083,1.001
2026/05/14 10:32:14.175,-0.051,0.085,1.01
2026/05/14 10:32:14.194,-0.054,0.082,1.003
2026/05/14 10:32:14.212,-0.053,0.086,1.003
2026/05/14 10:32:14.231,-0.055,0.086,1.005
2026/05/14 10:32:14.250,-0.051,0.086,1.009
2026/05/14 10:32:14.268,-0.056,0.087,1.0
2026/05/14 10:32:14.287,-0.054,0.085,1.005
2026/05/14 10:32:14.305,-0.049,0.084,1.006
2026/05/14 10:32:14.324,-0.05,0.085,1.004
2026/05/14 10:32:14.342,-0.052,0.087,1.004
2026/05/14 10:32:14.361,-0.054,0.081,1.006
2026/05/14 10:32:14.379,-0.054,0.089,1.001
2026/05/14 10:32:14.398,-0.054,0.086,1.003
2026/05/14 10:32:14.416,-0.053,0.087,1.005
2026/05/14 10:32:14.435,-0.053,0.083,1.005
2026/05/14 10:32:14.453,-0.054,0.083,1.003
2026/05/14 10:32:14.472,-0.052,0.083,1.008
2026/05/14 10:32:14.490,-0.05,0.086,1.007
2026/05/14 10:32:14.509,-0.053,0.086,1.008
2026/05/14 10:32:14.527,-0.052,0.081,1.005
2026/05/14 10:32:14.546,-0.058,0.087,1.001
2026/05/14 10:32:14.564,-0.051,0.084,1.004
2026/05/14 10:32:14.583,-0.051,0.083,1.005
2026/05/14 10:32:14.601,-0.054,0.086,1.002
2026/05/14 10:32:14.620,-0.053,0.086,1.008
2026/05/14 10:32:14.638,-0.053,0.083,1.006
2026/05/14 10:32:14.657,-0.051,0.083,1.001
2026/05/14 10:32:14.675,-0.05,0.081,1.005
2026/05/14 10:32:14.694,-0.053,0.085,1.001
2026/05/14 10:32:14.712,-0.052,0.082,1.008
2026/05/14 10:32:14.731,-0.059,0.081,1.001
2026/05/14 10:32:14.749,-0.055,0.082,1.004
2026/05/14 10:32:14.768,-0.055,0.086,1.003
2026/05/14 10:32:14.786,-0.053,0.084,1.006
2026/05/14 10:32:14.805,-0.056,0.086,1.002
2026/05/14 10:32:14.823,-0.053,0.088,1.004
2026/05/14 10:32:14.842,-0.054,0.083,1.002
2026/05/14 10:32:14.861,-0.053,0.086,1.006
2026/05/14 10:32:14.879,-0.051,0.085,1.003
2026/05/14 10:32:14.898,-0.055,0.086,1.007
2026/05/14 10:32:14.916,-0.054,0.083,1.005
2026/05/14 10:32:14.935,-0.055,0.085,1.003
2026/05/14 10:32:14.953,-0.05,0.083,1.004
2026/05/14 10:32:14.972,-0.051,0.081,1.004
2026/05/14 10:32:14.990,-0.053,0.085,1.002
2026/05/14 10:32:15.009,-0.053,0.084,1.006
2026/05/14 10:32:15.027,-0.055,0.083,1.005
2026/05/14 10:32:15.046,-0.055,0.083,1.005
2026/05/14 10:32:15.064,-0.053,0.084,1.003
2026/05/14 10:32:15.083,-0.053,0.082,1.005
2026/05/14 10:32:15.101,-0.054,0.08,1.003
2026/05/14 10:32:15.120,-0.055,0.089,1.001
2026/05/14 10:32:15.138,-0.051,0.083,1.002
2026/05/14 10:32:15.157,-0.05,0.085,1.005
2026/05/14 10:32:15.175,-0.051,0.086,1.008
2026/05/14 10:32:15.194,-0.048,0.086,1.007
2026/05/14 10:32:15.212,-0.054,0.081,1.006
2026/05/14 10:32:15.231,-0.056,0.083,1.007
2026/05/14 10:32:15.249,-0.057,0.09,1.004
2026/05/14 10:32:15.268,-0.053,0.082,1.01
2026/05/14 10:32:15.286,-0.057,0.086,1.005
2026/05/14 10:32:15.305,-0.053,0.084,1.002
2026/05/14 10:32:15.323,-0.053,0.08,1.003
2026/05/14 10:32:15.342,-0.056,0.084,1.002
2026/05/14 10:32:15.360,-0.055,0.083,1.005
2026/05/14 10:32:15.379,-0.051,0.083,1.006
2026/05/14 10:32:15.397,-0.052,0.087,1.006
2026/05/14 10:32:15.416,-0.052,0.084,0.999
2026/05/14 10:32:15.434,-0.055,0.085,1.003
2026/05/14 10:32:15.453,-0.049,0.085,1.003
2026/05/14 10:32:15.472,-0.054,0.085,1.01
2026/05/14 10:32:15.490,-0.054,0.082,1.006
2026/05/14 10:32:15.509,-0.053,0.084,1.003
2026/05/14 10:32:15.527,-0.057,0.084,1.003
2026/05/14 10:32:15.546,-0.053,0.087,1.005
2026/05/14 10:32:15.564,-0.056,0.086,1.006
2026/05/14 10:32:15.583,-0.056,0.081,1.001
2026/05/14 10:32:15.601,-0.051,0.084,1.005
2026/05/14 10:32:15.620,-0.056,0.084,1.003
2026/05/14 10:32:15.638,-0.054,0.087,1.0
2026/05/14 10:32:15.657,-0.054,0.081,1.005
2026/05/14 10:32:15.675,-0.05,0.085,1.005
2026/05/14 10:32:15.694,-0.051,0.083,1.006
2026/05/14 10:32:15.712,-0.056,0.087,1.006
2026/05/14 10:32:15.731,-0.052,0.083,1.005
2026/05/14 10:32:15.749,-0.052,0.086,0.999
2026/05/14 10:32:15.768,-0.053,0.088,1.005
2026/05/14 10:32:15.786,-0.056,0.085,1.006
2026/05/14 10:32:15.805,-0.054,0.086,1.0
2026/05/14 10:32:15.823,-0.051,0.087,1.001
2026/05/14 10:32:15.842,-0.052,0.084,1.0
2026/05/14 10:32:15.860,-0.055,0.083,1.005
2026/05/14 10:32:15.879,-0.055,0.089,1.007
2026/05/14 10:32:15.897,-0.049,0.086,1.007
2026/05/14 10:32:15.916,-0.054,0.08,1.002
2026/05/14 10:32:15.934,-0.055,0.085,1.006
2026/05/14 10:32:15.953,-0.053,0.089,1.007
2026/05/14 10:32:15.971,-0.055,0.085,1.003
2026/05/14 10:32:15.990,-0.056,0.078,1.006
2026/05/14 10:32:16.008,-0.052,0.087,1.007
2026/05/14 10:32:16.027,-0.055,0.087,1.006
2026/05/14 10:32:16.045,-0.053,0.085,1.005
2026/05/14 10:32:16.064,-0.056,0.084,1.005
2026/05/14 10:32:16.083,-0.055,0.083,1.006
2026/05/14 10:32:16.101,-0.057,0.083,1.007
2026/05/14 10:32:16.120,-0.057,0.082,1.005
2026/05/14 10:32:16.138,-0.05,0.086,1.003
2026/05/14 10:32:16.157,-0.054,0.087,1.005
2026/05/14 10:32:16.175,-0.057,0.081,1.007
2026/05/14 10:32:16.194,-0.049,0.084,1.007
2026/05/14 10:32:16.212,-0.051,0.086,1.004
2026/05/14 10:32:16.231,-0.056,0.084,1.005
2026/05/14 10:32:16.249,-0.052,0.08,1.006
2026/05/14 10:32:16.268,-0.052,0.083,1.006
2026/05/14 10:32:16.286,-0.054,0.084,1.003
2026/05/14 10:32:16.305,-0.055,0.083,1.001
2026/05/14 10:32:16.323,-0.05,0.08,1.0
2026/05/14 10:32:16.342,-0.056,0.082,1.006
2026/05/14 10:32:16.360,-0.052,0.087,1.003
2026/05/14 10:32:16.379,-0.056,0.083,1.005
2026/05/14 10:32:16.397,-0.051,0.083,1.006
2026/05/14 10:32:16.416,-0.052,0.083,0.999
2026/05/14 10:32:16.434,-0.055,0.08,1.003
2026/05/14 10:32:16.453,-0.055,0.088,1.002
2026/05/14 10:32:16.471,-0.051,0.085,1.004
2026/05/14 10:32:16.490,-0.053,0.085,1.003
2026/05/14 10:32:16.508,-0.051,0.083,1.003
2026/05/14 10:32:16.527,-0.056,0.083,1.004
2026/05/14 10:32:16.545,-0.054,0.087,1.002
2026/05/14 10:32:16.564,-0.051,0.082,1.001
2026/05/14 10:32:16.582,-0.055,0.085,1.009
2026/05/14 10:32:16.601,-0.055,0.079,1.005
2026/05/14 10:32:16.619,-0.056,0.085,1.004
2026/05/14 10:32:16.638,-0.049,0.085,1.005
2026/05/14 10:32:16.656,-0.051,0.08,1.008
2026/05/14 10:32:16.675,-0.052,0.086,1.001
2026/05/14 10:32:16.694,-0.054,0.085,1.007
2026/05/14 10:32:16.712,-0.056,0.088,1.009
2026/05/14 10:32:16.731,-0.055,0.084,1.003
2026/05/14 10:32:16.749,-0.051,0.082,1.004
2026/05/14 10:32:16.768,-0.053,0.083,1.007
2026/05/14 10:32:16.786,-0.051,0.087,1.002
2026/05/14 10:32:16.805,-0.052,0.081,1.003
2026/05/14 10:32:16.823,-0.056,0.086,1.003
2026/05/14 10:32:16.842,-0.054,0.087,1.002
2026/05/14 10:32:16.860,-0.051,0.08,1.001
2026/05/14 10:32:16.879,-0.054,0.082,1.004
2026/05/14 10:32:16.897,-0.055,0.081,1.005
2026/05/14 10:32:16.916,-0.052,0.084,1.003
2026/05/14 10:32:16.934,-0.054,0.084,1.006
2026/05/14 10:32:16.953,-0.051,0.084,1.007
2026/05/14 10:32:16.971,-0.058,0.083,1.007
2026/05/14 10:32:16.990,-0.054,0.082,1.008
2026/05/14 10:32:17.008,-0.057,0.084,1.001
2026/05/14 10:32:17.027,-0.05,0.085,1.007
2026/05/14 10:32:17.045,-0.053,0.083,1.004
2026/05/14 10:32:17.064,-0.053,0.086,1.001
2026/05/14 10:32:17.082,-0.051,0.081,1.006
2026/05/14 10:32:17.101,-0.051,0.084,1.001
2026/05/14 10:32:17.119,-0.051,0.086,1.005
2026/05/14 10:32:17.138,-0.056,0.083,1.005
2026/05/14 10:32:17.156,-0.049,0.085,1.003
2026/05/14 10:32:17.175,-0.054,0.078,1.001
2026/05/14 10:32:17.193,-0.055,0.085,1.004
2026/05/14 10:32:17.212,-0.054,0.086,1.0
2026/05/14 10:32:17.230,-0.05,0.085,1.005
2026/05/14 10:32:17.249,-0.057,0.082,1.004
2026/05/14 10:32:17.267,-0.052,0.081,1.001
2026/05/14 10:32:17.286,-0.05,0.083,1.003
2026/05/14 10:32:17.305,-0.054,0.081,1.0
2026/05/14 10:32:17.323,-0.056,0.083,1.004
2026/05/14 10:32:17.342,-0.049,0.083,1.003
2026/05/14 10:32:17.360,-0.055,0.084,1.004
2026/05/14 10:32:17.379,-0.056,0.084,1.003
2026/05/14 10:32:17.397,-0.053,0.082,1.002
2026/05/14 10:32:17.416,-0.05,0.084,1.005
2026/05/14 10:32:17.434,-0.052,0.084,1.003
2026/05/14 10:32:17.453,-0.056,0.086,1.003
2026/05/14 10:32:17.471,-0.053,0.087,1.004
2026/05/14 10:32:17.490,-0.054,0.084,0.999
2026/05/14 10:32:17.508,-0.056,0.085,1.002
2026/05/14 10:32:17.527,-0.05,0.085,1.001
2026/05/14 10:32:17.545,-0.056,0.088,1.005
2026/05/14 10:32:17.564,-0.054,0.083,1.0
2026/05/14 10:32:17.582,-0.056,0.081,1.002
2026/05/14 10:32:17.601,-0.055,0.085,1.003
2026/05/14 10:32:17.619,-0.056,0.087,1.004
2026/05/14 10:32:17.638,-0.053,0.086,1.008
2026/05/14 10:32:17.656,-0.053,0.084,1.002
2026/05/14 10:32:17.675,-0.053,0.086,1.005
2026/05/14 10:32:17.693,-0.055,0.082,1.004
2026/05/14 10:32:17.712,-0.056,0.084,1.007
2026/05/14 10:32:17.730,-0.055,0.086,1.003
2026/05/14 10:32:17.749,-0.054,0.086,1.007
2026/05/14 10:32:17.767,-0.054,0.086,1.004
2026/05/14 10:32:17.786,-0.056,0.083,1.003
2026/05/14 10:32:17.804,-0.053,0.082,1.0
2026/05/14 10:32:17.823,-0.054,0.082,1.006
2026/05/14 10:32:17.841,-0.054,0.083,1.009
2026/05/14 10:32:17.860,-0.054,0.083,1.001
2026/05/14 10:32:17.878,-0.052,0.085,1.004
2026/05/14 10:32:17.897,-0.053,0.083,1.003
2026/05/14 10:32:17.916,-0.052,0.084,1.005
2026/05/14 10:32:17.934,-0.055,0.086,1.007
2026/05/14 10:32:17.953,-0.051,0.085,1.0
2026/05/14 10:32:17.971,-0.051,0.088,1.006
2026/05/14 10:32:17.990,-0.047,0.087,1.001
2026/05/14 10:32:18.008,-0.053,0.085,1.004
2026/05/14 10:32:18.027,-0.053,0.083,1.004
2026/05/14 10:32:18.045,-0.051,0.08,1.003
2026/05/14 10:32:18.064,-0.054,0.087,1.005
2026/05/14 10:32:18.082,-0.053,0.081,1.004
2026/05/14 10:32:18.101,-0.052,0.085,1.004
2026/05/14 10:32:18.119,-0.051,0.084,1.002
2026/05/14 10:32:18.138,-0.051,0.084,1.0
2026/05/14 10:32:18.156,-0.049,0.084,1.003
2026/05/14 10:32:18.175,-0.055,0.086,1.005
2026/05/14 10:32:18.193,-0.056,0.083,1.005
2026/05/14 10:32:18.212,-0.054,0.082,1.005
2026/05/14 10:32:18.230,-0.052,0.09,1.0
2026/05/14 10:32:18.249,-0.049,0.089,1.001
2026/05/14 10:32:18.267,-0.053,0.082,0.999
2026/05/14 10:32:18.286,-0.054,0.083,1.001
2026/05/14 10:32:18.304,-0.052,0.087,1.003
2026/05/14 10:32:18.323,-0.049,0.088,1.005
2026/05/14 10:32:18.341,-0.053,0.082,1.003
2026/05/14 10:32:18.360,-0.051,0.082,1.003
2026/05/14 10:32:18.378,-0.054,0.088,1.004
2026/05/14 10:32:18.397,-0.053,0.084,0.999
2026/05/14 10:32:18.415,-0.05,0.088,1.002
2026/05/14 10:32:18.434,-0.056,0.085,1.0
2026/05/14 10:32:18.452,-0.05,0.08,1.005
2026/05/14 10:32:18.471,-0.053,0.078,1.006
2026/05/14 10:32:18.489,-0.057,0.082,1.003
2026/05/14 10:32:18.508,-0.055,0.086,1.003
2026/05/14 10:32:18.526,-0.056,0.081,1.005
2026/05/14 10:32:18.545,-0.05,0.083,1.005
2026/05/14 10:32:18.564,-0.052,0.084,1.003
2026/05/14 10:32:18.582,-0.052,0.079,1.003
2026/05/14 10:32:18.601,-0.052,0.085,1.006
2026/05/14 10:32:18.619,-0.054,0.087,1.0
2026/05/14 10:32:18.638,-0.052,0.085,1.004
2026/05/14 10:32:18.656,-0.051,0.085,1.005
2026/05/14 10:32:18.675,-0.051,0.085,1.003
2026/05/14 10:32:18.693,-0.054,0.084,1.004
2026/05/14 10:32:18.712,-0.055,0.084,1.006
2026/05/14 10:32:18.730,-0.054,0.081,1.005
2026/05/14 10:32:18.749,-0.053,0.083,1.001
2026/05/14 10:32:18.767,-0.051,0.086,1.003
2026/05/14 10:32:18.786,-0.053,0.084,1.006
2026/05/14 10:32:18.804,-0.054,0.084,1.004
2026/05/14 10:32:18.823,-0.053,0.082,1.008
2026/05/14 10:32:18.841,-0.051,0.086,1.002
2026/05/14 10:32:18.860,-0.054,0.083,1.007
2026/05/14 10:32:18.878,-0.051,0.079,1.003
2026/05/14 10:32:18.897,-0.051,0.085,1.008
2026/05/14 10:32:18.915,-0.053,0.084,1.003
2026/05/14 10:32:18.934,-0.055,0.086,1.003
2026/05/14 10:32:18.952,-0.052,0.082,1.007
2026/05/14 10:32:18.971,-0.051,0.083,1.005
2026/05/14 10:32:18.989,-0.051,0.082,1.008
2026/05/14 10:32:19.008,-0.056,0.084,1.003
2026/05/14 10:32:19.026,-0.053,0.087,1.004
2026/05/14 10:32:19.045,-0.057,0.084,1.002
2026/05/14 10:32:19.063,-0.055,0.087,1.003
2026/05/14 10:32:19.082,-0.053,0.083,1.005
2026/05/14 10:32:19.100,-0.054,0.085,1.007
2026/05/14 10:32:19.119,-0.053,0.082,1.007
2026/05/14 10:32:19.137,-0.051,0.083,1.01
2026/05/14 10:32:19.156,-0.052,0.086,1.002
2026/05/14 10:32:19.175,-0.054,0.084,1.007
2026/05/14 10:32:19.193,-0.054,0.084,1.002
2026/05/14 10:32:19.212,-0.055,0.085,1.001
2026/05/14 10:32:19.230,-0.053,0.083,1.011
2026/05/14 10:32:19.249,-0.056,0.089,1.001
2026/05/14 10:32:19.267,-0.055,0.084,1.006
2026/05/14 10:32:19.286,-0.055,0.086,1.003
2026/05/14 10:32:19.304,-0.053,0.088,1.001
2026/05/14 10:32:19.323,-0.052,0.081,1.002
2026/05/14 10:32:19.341,-0.053,0.083,1.004
2026/05/14 10:32:19.360,-0.05,0.084,1.003
2026/05/14 10:32:19.378,-0.051,0.082,1.004
2026/05/14 10:32:19.397,-0.051,0.087,1.0
2026/05/14 10:32:19.415,-0.052,0.087,1.003
2026/05/14 10:32:19.434,-0.053,0.088,1.005
2026/05/14 10:32:19.452,-0.05,0.085,1.0
2026/05/14 10:32:19.471,-0.051,0.085,1.002
2026/05/14 10:32:19.489,-0.052,0.08,1.007
2026/05/14 10:32:19.508,-0.052,0.086,1.002
2026/05/14 10:32:19.526,-0.052,0.084,1.008
2026/05/14 10:32:19.545,-0.052,0.082,1.002
2026/05/14 10:32:19.563,-0.053,0.087,1.003
2026/05/14 10:32:19.582,-0.052,0.081,1.0
2026/05/14 10:32:19.600,-0.051,0.086,1.003
2026/05/14 10:32:19.619,-0.051,0.085,1.004
2026/05/14 10:32:19.637,-0.05,0.083,1.004
2026/05/14 10:32:19.656,-0.055,0.087,1.005
2026/05/14 10:32:19.674,-0.056,0.082,1.002
2026/05/14 10:32:19.693,-0.05,0.083,1.0
2026/05/14 10:32:19.711,-0.051,0.085,1.005
2026/05/14 10:32:19.730,-0.053,0.085,0.999
2026/05/14 10:32:19.748,-0.054,0.082,1.007
2026/05/14 10:32:19.767,-0.055,0.084,1.002
2026/05/14 10:32:19.785,-0.052,0.083,1.005
2026/05/14 10:32:19.804,-0.054,0.084,1.004
2026/05/14 10:32:19.823,-0.053,0.081,0.999
2026/05/14 10:32:19.841,-0.054,0.084,1.006
2026/05/14 10:32:19.860,-0.053,0.087,1.003
2026/05/14 10:32:19.878,-0.05,0.084,1.01
2026/05/14 10:32:19.897,-0.054,0.083,1.007
2026/05/14 10:32:19.915,-0.055,0.086,1.004
2026/05/14 10:32:19.934,-0.055,0.08,1.006
2026/05/14 10:32:19.952,-0.053,0.082,1.002
2026/05/14 10:32:19.971,-0.05,0.085,1.004
2026/05/14 10:32:19.989,-0.054,0.086,1.004
2026/05/14 10:32:20.008,-0.053,0.085,1.006
2026/05/14 10:32:20.026,-0.052,0.081,1.004
2026/05/14 10:32:20.045,-0.056,0.08,1.004
2026/05/14 10:32:20.063,-0.052,0.088,1.004
2026/05/14 10:32:20.082,-0.057,0.081,1.003
2026/05/14 10:32:20.100,-0.054,0.084,1.003
2026/05/14 10:32:20.119,-0.054,0.084,1.007
2026/05/14 10:32:20.137,-0.051,0.083,1.005
2026/05/14 10:32:20.156,-0.055,0.084,1.002
2026/05/14 10:32:20.174,-0.053,0.084,1.002
2026/05/14 10:32:20.193,-0.052,0.086,1.008
2026/05/14 10:32:20.211,-0.05,0.088,1.005
2026/05/14 10:32:20.230,-0.054,0.082,1.009
2026/05/14 10:32:20.248,-0.057,0.084,1.006
2026/05/14 10:32:20.267,-0.054,0.086,1.002
2026/05/14 10:32:20.285,-0.049,0.084,1.004
2026/05/14 10:32:20.304,-0.053,0.082,1.003
2026/05/14 10:32:20.322,-0.052,0.088,1.003
2026/05/14 10:32:20.341,-0.053,0.082,1.002
2026/05/14 10:32:20.359,-0.053,0.081,1.003
2026/05/14 10:32:20.378,-0.052,0.08,1.006
2026/05/14 10:32:20.397,-0.053,0.081,0.998
2026/05/14 10:32:20.415,-0.053,0.084,1.005
2026/05/14 10:32:20.434,-0.054,0.087,1.004
2026/05/14 10:32:20.452,-0.054,0.084,1.004
2026/05/14 10:32:20.471,-0.053,0.084,1.009
2026/05/14 10:32:20.489,-0.051,0.088,1.001
2026/05/14 10:32:20.508,-0.053,0.082,1.006
2026/05/14 10:32:20.526,-0.053,0.087,1.002
2026/05/14 10:32:20.545,-0.052,0.088,1.003
2026/05/14 10:32:20.563,-0.051,0.086,1.006
2026/05/14 10:32:20.582,-0.05,0.085,1.001
2026/05/14 10:32:20.600,-0.054,0.085,1.007
2026/05/14 10:32:20.619,-0.051,0.084,1.001
2026/05/14 10:32:20.637,-0.057,0.084,1.007
2026/05/14 10:32:20.656,-0.055,0.085,1.001
2026/05/14 10:32:20.674,-0.056,0.081,1.008
2026/05/14 10:32:20.693,-0.057,0.09,1.006
2026/05/14 10:32:20.711,-0.054,0.086,1.004
2026/05/14 10:32:20.730,-0.055,0.077,1.003
2026/05/14 10:32:20.748,-0.053,0.085,1.004
2026/05/14 10:32:20.767,-0.048,0.084,1.002
2026/05/14 10:32:20.785,-0.052,0.082,1.005
2026/05/14 10:32:20.804,-0.054,0.086,1.002
2026/05/14 10:32:20.822,-0.053,0.084,1.002
2026/05/14 10:32:20.841,-0.054,0.088,1.007
2026/05/14 10:32:20.859,-0.057,0.086,1.003
2026/05/14 10:32:20.878,-0.055,0.085,1.006
2026/05/14 10:32:20.896,-0.06,0.088,1.005
2026/05/14 10:32:20.915,-0.051,0.087,1.005
2026/05/14 10:32:20.933,-0.054,0.085,1.007
2026/05/14 10:32:20.952,-0.051,0.086,1.001
2026/05/14 10:32:20.971,-0.056,0.086,1.003
2026/05/14 10:32:20.989,-0.054,0.083,1.005
2026/05/14 10:32:21.008,-0.051,0.084,1.007
2026/05/14 10:32:21.026,-0.055,0.088,1.006
2026/05/14 10:32:21.045,-0.054,0.086,1.0
2026/05/14 10:32:21.063,-0.054,0.09,1.002
2026/05/14 10:32:21.082,-0.049,0.083,1.003
2026/05/14 10:32:21.100,-0.054,0.082,1.006
2026/05/14 10:32:21.119,-0.056,0.081,1.005
2026/05/14 10:32:21.137,-0.056,0.084,1.006
2026/05/14 10:32:21.156,-0.05,0.085,1.006
2026/05/14 10:32:21.174,-0.049,0.085,1.003
2026/05/14 10:32:21.193,-0.05,0.083,1.004
2026/05/14 10:32:21.211,-0.053,0.078,1.005
2026/05/14 10:32:21.230,-0.056,0.084,1.005
2026/05/14 10:32:21.248,-0.049,0.083,1.004
2026/05/14 10:32:21.267,-0.054,0.082,1.008
2026/05/14 10:32:21.285,-0.054,0.082,1.004
2026/05/14 10:32:21.304,-0.052,0.078,1.002
2026/05/14 10:32:21.322,-0.056,0.081,1.005
2026/05/14 10:32:21.341,-0.053,0.085,1.003
2026/05/14 10:32:21.359,-0.056,0.089,1.003
2026/05/14 10:32:21.378,-0.056,0.082,1.004
2026/05/14 10:32:21.396,-0.052,0.084,1.003
2026/05/14 10:32:21.415,-0.053,0.083,1.004
2026/05/14 10:32:21.433,-0.052,0.082,1.003
2026/05/14 10:32:21.452,-0.058,0.087,1.004
2026/05/14 10:32:21.470,-0.051,0.084,1.003
2026/05/14 10:32:21.489,-0.052,0.082,1.0
2026/05/14 10:32:21.507,-0.058,0.084,1.004
2026/05/14 10:32:21.526,-0.053,0.088,0.996
2026/05/14 10:32:21.544,-0.054,0.087,1.006
2026/05/14 10:32:21.563,-0.056,0.08,1.005
2026/05/14 10:32:21.582,-0.056,0.086,1.006
2026/05/14 10:32:21.600,-0.053,0.083,1.004
2026/05/14 10:32:21.619,-0.052,0.084,1.001
2026/05/14 10:32:21.637,-0.05,0.089,1.002
2026/05/14 10:32:21.656,-0.053,0.086,1.004
2026/05/14 10:32:21.674,-0.055,0.085,1.003
2026/05/14 10:32:21.693,-0.053,0.083,1.002
2026/05/14 10:32:21.711,-0.052,0.084,1.008
2026/05/14 10:32:21.730,-0.052,0.082,1.003
2026/05/14 10:32:21.748,-0.054,0.085,1.005
2026/05/14 10:32:21.767,-0.056,0.084,1.002
2026/05/14 10:32:21.785,-0.052,0.085,1.008
2026/05/14 10:32:21.804,-0.052,0.084,1.005
2026/05/14 10:32:21.822,-0.053,0.085,1.005
2026/05/14 10:32:21.841,-0.054,0.086,1.008
2026/05/14 10:32:21.859,-0.053,0.083,1.001
2026/05/14 10:32:21.878,-0.054,0.09,0.998
2026/05/14 10:32:21.896,-0.052,0.087,1.005
2026/05/14 10:32:21.915,-0.051,0.08,1.005
2026/05/14 10:32:21.933,-0.056,0.082,1.004
2026/05/14 10:32:21.952,-0.054,0.084,1.005
2026/05/14 10:32:21.970,-0.056,0.08,1.004
2026/05/14 10:32:21.989,-0.054,0.086,1.005
2026/05/14 10:32:22.007,-0.052,0.084,1.002
2026/05/14 10:32:22.026,-0.05,0.083,1.003
2026/05/14 10:32:22.044,-0.055,0.086,1.005
2026/05/14 10:32:22.063,-0.054,0.081,1.006
2026/05/14 10:32:22.081,-0.053,0.086,1.006
2026/05/14 10:32:22.100,-0.054,0.08,1.004
2026/05/14 10:32:22.118,-0.055,0.086,1.008
2026/05/14 10:32:22.137,-0.053,0.086,1.008
2026/05/14 10:32:22.156,-0.055,0.087,1.005
2026/05/14 10:32:22.174,-0.055,0.081,1.002
2026/05/14 10:32:22.193,-0.053,0.082,1.002
2026/05/14 10:32:22.211,-0.052,0.083,1.001
2026/05/14 10:32:22.230,-0.054,0.084,1.005
2026/05/14 10:32:22.248,-0.051,0.085,1.003
2026/05/14 10:32:22.267,-0.05,0.084,1.009
2026/05/14 10:32:22.285,-0.055,0.084,1.004
2026/05/14 10:32:22.304,-0.052,0.086,1.002
2026/05/14 10:32:22.322,-0.052,0.082,1.007
2026/05/14 10:32:22.341,-0.052,0.084,1.001
2026/05/14 10:32:22.359,-0.053,0.083,1.002
2026/05/14 10:32:22.378,-0.05,0.086,1.006
2026/05/14 10:32:22.396,-0.051,0.084,1.003
2026/05/14 10:32:22.415,-0.054,0.08,1.005
2026/05/14 10:32:22.433,-0.053,0.086,1.003
2026/05/14 10:32:22.452,-0.052,0.083,1.001
2026/05/14 10:32:22.470,-0.053,0.084,1.005
2026/05/14 10:32:22.489,-0.056,0.083,1.004
2026/05/14 10:32:22.507,-0.054,0.085,1.004
2026/05/14 10:32:22.526,-0.051,0.085,1.004
2026/05/14 10:32:22.544,-0.052,0.089,1.005
2026/05/14 10:32:22.563,-0.054,0.085,1.004
2026/05/14 10:32:22.581,-0.054,0.085,1.003
2026/05/14 10:32:22.600,-0.056,0.08,1.004
2026/05/14 10:32:22.618,-0.052,0.085,1.0
2026/05/14 10:32:22.637,-0.056,0.085,1.004
2026/05/14 10:32:22.655,-0.055,0.083,1.007
2026/05/14 10:32:22.674,-0.058,0.085,1.005
2026/05/14 10:32:22.692,-0.052,0.084,1.004
2026/05/14 10:32:22.711,-0.053,0.085,1.005
2026/05/14 10:32:22.729,-0.051,0.083,1.005
2026/05/14 10:32:22.748,-0.051,0.086,1.004
2026/05/14 10:32:22.767,-0.051,0.084,1.001
2026/05/14 10:32:22.785,-0.05,0.086,1.002
2026/05/14 10:32:22.804,-0.053,0.086,1.002
2026/05/14 10:32:22.822,-0.054,0.086,1.007
2026/05/14 10:32:22.841,-0.056,0.08,1.004
2026/05/14 10:32:22.859,-0.055,0.085,1.003
2026/05/14 10:32:22.878,-0.056,0.087,1.004
2026/05/14 10:32:22.896,-0.052,0.082,1.003
2026/05/14 10:32:22.915,-0.053,0.084,1.001
2026/05/14 10:32:22.933,-0.053,0.083,1.001
2026/05/14 10:32:22.952,-0.058,0.083,1.005
2026/05/14 10:32:22.970,-0.055,0.08,1.007
2026/05/14 10:32:22.989,-0.054,0.087,1.005
2026/05/14 10:32:23.007,-0.054,0.082,1.006
2026/05/14 10:32:23.026,-0.053,0.079,1.004
2026/05/14 10:32:23.044,-0.05,0.082,1.003
2026/05/14 10:32:23.063,-0.052,0.086,1.002
2026/05/14 10:32:23.081,-0.054,0.084,1.009
2026/05/14 10:32:23.100,-0.051,0.085,1.003
2026/05/14 10:32:23.118,-0.055,0.084,1.006
2026/05/14 10:32:23.137,-0.052,0.084,1.006
2026/05/14 10:32:23.155,-0.055,0.081,1.003
2026/05/14 10:32:23.174,-0.055,0.083,1.006
2026/05/14 10:32:23.192,-0.051,0.084,1.003
2026/05/14 10:32:23.211,-0.052,0.084,1.004
2026/05/14 10:32:23.229,-0.053,0.083,1.005
2026/05/14 10:32:23.248,-0.052,0.085,1.003
2026/05/14 10:32:23.266,-0.052,0.085,1.005
2026/05/14 10:32:23.285,-0.053,0.08,1.002
2026/05/14 10:32:23.303,-0.052,0.085,1.002
2026/05/14 10:32:23.322,-0.056,0.085,1.007
2026/05/14 10:32:23.340,-0.051,0.087,1.004
2026/05/14 10:32:23.359,-0.053,0.082,1.002
2026/05/14 10:32:23.378,-0.056,0.082,1.005
2026/05/14 10:32:23.396,-0.055,0.084,1.003
2026/05/14 10:32:23.415,-0.052,0.086,1.008
2026/05/14 10:32:23.433,-0.053,0.085,1.003
2026/05/14 10:32:23.452,-0.053,0.085,1.007
2026/05/14 10:32:23.470,-0.052,0.085,1.003
2026/05/14 10:32:23.489,-0.053,0.081,1.004
2026/05/14 10:32:23.507,-0.055,0.083,1.002
2026/05/14 10:32:23.526,-0.055,0.083,1.006
2026/05/14 10:32:23.544,-0.056,0.086,1.004
2026/05/14 10:32:23.563,-0.047,0.085,1.001
2026/05/14 10:32:23.581,-0.056,0.083,1.003
2026/05/14 10:32:23.600,-0.056,0.086,1.005
2026/05/14 10:32:23.618,-0.056,0.085,1.006
2026/05/14 10:32:23.637,-0.053,0.087,1.002
2026/05/14 10:32:23.655,-0.049,0.089,1.004
2026/05/14 10:32:23.674,-0.052,0.086,1.007
2026/05/14 10:32:23.692,-0.052,0.087,1.007
2026/05/14 10:32:23.711,-0.052,0.084,1.004
2026/05/14 10:32:23.729,-0.054,0.084,1.006
2026/05/14 10:32:23.748,-0.052,0.082,1.004
2026/05/14 10:32:23.766,-0.052,0.084,1.003
2026/05/14 10:32:23.785,-0.053,0.087,1.002
2026/05/14 10:32:23.803,-0.057,0.087,1.005
2026/05/14 10:32:23.822,-0.054,0.081,1.005
2026/05/14 10:32:23.840,-0.05,0.078,1.006
2026/05/14 10:32:23.859,-0.049,0.083,1.001
2026/05/14 10:32:23.877,-0.057,0.085,1.004
2026/05/14 10:32:23.896,-0.052,0.085,1.002
2026/05/14 10:32:23.914,-0.056,0.085,1.004
2026/05/14 10:32:23.933,-0.051,0.082,0.999
2026/05/14 10:32:23.951,-0.055,0.082,1.002
2026/05/14 10:32:23.970,-0.053,0.083,1.004
2026/05/14 10:32:23.989,-0.053,0.082,1.006
2026/05/14 10:32:24.007,-0.055,0.086,1.004
2026/05/14 10:32:24.026,-0.054,0.085,1.002
2026/05/14 10:32:24.044,-0.051,0.083,1.005
2026/05/14 10:32:24.063,-0.053,0.085,1.0
2026/05/14 10:32:24.081,-0.054,0.084,1.007
2026/05/14 10:32:24.100,-0.048,0.084,1.002
2026/05/14 10:32:24.118,-0.055,0.085,1.006
2026/05/14 10:32:24.137,-0.056,0.086,1.004
2026/05/14 10:32:24.155,-0.053,0.088,1.002
2026/05/14 10:32:24.174,-0.054,0.084,1.006
2026/05/14 10:32:24.192,-0.053,0.087,1.003
2026/05/14 10:32:24.211,-0.051,0.081,1.008
2026/05/14 10:32:24.229,-0.052,0.083,1.007
2026/05/14 10:32:24.248,-0.053,0.081,1.001
2026/05/14 10:32:24.266,-0.051,0.084,1.003
2026/05/14 10:32:24.285,-0.056,0.082,1.004
2026/05/14 10:32:24.303,-0.054,0.082,1.001
2026/05/14 10:32:24.322,-0.055,0.085,1.008
2026/05/14 10:32:24.340,-0.049,0.081,1.004
2026/05/14 10:32:24.359,-0.055,0.086,1.005
2026/05/14 10:32:24.377,-0.055,0.084,1.004
2026/05/14 10:32:24.396,-0.051,0.082,1.002
2026/05/14 10:32:24.414,-0.052,0.086,1.006
2026/05/14 10:32:24.433,-0.053,0.086,1.008
2026/05/14 10:32:24.451,-0.052,0.084,1.005
2026/05/14 10:32:24.470,-0.053,0.082,1.003
2026/05/14 10:32:24.488,-0.051,0.084,1.005
2026/05/14 10:32:24.507,-0.052,0.085,1.002
2026/05/14 10:32:24.525,-0.053,0.085,1.001
2026/05/14 10:32:24.544,-0.054,0.085,1.005
2026/05/14 10:32:24.562,-0.05,0.082,1.0
2026/05/14 10:32:24.581,-0.053,0.084,1.004
2026/05/14 10:32:24.600,-0.052,0.082,1.003
2026/05/14 10:32:24.618,-0.05,0.084,1.001
2026/05/14 10:32:24.637,-0.054,0.083,1.005
2026/05/14 10:32:24.655,-0.052,0.082,1.006
2026/05/14 10:32:24.674,-0.051,0.087,1.003
2026/05/14 10:32:24.692,-0.052,0.083,1.002
2026/05/14 10:32:24.711,-0.054,0.082,1.004
2026/05/14 10:32:24.729,-0.054,0.079,1.005
2026/05/14 10:32:24.748,-0.053,0.086,1.003
2026/05/14 10:32:24.766,-0.05,0.089,1.007
2026/05/14 10:32:24.785,-0.052,0.086,1.0
2026/05/14 10:32:24.803,-0.051,0.085,1.004
2026/05/14 10:32:24.822,-0.053,0.085,1.002
2026/05/14 10:32:24.840,-0.055,0.085,1.002
2026/05/14 10:32:24.859,-0.057,0.088,1.004
2026/05/14 10:32:24.877,-0.05,0.087,1.004
2026/05/14 10:32:24.896,-0.052,0.087,1.006
2026/05/14 10:32:24.914,-0.054,0.084,1.005
2026/05/14 10:32:24.933,-0.053,0.082,0.999
2026/05/14 10:32:24.951,-0.053,0.088,1.0
2026/05/14 10:32:24.970,-0.049,0.083,1.005
2026/05/14 10:32:24.988,-0.051,0.085,1.004
2026/05/14 10:32:25.007,-0.055,0.083,1.003
2026/05/14 10:32:25.025,-0.053,0.09,1.003
2026/05/14 10:32:25.044,-0.055,0.086,1.006
2026/05/14 10:32:25.062,-0.051,0.085,1.001
2026/05/14 10:32:25.081,-0.053,0.083,1.006
2026/05/14 10:32:25.099,-0.058,0.085,1.007
2026/05/14 10:32:25.118,-0.056,0.084,1.004
2026/05/14 10:32:25.136,-0.049,0.086,1.004
2026/05/14 10:32:25.155,-0.051,0.085,1.004
2026/05/14 10:32:25.174,-0.056,0.084,1.008
2026/05/14 10:32:25.192,-0.055,0.086,0.999
2026/05/14 10:32:25.211,-0.052,0.088,1.001
2026/05/14 10:32:25.229,-0.054,0.083,1.0
2026/05/14 10:32:25.248,-0.052,0.086,1.004
2026/05/14 10:32:25.266,-0.055,0.08,1.008
2026/05/14 10:32:25.285,-0.054,0.083,1.005
2026/05/14 10:32:25.303,-0.052,0.087,1.002
2026/05/14 10:32:25.322,-0.052,0.085,1.007
2026/05/14 10:32:25.340,-0.053,0.085,1.003
2026/05/14 10:32:25.359,-0.056,0.083,1.005
2026/05/14 10:32:25.377,-0.055,0.085,1.004
2026/05/14 10:32:25.396,-0.057,0.084,1.005
2026/05/14 10:32:25.414,-0.056,0.082,1.007
2026/05/14 10:32:25.433,-0.05,0.085,1.003
2026/05/14 10:32:25.451,-0.055,0.085,1.002
2026/05/14 10:32:25.470,-0.057,0.081,1.004
2026/05/14 10:32:25.488,-0.05,0.088,1.003
2026/05/14 10:32:25.507,-0.052,0.083,1.006
2026/05/14 10:32:25.525,-0.057,0.084,1.006
2026/05/14 10:32:25.544,-0.053,0.085,1.002
2026/05/14 10:32:25.562,-0.052,0.082,1.01
2026/05/14 10:32:25.581,-0.055,0.085,1.005
2026/05/14 10:32:25.599,-0.055,0.084,1.006
2026/05/14 10:32:25.618,-0.054,0.083,1.005
2026/05/14 10:32:25.636,-0.053,0.084,1.003
2026/05/14 10:32:25.655,-0.049,0.084,1.005
2026/05/14 10:32:25.673,-0.052,0.089,1.008
2026/05/14 10:32:25.692,-0.056,0.082,1.003
2026/05/14 10:32:25.710,-0.054,0.083,1.006
2026/05/14 10:32:25.729,-0.055,0.088,0.999
2026/05/14 10:32:25.747,-0.054,0.083,1.002
2026/05/14 10:32:25.766,-0.053,0.086,1.008
2026/05/14 10:32:25.785,-0.053,0.082,1.004
2026/05/14 10:32:25.803,-0.058,0.084,0.999
2026/05/14 10:32:25.822,-0.052,0.085,1.008
2026/05/14 10:32:25.840,-0.052,0.085,1.007
2026/05/14 10:32:25.859,-0.051,0.085,1.001
2026/05/14 10:32:25.877,-0.055,0.082,1.003
2026/05/14 10:32:25.896,-0.052,0.083,1.006
2026/05/14 10:32:25.914,-0.051,0.083,1.004
2026/05/14 10:32:25.933,-0.053,0.087,1.004
2026/05/14 10:32:25.951,-0.052,0.085,1.003
2026/05/14 10:32:25.970,-0.051,0.09,1.0
2026/05/14 10:32:25.988,-0.052,0.082,1.005
2026/05/14 10:32:26.007,-0.055,0.085,1.01
2026/05/14 10:32:26.025,-0.054,0.084,1.007
2026/05/14 10:32:26.044,-0.052,0.083,1.002
2026/05/14 10:32:26.062,-0.054,0.086,1.007
2026/05/14 10:32:26.081,-0.051,0.082,1.005
2026/05/14 10:32:26.099,-0.049,0.085,1.004
2026/05/14 10:32:26.118,-0.056,0.087,1.003
2026/05/14 10:32:26.136,-0.053,0.082,1.006
2026/05/14 10:32:26.155,-0.051,0.087,1.0
2026/05/14 10:32:26.173,-0.054,0.08,1.005
2026/05/14 10:32:26.192,-0.056,0.088,1.003
2026/05/14 10:32:26.210,-0.058,0.085,1.005
2026/05/14 10:32:26.229,-0.053,0.085,1.005
2026/05/14 10:32:26.247,-0.053,0.084,1.006
2026/05/14 10:32:26.266,-0.054,0.086,1.007
2026/05/14 10:32:26.284,-0.054,0.085,1.004
2026/05/14 10:32:26.303,-0.054,0.084,1.006
2026/05/14 10:32:26.321,-0.053,0.085,1.005
2026/05/14 10:32:26.340,-0.053,0.084,1.006
2026/05/14 10:32:26.359,-0.053,0.084,1.004
2026/05/14 10:32:26.377,-0.055,0.087,1.006
2026/05/14 10:32:26.396,-0.051,0.082,1.001
2026/05/14 10:32:26.414,-0.053,0.085,1.001
2026/05/14 10:32:26.433,-0.051,0.085,1.006
2026/05/14 10:32:26.451,-0.054,0.083,1.003
2026/05/14 10:32:26.470,-0.05,0.085,1.003
2026/05/14 10:32:26.488,-0.055,0.083,1.002
2026/05/14 10:32:26.507,-0.053,0.084,0.999
2026/05/14 10:32:26.525,-0.051,0.086,1.003
2026/05/14 10:32:26.544,-0.052,0.084,1.004
2026/05/14 10:32:26.562,-0.054,0.083,1.008
2026/05/14 10:32:26.581,-0.055,0.085,1.003
2026/05/14 10:32:26.599,-0.056,0.081,1.003
2026/05/14 10:32:26.618,-0.051,0.082,1.004
2026/05/14 10:32:26.636,-0.051,0.087,1.004
2026/05/14 10:32:26.655,-0.05,0.083,1.003
2026/05/14 10:32:26.673,-0.051,0.083,1.006
2026/05/14 10:32:26.692,-0.056,0.081,1.008
2026/05/14 10:32:26.710,-0.049,0.082,1.005
2026/05/14 10:32:26.729,-0.05,0.087,1.003
2026/05/14 10:32:26.747,-0.052,0.087,1.003
2026/05/14 10:32:26.766,-0.052,0.085,1.002
2026/05/14 10:32:26.784,-0.057,0.082,1.005
2026/05/14 10:32:26.803,-0.054,0.084,1.005
2026/05/14 10:32:26.821,-0.052,0.086,1.007
2026/05/14 10:32:26.840,-0.054,0.086,1.005
2026/05/14 10:32:26.858,-0.055,0.083,1.001
2026/05/14 10:32:26.877,-0.057,0.087,1.006
2026/05/14 10:32:26.895,-0.056,0.083,1.004
2026/05/14 10:32:26.914,-0.047,0.084,1.006
2026/05/14 10:32:26.932,-0.056,0.084,1.004
2026/05/14 10:32:26.951,-0.051,0.081,1.005
2026/05/14 10:32:26.970,-0.056,0.086,1.004
2026/05/14 10:32:26.988,-0.052,0.083,1.008
2026/05/14 10:32:27.007,-0.053,0.086,1.004
2026/05/14 10:32:27.025,-0.054,0.086,1.006
2026/05/14 10:32:27.044,-0.051,0.085,1.006
2026/05/14 10:32:27.062,-0.056,0.081,1.003
2026/05/14 10:32:27.081,-0.053,0.083,1.0
2026/05/14 10:32:27.099,-0.053,0.084,1.003
2026/05/14 10:32:27.118,-0.054,0.079,1.003
2026/05/14 10:32:27.136,-0.053,0.085,1.008
2026/05/14 10:32:27.155,-0.055,0.082,1.004
2026/05/14 10:32:27.173,-0.053,0.082,1.006
2026/05/14 10:32:27.192,-0.053,0.085,1.001
2026/05/14 10:32:27.210,-0.056,0.082,1.007
2026/05/14 10:32:27.229,-0.052,0.085,1.007
2026/05/14 10:32:27.247,-0.052,0.083,1.005
2026/05/14 10:32:27.266,-0.056,0.084,1.004
2026/05/14 10:32:27.284,-0.052,0.08,1.005
2026/05/14 10:32:27.303,-0.054,0.083,1.006
2026/05/14 10:32:27.321,-0.05,0.082,1.002
2026/05/14 10:32:27.340,-0.051,0.082,1.005
2026/05/14 10:32:27.358,-0.056,0.087,1.005
2026/05/14 10:32:27.377,-0.055,0.083,1.006
2026/05/14 10:32:27.395,-0.05,0.086,1.0
2026/05/14 10:32:27.414,-0.051,0.083,1.004
2026/05/14 10:32:27.432,-0.052,0.089,1.0
2026/05/14 10:32:27.451,-0.053,0.082,1.0
2026/05/14 10:32:27.469,-0.05,0.084,1.004
2026/05/14 10:32:27.488,-0.055,0.087,1.006
2026/05/14 10:32:27.506,-0.054,0.08,1.002
2026/05/14 10:32:27.525,-0.055,0.086,1.005
2026/05/14 10:32:27.544,-0.051,0.088,1.005
2026/05/14 10:32:27.562,-0.054,0.085,1.003
2026/05/14 10:32:27.581,-0.053,0.086,1.009
2026/05/14 10:32:27.599,-0.051,0.084,1.006
2026/05/14 10:32:27.618,-0.054,0.083,0.998
2026/05/14 10:32:27.636,-0.056,0.086,1.006
2026/05/14 10:32:27.655,-0.052,0.087,1.003
2026/05/14 10:32:27.673,-0.053,0.085,1.005
2026/05/14 10:32:27.692,-0.054,0.083,1.003
2026/05/14 10:32:27.710,-0.056,0.084,1.004
2026/05/14 10:32:27.729,-0.054,0.086,1.003
2026/05/14 10:32:27.747,-0.054,0.083,1.007
2026/05/14 10:32:27.766,-0.051,0.085,1.005
2026/05/14 10:32:27.784,-0.056,0.082,1.004
2026/05/14 10:32:27.803,-0.051,0.087,1.003
2026/05/14 10:32:27.821,-0.052,0.085,1.01
2026/05/14 10:32:27.840,-0.056,0.083,1.006
2026/05/14 10:32:27.858,-0.051,0.087,1.002
2026/05/14 10:32:27.877,-0.052,0.085,1.004
2026/05/14 10:32:27.895,-0.053,0.085,1.003
2026/05/14 10:32:27.914,-0.054,0.084,1.006
2026/05/14 10:32:27.932,-0.053,0.086,1.007
2026/05/14 10:32:27.951,-0.054,0.085,1.005
2026/05/14 10:32:27.969,-0.052,0.082,1.009
2026/05/14 10:32:27.988,-0.054,0.084,1.007
2026/05/14 10:32:28.006,-0.053,0.086,1.005
2026/05/14 10:32:28.025,-0.049,0.082,1.007
2026/05/14 10:32:28.043,-0.049,0.086,1.006
2026/05/14 10:32:28.062,-0.056,0.08,1.007
2026/05/14 10:32:28.081,-0.051,0.084,1.003
2026/05/14 10:32:28.099,-0.055,0.082,1.005
2026/05/14 10:32:28.118,-0.053,0.083,1.0
2026/05/14 10:32:28.136,-0.05,0.082,1.006
2026/05/14 10:32:28.155,-0.051,0.083,1.003
2026/05/14 10:32:28.173,-0.052,0.083,1.003
2026/05/14 10:32:28.192,-0.051,0.086,1.002
2026/05/14 10:32:28.210,-0.052,0.084,1.008
2026/05/14 10:32:28.229,-0.051,0.086,1.005
2026/05/14 10:32:28.247,-0.052,0.087,1.004
2026/05/14 10:32:28.266,-0.049,0.091,1.005
2026/05/14 10:32:28.284,-0.054,0.083,1.001
2026/05/14 10:32:28.303,-0.052,0.084,1.003
2026/05/14 10:32:28.321,-0.052,0.085,1.004
2026/05/14 10:32:28.340,-0.056,0.084,1.004
2026/05/14 10:32:28.358,-0.056,0.081,1.009
2026/05/14 10:32:28.377,-0.052,0.086,1.004
2026/05/14 10:32:28.395,-0.05,0.084,1.004
2026/05/14 10:32:28.414,-0.053,0.085,1.003
2026/05/14 10:32:28.432,-0.051,0.086,1.003
2026/05/14 10:32:28.451,-0.053,0.08,1.005
2026/05/14 10:32:28.469,-0.051,0.082,1.002
2026/05/14 10:32:28.488,-0.057,0.085,1.005
2026/05/14 10:32:28.506,-0.053,0.081,1.003
2026/05/14 10:32:28.525,-0.053,0.083,1.003
2026/05/14 10:32:28.543,-0.051,0.082,1.0
2026/05/14 10:32:28.562,-0.051,0.09,1.005
2026/05/14 10:32:28.580,-0.056,0.086,1.003
2026/05/14 10:32:28.599,-0.052,0.085,1.004
2026/05/14 10:32:28.617,-0.05,0.085,1.004
2026/05/14 10:32:28.636,-0.052,0.084,1.005
2026/05/14 10:32:28.655,-0.055,0.084,1.003
2026/05/14 10:32:28.673,-0.052,0.082,1.007
2026/05/14 10:32:28.692,-0.056,0.082,1.001
2026/05/14 10:32:28.710,-0.055,0.083,1.002
2026/05/14 10:32:28.729,-0.052,0.087,1.003
2026/05/14 10:32:28.747,-0.053,0.085,1.002
2026/05/14 10:32:28.766,-0.053,0.083,1.007
2026/05/14 10:32:28.784,-0.055,0.084,1.009
2026/05/14 10:32:28.803,-0.051,0.082,1.003
2026/05/14 10:32:28.821,-0.052,0.086,1.005
2026/05/14 10:32:28.840,-0.055,0.087,1.001
2026/05/14 10:32:28.858,-0.054,0.085,0.999
2026/05/14 10:32:28.877,-0.055,0.087,1.002
2026/05/14 10:32:28.895,-0.055,0.084,1.007
2026/05/14 10:32:28.914,-0.056,0.084,1.003
2026/05/14 10:32:28.932,-0.05,0.087,1.007
2026/05/14 10:32:28.951,-0.052,0.084,1.002
2026/05/14 10:32:28.969,-0.053,0.085,1.005
2026/05/14 10:32:28.988,-0.054,0.084,1.005
2026/05/14 10:32:29.006,-0.055,0.085,1.007
2026/05/14 10:32:29.025,-0.052,0.08,1.005
2026/05/14 10:32:29.043,-0.054,0.086,1.001
2026/05/14 10:32:29.062,-0.053,0.084,1.004
2026/05/14 10:32:29.080,-0.053,0.083,1.006
2026/05/14 10:32:29.099,-0.055,0.081,1.006
2026/05/14 10:32:29.117,-0.056,0.089,1.006
2026/05/14 10:32:29.136,-0.053,0.086,1.005
2026/05/14 10:32:29.154,-0.054,0.084,1.004
2026/05/14 10:32:29.173,-0.055,0.087,1.002
2026/05/14 10:32:29.192,-0.053,0.086,1.004
2026/05/14 10:32:29.210,-0.056,0.082,1.003
2026/05/14 10:32:29.229,-0.053,0.083,1.005
2026/05/14 10:32:29.247,-0.057,0.081,1.004
2026/05/14 10:32:29.266,-0.052,0.083,1.003
2026/05/14 10:32:29.284,-0.052,0.085,1.0
2026/05/14 10:32:29.303,-0.055,0.085,1.001
2026/05/14 10:32:29.321,-0.054,0.084,1.001
2026/05/14 10:32:29.340,-0.049,0.089,1.008
2026/05/14 10:32:29.358,-0.054,0.087,0.999
2026/05/14 10:32:29.377,-0.054,0.08,1.006
2026/05/14 10:32:29.395,-0.051,0.086,1.004
2026/05/14 10:32:29.414,-0.054,0.086,1.007
2026/05/14 10:32:29.432,-0.054,0.082,1.002
2026/05/14 10:32:29.451,-0.054,0.083,1.005
2026/05/14 10:32:29.469,-0.049,0.084,1.006
2026/05/14 10:32:29.488,-0.056,0.084,1.003
2026/05/14 10:32:29.506,-0.051,0.085,1.004
2026/05/14 10:32:29.525,-0.053,0.08,1.003
2026/05/14 10:32:29.543,-0.054,0.086,1.005
2026/05/14 10:32:29.562,-0.051,0.086,1.004
2026/05/14 10:32:29.580,-0.055,0.083,1.003
2026/05/14 10:32:29.599,-0.055,0.082,1.003
2026/05/14 10:32:29.617,-0.053,0.082,1.004
2026/05/14 10:32:29.636,-0.054,0.083,1.009
2026/05/14 10:32:29.654,-0.057,0.082,1.0
2026/05/14 10:32:29.673,-0.052,0.087,1.005
2026/05/14 10:32:29.691,-0.056,0.082,1.005
2026/05/14 10:32:29.710,-0.055,0.084,1.0
2026/05/14 10:32:29.728,-0.05,0.084,1.01
2026/05/14 10:32:29.747,-0.054,0.082,1.002
2026/05/14 10:32:29.766,-0.055,0.084,1.003
2026/05/14 10:32:29.784,-0.052,0.082,1.01
2026/05/14 10:32:29.803,-0.05,0.08,1.004
2026/05/14 10:32:29.821,-0.05,0.086,1.004
2026/05/14 10:32:29.840,-0.052,0.086,1.007
2026/05/14 10:32:29.858,-0.058,0.082,1.004
2026/05/14 10:32:29.877,-0.052,0.082,1.005
2026/05/14 10:32:29.895,-0.054,0.082,1.003
2026/05/14 10:32:29.914,-0.052,0.081,1.004
2026/05/14 10:32:29.932,-0.056,0.083,1.007
2026/05/14 10:32:29.951,-0.052,0.086,1.003
2026/05/14 10:32:29.969,-0.051,0.087,1.003
2026/05/14 10:32:29.988,-0.057,0.083,1.002
2026/05/14 10:32:30.006,-0.051,0.08,1.005
2026/05/14 10:32:30.025,-0.053,0.084,1.0
2026/05/14 10:32:30.043,-0.052,0.083,1.004
2026/05/14 10:32:30.062,-0.055,0.085,1.0
2026/05/14 10:32:30.080,-0.056,0.086,1.009
2026/05/14 10:32:30.099,-0.055,0.087,1.003
2026/05/14 10:32:30.117,-0.05,0.085,1.003
2026/05/14 10:32:30.136,-0.053,0.08,1.006
2026/05/14 10:32:30.154,-0.053,0.085,1.0
2026/05/14 10:32:30.173,-0.053,0.079,1.007
2026/05/14 10:32:30.191,-0.054,0.082,1.004
2026/05/14 10:32:30.210,-0.052,0.085,1.01
2026/05/14 10:32:30.228,-0.053,0.081,1.003
2026/05/14 10:32:30.247,-0.054,0.087,1.004
2026/05/14 10:32:30.265,-0.054,0.085,1.006
2026/05/14 10:32:30.284,-0.053,0.085,1.004
2026/05/14 10:32:30.302,-0.054,0.088,1.003
2026/05/14 10:32:30.321,-0.058,0.083,1.006
2026/05/14 10:32:30.340,-0.052,0.082,1.003
2026/05/14 10:32:30.358,-0.056,0.082,0.999
2026/05/14 10:32:30.377,-0.054,0.085,1.0
2026/05/14 10:32:30.395,-0.055,0.084,1.005
2026/05/14 10:32:30.414,-0.054,0.085,1.005
2026/05/14 10:32:30.432,-0.054,0.084,1.003
2026/05/14 10:32:30.451,-0.056,0.084,1.002
2026/05/14 10:32:30.469,-0.055,0.084,1.004
2026/05/14 10:32:30.488,-0.054,0.082,1.002
2026/05/14 10:32:30.506,-0.054,0.088,1.01
2026/05/14 10:32:30.525,-0.051,0.084,1.004
2026/05/14 10:32:30.543,-0.053,0.081,1.003
2026/05/14 10:32:30.562,-0.049,0.078,1.005
2026/05/14 10:32:30.580,-0.051,0.087,1.003
2026/05/14 10:32:30.599,-0.054,0.084,1.006
2026/05/14 10:32:30.617,-0.053,0.082,1.004
2026/05/14 10:32:30.636,-0.056,0.084,1.008
2026/05/14 10:32:30.654,-0.052,0.088,1.002
2026/05/14 10:32:30.673,-0.055,0.084,1.0
2026/05/14 10:32:30.691,-0.055,0.083,1.006
2026/05/14 10:32:30.710,-0.052,0.082,1.004
2026/05/14 10:32:30.728,-0.055,0.08,1.004
2026/05/14 10:32:30.747,-0.052,0.086,1.002
2026/05/14 10:32:30.765,-0.05,0.082,1.006
2026/05/14 10:32:30.784,-0.054,0.084,1.008
2026/05/14 10:32:30.802,-0.055,0.086,1.004
2026/05/14 10:32:30.821,-0.055,0.083,1.009
2026/05/14 10:32:30.839,-0.056,0.079,1.003
2026/05/14 10:32:30.858,-0.054,0.084,1.002
2026/05/14 10:32:30.876,-0.054,0.083,1.001
2026/05/14 10:32:30.895,-0.05,0.085,1.004
2026/05/14 10:32:30.914,-0.052,0.084,1.005
2026/05/14 10:32:30.932,-0.054,0.085,0.999
2026/05/14 10:32:30.951,-0.054,0.081,1.004
2026/05/14 10:32:30.969,-0.051,0.084,1.003
2026/05/14 10:32:30.988,-0.05,0.085,0.998
2026/05/14 10:32:31.006,-0.049,0.084,1.002
2026/05/14 10:32:31.025,-0.056,0.088,1.005
2026/05/14 10:32:31.043,-0.056,0.083,1.001
2026/05/14 10:32:31.062,-0.053,0.083,1.008
2026/05/14 10:32:31.080,-0.054,0.085,1.003
2026/05/14 10:32:31.099,-0.053,0.085,1.002
2026/05/14 10:32:31.117,-0.053,0.081,1.004
2026/05/14 10:32:31.136,-0.05,0.085,1.004
2026/05/14 10:32:31.154,-0.053,0.083,1.002
2026/05/14 10:32:31.173,-0.052,0.085,1.002
2026/05/14 10:32:31.191,-0.055,0.085,1.005
2026/05/14 10:32:31.210,-0.051,0.085,1.005
2026/05/14 10:32:31.228,-0.05,0.083,1.005
2026/05/14 10:32:31.247,-0.056,0.084,1.008
2026/05/14 10:32:31.265,-0.051,0.087,1.005
2026/05/14 10:32:31.284,-0.056,0.088,1.005
2026/05/14 10:32:31.302,-0.052,0.085,1.006
2026/05/14 10:32:31.321,-0.056,0.085,1.005
2026/05/14 10:32:31.339,-0.052,0.085,1.009
2026/05/14 10:32:31.358,-0.054,0.084,1.001
2026/05/14 10:32:31.376,-0.056,0.084,1.006
2026/05/14 10:32:31.395,-0.051,0.081,1.006
2026/05/14 10:32:31.413,-0.052,0.082,1.005
2026/05/14 10:32:31.432,-0.051,0.085,1.003
2026/05/14 10:32:31.450,-0.052,0.083,1.005
2026/05/14 10:32:31.469,-0.05,0.083,1.0
2026/05/14 10:32:31.487,-0.052,0.083,1.001
2026/05/14 10:32:31.506,-0.054,0.088,1.007
2026/05/14 10:32:31.525,-0.055,0.082,1.007
2026/05/14 10:32:31.543,-0.056,0.084,0.999
2026/05/14 10:32:31.562,-0.053,0.085,1.004
2026/05/14 10:32:31.580,-0.054,0.085,1.004
2026/05/14 10:32:31.599,-0.053,0.084,1.002
2026/05/14 10:32:31.617,-0.053,0.085,1.005
2026/05/14 10:32:31.636,-0.052,0.081,1.009
2026/05/14 10:32:31.654,-0.053,0.083,1.002
2026/05/14 10:32:31.673,-0.052,0.085,1.007
2026/05/14 10:32:31.691,-0.054,0.085,1.003
2026/05/14 10:32:31.710,-0.05,0.085,1.011
2026/05/14 10:32:31.728,-0.056,0.088,1.004
2026/05/14 10:32:31.747,-0.052,0.081,1.003
2026/05/14 10:32:31.765,-0.053,0.084,1.01
2026/05/14 10:32:31.784,-0.051,0.086,1.001
2026/05/14 10:32:31.802,-0.054,0.083,1.008
2026/05/14 10:32:31.821,-0.056,0.083,1.007
2026/05/14 10:32:31.839,-0.054,0.086,1.004
2026/05/14 10:32:31.858,-0.053,0.087,1.006
2026/05/14 10:32:31.876,-0.051,0.083,1.005
2026/05/14 10:32:31.895,-0.053,0.08,1.006
2026/05/14 10:32:31.913,-0.053,0.083,1.008
2026/05/14 10:32:31.932,-0.053,0.084,1.005
2026/05/14 10:32:31.950,-0.054,0.083,1.002
2026/05/14 10:32:31.969,-0.051,0.087,1.0
2026/05/14 10:32:31.987,-0.054,0.081,1.005
2026/05/14 10:32:32.006,-0.054,0.082,1.001
2026/05/14 10:32:32.024,-0.054,0.081,1.003
2026/05/14 10:32:32.043,-0.053,0.083,1.002
2026/05/14 10:32:32.061,-0.056,0.083,1.006
2026/05/14 10:32:32.080,-0.053,0.082,1.003
2026/05/14 10:32:32.099,-0.052,0.089,0.999
2026/05/14 10:32:32.117,-0.052,0.085,1.006
2026/05/14 10:32:32.136,-0.051,0.08,1.005
2026/05/14 10:32:32.154,-0.051,0.084,0.999
2026/05/14 10:32:32.173,-0.051,0.086,1.004
2026/05/14 10:32:32.191,-0.053,0.085,1.003
2026/05/14 10:32:32.210,-0.053,0.082,1.002
2026/05/14 10:32:32.228,-0.053,0.085,1.003
2026/05/14 10:32:32.247,-0.054,0.087,1.005
2026/05/14 10:32:32.265,-0.052,0.084,1.008
2026/05/14 10:32:32.284,-0.05,0.085,1.008
2026/05/14 10:32:32.302,-0.057,0.088,1.003
2026/05/14 10:32:32.321,-0.057,0.085,1.007
2026/05/14 10:32:32.339,-0.055,0.086,1.004
2026/05/14 10:32:32.358,-0.053,0.081,1.003
2026/05/14 10:32:32.376,-0.05,0.083,1.005
2026/05/14 10:32:32.395,-0.052,0.084,1.007
2026/05/14 10:32:32.413,-0.054,0.082,1.005
2026/05/14 10:32:32.432,-0.052,0.082,1.006
2026/05/14 10:32:32.450,-0.053,0.083,1.005
2026/05/14 10:32:32.469,-0.056,0.085,1.005
2026/05/14 10:32:32.487,-0.057,0.083,1.003
2026/05/14 10:32:32.506,-0.054,0.087,1.007
2026/05/14 10:32:32.524,-0.054,0.085,1.005
2026/05/14 10:32:32.543,-0.056,0.085,1.003
2026/05/14 10:32:32.561,-0.055,0.084,1.007
2026/05/14 10:32:32.580,-0.056,0.086,1.004
2026/05/14 10:32:32.598,-0.054,0.086,1.003
2026/05/14 10:32:32.617,-0.056,0.085,1.006
2026/05/14 10:32:32.635,-0.052,0.082,1.005
2026/05/14 10:32:32.654,-0.055,0.088,1.003
2026/05/14 10:32:32.672,-0.053,0.085,1.006
2026/05/14 10:32:32.691,-0.049,0.083,1.006
2026/05/14 10:32:32.709,-0.052,0.082,1.003
2026/05/14 10:32:32.728,-0.053,0.086,1.003
2026/05/14 10:32:32.747,-0.054,0.085,1.008
2026/05/14 10:32:32.765,-0.052,0.086,1.002
2026/05/14 10:32:32.784,-0.051,0.081,1.002
2026/05/14 10:32:32.802,-0.055,0.084,1.0
2026/05/14 10:32:32.821,-0.052,0.085,1.005
2026/05/14 10:32:32.839,-0.055,0.088,1.005
2026/05/14 10:32:32.858,-0.055,0.084,1.004
2026/05/14 10:32:32.876,-0.053,0.088,1.005
2026/05/14 10:32:32.895,-0.052,0.084,1.009
2026/05/14 10:32:32.913,-0.054,0.085,1.002
2026/05/14 10:32:32.932,-0.056,0.083,1.003
2026/05/14 10:32:32.950,-0.054,0.081,1.005
2026/05/14 10:32:32.969,-0.055,0.082,0.999
2026/05/14 10:32:32.987,-0.053,0.085,1.008
2026/05/14 10:32:33.006,-0.053,0.083,1.005
2026/05/14 10:32:33.024,-0.052,0.088,1.004
2026/05/14 10:32:33.043,-0.053,0.085,0.994
2026/05/14 10:32:33.061,-0.05,0.083,1.003
2026/05/14 10:32:33.080,-0.054,0.082,1.0
2026/05/14 10:32:33.098,-0.053,0.082,1.007
2026/05/14 10:32:33.117,-0.05,0.084,1.008
2026/05/14 10:32:33.135,-0.05,0.083,1.004
2026/05/14 10:32:33.154,-0.054,0.084,1.003
2026/05/14 10:32:33.172,-0.054,0.085,1.006
2026/05/14 10:32:33.191,-0.048,0.083,1.006
2026/05/14 10:32:33.209,-0.058,0.083,1.004
2026/05/14 10:32:33.228,-0.052,0.081,1.004
2026/05/14 10:32:33.246,-0.056,0.078,1.007
2026/05/14 10:32:33.265,-0.052,0.084,1.004
2026/05/14 10:32:33.283,-0.056,0.083,1.006
2026/05/14 10:32:33.302,-0.049,0.083,1.007
2026/05/14 10:32:33.320,-0.056,0.08,1.007
2026/05/14 10:32:33.339,-0.054,0.082,1.005
2026/05/14 10:32:33.357,-0.052,0.082,1.003
2026/05/14 10:32:33.376,-0.051,0.083,1.0
2026/05/14 10:32:33.395,-0.057,0.085,1.006
2026/05/14 10:32:33.413,-0.051,0.085,1.004
2026/05/14 10:32:33.432,-0.052,0.086,1.007
2026/05/14 10:32:33.450,-0.053,0.081,1.002
2026/05/14 10:32:33.469,-0.05,0.085,1.002
2026/05/14 10:32:33.487,-0.052,0.079,1.004
2026/05/14 10:32:33.506,-0.053,0.089,1.007
2026/05/14 10:32:33.524,-0.05,0.078,1.007
2026/05/14 10:32:33.543,-0.054,0.08,1.003
2026/05/14 10:32:33.561,-0.056,0.084,1.005
2026/05/14 10:32:33.580,-0.053,0.08,1.003
2026/05/14 10:32:33.598,-0.056,0.087,1.002
2026/05/14 10:32:33.617,-0.055,0.084,1.0
2026/05/14 10:32:33.635,-0.052,0.082,1.002
2026/05/14 10:32:33.654,-0.049,0.087,1.002
2026/05/14 10:32:33.672,-0.054,0.088,1.002
2026/05/14 10:32:33.691,-0.054,0.087,1.0
2026/05/14 10:32:33.709,-0.055,0.081,1.01
2026/05/14 10:32:33.728,-0.054,0.085,1.003
2026/05/14 10:32:33.746,-0.051,0.085,1.004
2026/05/14 10:32:33.765,-0.055,0.078,1.005
2026/05/14 10:32:33.783,-0.051,0.088,1.006
2026/05/14 10:32:33.802,-0.055,0.087,1.005
2026/05/14 10:32:33.820,-0.053,0.085,1.004
2026/05/14 10:32:33.839,-0.055,0.083,1.005
2026/05/14 10:32:33.857,-0.056,0.085,1.003
2026/05/14 10:32:33.876,-0.053,0.083,1.01
2026/05/14 10:32:33.894,-0.053,0.087,1.003
2026/05/14 10:32:33.913,-0.052,0.087,1.004
2026/05/14 10:32:33.931,-0.056,0.087,1.005
2026/05/14 10:32:33.950,-0.052,0.082,1.004
2026/05/14 10:32:33.968,-0.049,0.086,1.008
2026/05/14 10:32:33.987,-0.06,0.083,1.001
2026/05/14 10:32:34.006,-0.055,0.084,1.006
2026/05/14 10:32:34.024,-0.056,0.085,1.002
2026/05/14 10:32:34.043,-0.051,0.083,1.005
2026/05/14 10:32:34.061,-0.053,0.087,1.005
2026/05/14 10:32:34.080,-0.053,0.08,1.003
2026/05/14 10:32:34.098,-0.051,0.087,1.007
2026/05/14 10:32:34.117,-0.055,0.085,1.005
2026/05/14 10:32:34.135,-0.053,0.084,1.004
2026/05/14 10:32:34.154,-0.053,0.085,1.004
2026/05/14 10:32:34.172,-0.054,0.085,1.004
2026/05/14 10:32:34.191,-0.052,0.085,1.0
2026/05/14 10:32:34.209,-0.052,0.083,1.001
2026/05/14 10:32:34.228,-0.05,0.085,1.007
2026/05/14 10:32:34.246,-0.055,0.084,1.006
2026/05/14 10:32:34.265,-0.055,0.082,1.006
2026/05/14 10:32:34.283,-0.049,0.086,1.004
2026/05/14 10:32:34.302,-0.054,0.082,1.002
2026/05/14 10:32:34.320,-0.051,0.085,1.002
2026/05/14 10:32:34.339,-0.053,0.082,1.005
2026/05/14 10:32:34.357,-0.054,0.084,1.005
2026/05/14 10:32:34.376,-0.053,0.081,1.007
2026/05/14 10:32:34.394,-0.054,0.083,1.005
2026/05/14 10:32:34.413,-0.055,0.08,1.005
2026/05/14 10:32:34.431,-0.052,0.084,1.006
2026/05/14 10:32:34.450,-0.055,0.083,1.007
2026/05/14 10:32:34.468,-0.049,0.081,1.005
2026/05/14 10:32:34.487,-0.053,0.086,1.004
2026/05/14 10:32:34.505,-0.054,0.085,1.005
2026/05/14 10:32:34.524,-0.052,0.086,1.007
2026/05/14 10:32:34.542,-0.057,0.091,1.003
2026/05/14 10:32:34.561,-0.055,0.088,1.005
2026/05/14 10:32:34.579,-0.052,0.082,1.008
2026/05/14 10:32:34.598,-0.052,0.086,1.004
2026/05/14 10:32:34.616,-0.055,0.082,1.007
2026/05/14 10:32:34.635,-0.055,0.086,1.003
2026/05/14 10:32:34.654,-0.05,0.088,0.999
2026/05/14 10:32:34.672,-0.055,0.081,1.008
2026/05/14 10:32:34.691,-0.056,0.079,1.002
2026/05/14 10:32:34.709,-0.051,0.084,1.006
2026/05/14 10:32:34.728,-0.053,0.086,1.002
2026/05/14 10:32:34.746,-0.053,0.085,1.006
2026/05/14 10:32:34.765,-0.05,0.085,1.004
2026/05/14 10:32:34.783,-0.05,0.087,1.003
2026/05/14 10:32:34.802,-0.054,0.083,1.002
2026/05/14 10:32:34.820,-0.051,0.086,1.0
2026/05/14 10:32:34.839,-0.054,0.085,1.003
2026/05/14 10:32:34.857,-0.06,0.079,1.004
2026/05/14 10:32:34.876,-0.054,0.084,1.005
2026/05/14 10:32:34.894,-0.053,0.081,1.005
2026/05/14 10:32:34.913,-0.052,0.085,1.004
2026/05/14 10:32:34.931,-0.055,0.085,1.003
2026/05/14 10:32:34.950,-0.057,0.086,1.004
2026/05/14 10:32:34.968,-0.055,0.084,1.005
2026/05/14 10:32:34.987,-0.054,0.082,1.003
2026/05/14 10:32:35.005,-0.052,0.087,1.001
2026/05/14 10:32:35.024,-0.053,0.082,1.005
2026/05/14 10:32:35.042,-0.054,0.087,1.005
2026/05/14 10:32:35.061,-0.052,0.084,1.005
2026/05/14 10:32:35.079,-0.055,0.086,1.002
