Timestamp,ACC X,ACC Y,ACC Z
2026/05/14 10:30:32.316,0.051,0.027,1.01
2026/05/14 10:30:32.335,0.053,0.036,1.012
2026/05/14 10:30:32.354,0.051,0.033,1.012
2026/05/14 10:30:32.374,0.05,0.037,1.021
2026/05/14 10:30:32.393,0.039,0.037,1.0
2026/05/14 10:30:32.412,0.069,0.047,1.052
2026/05/14 10:30:32.431,0.048,0.078,1.081
2026/05/14 10:30:32.451,0.055,0.023,1.016
2026/05/14 10:30:32.470,0.062,0.034,1.018
2026/05/14 10:30:32.489,0.055,0.042,1.024
2026/05/14 10:30:32.508,0.057,0.044,1.014
2026/05/14 10:30:32.527,0.081,0.097,1.028
2026/05/14 10:30:32.547,0.042,0.036,0.966
2026/05/14 10:30:32.566,0.02,0.024,1.011
2026/05/14 10:30:32.585,0.144,0.031,1.603
2026/05/14 10:30:32.604,0.029,0.01,0.835
2026/05/14 10:30:32.624,0.051,0.003,0.99
2026/05/14 10:30:32.643,0.042,0.028,1.04
2026/05/14 10:30:32.662,0.224,0.033,1.456
2026/05/14 10:30:32.681,0.019,0.02,0.91
2026/05/14 10:30:32.701,0.049,0.11,1.082
2026/05/14 10:30:32.720,-0.052,-0.072,0.753
2026/05/14 10:30:32.739,0.064,0.014,1.003
2026/05/14 10:30:32.758,0.064,0.047,1.032
2026/05/14 10:30:32.777,0.051,0.04,1.004
2026/05/14 10:30:32.797,0.046,0.033,1.033
2026/05/14 10:30:32.816,0.054,0.035,1.024
2026/05/14 10:30:32.835,0.055,0.036,1.025
2026/05/14 10:30:32.854,0.049,0.042,1.014
2026/05/14 10:30:32.874,0.05,0.063,0.874
2026/05/14 10:30:32.893,0.056,0.032,0.999
2026/05/14 10:30:32.912,0.036,0.032,1.006
2026/05/14 10:30:32.931,0.045,0.024,0.99
2026/05/14 10:30:32.951,0.058,0.036,1.016
2026/05/14 10:30:32.970,0.058,0.044,1.066
2026/05/14 10:30:32.989,0.064,0.056,1.056
2026/05/14 10:30:33.008,0.05,0.029,1.025
2026/05/14 10:30:33.027,0.069,0.051,1.047
2026/05/14 10:30:33.047,0.082,0.028,1.078
2026/05/14 10:30:33.066,0.056,0.054,0.975
2026/05/14 10:30:33.085,-0.163,-0.003,0.626
2026/05/14 10:30:33.104,0.008,0.021,0.951
2026/05/14 10:30:33.124,0.076,0.067,1.124
2026/05/14 10:30:33.143,0.025,0.039,1.01
2026/05/14 10:30:33.162,0.051,0.041,1.02
2026/05/14 10:30:33.181,0.052,0.036,1.033
2026/05/14 10:30:33.201,0.077,0.037,1.054
2026/05/14 10:30:33.220,0.064,0.043,1.019
2026/05/14 10:30:33.239,0.079,0.044,1.056
2026/05/14 10:30:33.258,0.071,0.033,1.029
2026/05/14 10:30:33.277,0.07,0.033,1.031
2026/05/14 10:30:33.297,0.057,0.038,1.026
2026/05/14 10:30:33.316,0.049,0.034,1.014
2026/05/14 10:30:33.335,0.011,0.057,1.026
2026/05/14 10:30:33.354,0.049,0.037,1.068
2026/05/14 10:30:33.374,0.032,0.038,0.993
2026/05/14 10:30:33.393,0.044,0.033,1.021
2026/05/14 10:30:33.412,0.052,0.037,1.024
2026/05/14 10:30:33.431,0.009,0.05,0.977
2026/05/14 10:30:33.451,0.052,0.031,0.991
2026/05/14 10:30:33.470,0.069,0.032,1.013
2026/05/14 10:30:33.489,0.049,0.033,1.016
2026/05/14 10:30:33.508,0.063,0.04,1.025
2026/05/14 10:30:33.527,0.057,0.033,0.995
2026/05/14 10:30:33.547,0.044,0.042,0.979
2026/05/14 10:30:33.566,0.043,0.035,1.024
2026/05/14 10:30:33.585,0.09,0.049,0.97
2026/05/14 10:30:33.604,0.055,0.052,1.046
2026/05/14 10:30:33.624,0.033,0.036,0.999
2026/05/14 10:30:33.643,0.045,0.043,1.023
2026/05/14 10:30:33.662,0.052,0.042,1.04
2026/05/14 10:30:33.682,0.052,0.036,1.02
2026/05/14 10:30:33.702,0.056,0.034,1.021
2026/05/14 10:30:33.723,0.054,0.031,1.017
2026/05/14 10:30:33.743,0.077,0.025,1.054
2026/05/14 10:30:33.763,0.053,0.021,1.005
2026/05/14 10:30:33.783,0.051,0.036,1.022
2026/05/14 10:30:33.803,0.055,0.03,0.994
2026/05/14 10:30:33.824,0.052,0.037,1.021
2026/05/14 10:30:33.844,0.055,0.04,1.024
2026/05/14 10:30:33.864,0.046,0.038,1.004
2026/05/14 10:30:33.884,0.056,0.034,1.021
2026/05/14 10:30:33.904,0.049,0.031,0.991
2026/05/14 10:30:33.925,0.056,0.037,1.008
2026/05/14 10:30:33.945,0.055,0.037,1.012
2026/05/14 10:30:33.965,0.05,0.034,1.012
2026/05/14 10:30:33.985,0.056,0.034,1.015
2026/05/14 10:30:34.005,0.054,0.038,1.014
2026/05/14 10:30:34.025,0.058,0.036,1.033
2026/05/14 10:30:34.046,0.068,0.042,1.024
2026/05/14 10:30:34.066,0.057,0.04,1.021
2026/05/14 10:30:34.086,0.055,0.04,1.022
2026/05/14 10:30:34.106,0.048,0.033,1.021
2026/05/14 10:30:34.126,0.052,0.036,1.014
2026/05/14 10:30:34.147,0.058,0.038,1.013
2026/05/14 10:30:34.167,0.053,0.053,1.107
2026/05/14 10:30:34.187,0.04,0.006,1.024
2026/05/14 10:30:34.207,0.035,0.013,0.972
2026/05/14 10:30:34.227,0.071,0.037,1.067
2026/05/14 10:30:34.248,0.087,0.057,1.077
2026/05/14 10:30:34.268,0.162,0.116,1.284
2026/05/14 10:30:34.288,0.08,0.045,1.108
2026/05/14 10:30:34.308,0.05,0.022,1.004
2026/05/14 10:30:34.328,0.018,0.0,0.936
2026/05/14 10:30:34.349,0.09,0.13,1.129
2026/05/14 10:30:34.369,-0.026,0.024,0.96
2026/05/14 10:30:34.389,0.038,0.003,0.935
2026/05/14 10:30:34.409,0.058,0.05,1.041
2026/05/14 10:30:34.429,0.005,0.016,0.923
2026/05/14 10:30:34.450,0.035,0.034,1.0
2026/05/14 10:30:34.470,0.05,0.044,1.022
2026/05/14 10:30:34.490,0.052,0.032,1.022
2026/05/14 10:30:34.510,0.049,0.033,1.024
2026/05/14 10:30:34.530,0.053,0.03,1.019
2026/05/14 10:30:34.550,0.055,0.037,1.016
2026/05/14 10:30:34.571,0.054,0.035,1.013
2026/05/14 10:30:34.591,0.054,0.034,1.014
2026/05/14 10:30:34.611,0.055,0.033,1.021
2026/05/14 10:30:34.631,0.055,0.035,1.018
2026/05/14 10:30:34.651,0.073,0.049,1.049
2026/05/14 10:30:34.672,0.05,0.053,1.107
2026/05/14 10:30:34.692,0.029,0.036,1.041
2026/05/14 10:30:34.712,0.06,0.037,1.025
2026/05/14 10:30:34.732,0.115,0.042,1.049
2026/05/14 10:30:34.752,0.066,0.032,1.002
2026/05/14 10:30:34.773,0.039,0.028,1.017
2026/05/14 10:30:34.793,0.047,0.042,1.039
2026/05/14 10:30:34.813,0.055,0.049,1.01
2026/05/14 10:30:34.833,0.053,0.038,1.006
2026/05/14 10:30:34.853,0.036,0.022,1.014
2026/05/14 10:30:34.874,0.041,0.035,1.041
2026/05/14 10:30:34.894,-0.005,-0.077,0.214
2026/05/14 10:30:34.914,0.028,-0.049,0.956
2026/05/14 10:30:34.934,0.046,0.057,1.085
2026/05/14 10:30:34.954,0.098,0.039,1.054
2026/05/14 10:30:34.974,0.109,0.069,1.119
2026/05/14 10:30:34.995,0.047,0.034,0.935
2026/05/14 10:30:35.015,0.03,0.032,1.012
2026/05/14 10:30:35.035,0.083,0.039,0.99
2026/05/14 10:30:35.055,0.06,0.039,0.974
2026/05/14 10:30:35.075,0.04,0.032,0.996
2026/05/14 10:30:35.096,0.043,0.034,1.011
2026/05/14 10:30:35.116,0.037,0.038,1.023
2026/05/14 10:30:35.136,0.042,0.033,1.012
2026/05/14 10:30:35.156,0.056,0.034,1.011
2026/05/14 10:30:35.176,0.063,0.031,1.005
2026/05/14 10:30:35.197,0.066,0.035,1.01
2026/05/14 10:30:35.217,0.06,0.041,1.004
2026/05/14 10:30:35.237,0.051,0.04,1.011
2026/05/14 10:30:35.257,0.039,0.044,1.007
2026/05/14 10:30:35.277,0.054,0.038,1.024
2026/05/14 10:30:35.298,0.057,0.03,1.017
2026/05/14 10:30:35.318,0.067,0.032,1.05
2026/05/14 10:30:35.338,0.064,0.037,1.012
2026/05/14 10:30:35.358,0.044,0.031,0.975
2026/05/14 10:30:35.378,0.085,0.037,0.995
2026/05/14 10:30:35.399,-0.048,-0.091,0.78
2026/05/14 10:30:35.419,0.031,0.009,0.942
2026/05/14 10:30:35.439,0.048,0.028,1.045
2026/05/14 10:30:35.459,0.189,-0.192,1.977
2026/05/14 10:30:35.479,0.06,0.038,1.015
2026/05/14 10:30:35.499,0.013,-0.007,0.93
2026/05/14 10:30:35.520,0.05,0.035,0.921
2026/05/14 10:30:35.540,0.01,0.025,0.955
2026/05/14 10:30:35.560,0.048,0.04,1.014
2026/05/14 10:30:35.580,0.028,0.027,0.934
2026/05/14 10:30:35.600,0.03,0.04,1.026
2026/05/14 10:30:35.621,0.05,0.033,1.005
2026/05/14 10:30:35.641,0.052,0.03,1.021
2026/05/14 10:30:35.661,0.055,0.037,0.998
2026/05/14 10:30:35.681,0.051,0.036,0.994
2026/05/14 10:30:35.701,0.039,0.037,1.021
2026/05/14 10:30:35.722,0.04,0.037,1.017
2026/05/14 10:30:35.742,0.052,0.041,1.012
2026/05/14 10:30:35.762,0.053,0.041,1.013
2026/05/14 10:30:35.782,0.058,0.035,1.014
2026/05/14 10:30:35.802,0.053,0.031,1.015
2026/05/14 10:30:35.823,0.056,0.034,1.013
2026/05/14 10:30:35.843,0.058,0.032,1.012
2026/05/14 10:30:35.863,0.055,0.038,1.011
2026/05/14 10:30:35.883,0.053,0.039,1.015
2026/05/14 10:30:35.903,0.053,0.037,1.018
2026/05/14 10:30:35.924,0.045,0.037,1.015
2026/05/14 10:30:35.944,0.047,0.039,1.016
2026/05/14 10:30:35.964,0.049,0.037,1.013
2026/05/14 10:30:35.984,0.056,0.031,1.019
2026/05/14 10:30:36.004,0.057,0.032,1.014
2026/05/14 10:30:36.025,0.056,0.033,1.015
2026/05/14 10:30:36.045,0.051,0.036,1.016
2026/05/14 10:30:36.065,0.052,0.036,1.019
2026/05/14 10:30:36.085,0.052,0.035,1.015
2026/05/14 10:30:36.105,0.054,0.038,1.011
2026/05/14 10:30:36.125,0.055,0.033,1.012
2026/05/14 10:30:36.146,0.054,0.031,1.01
2026/05/14 10:30:36.166,0.051,0.032,1.018
2026/05/14 10:30:36.186,0.053,0.036,1.018
2026/05/14 10:30:36.206,0.052,0.034,1.015
2026/05/14 10:30:36.226,0.05,0.037,1.013
2026/05/14 10:30:36.247,0.052,0.037,1.01
2026/05/14 10:30:36.267,0.05,0.035,1.012
2026/05/14 10:30:36.287,0.053,0.035,1.016
2026/05/14 10:30:36.307,0.049,0.034,1.01
2026/05/14 10:30:36.327,0.055,0.033,1.017
2026/05/14 10:30:36.348,0.059,0.035,1.015
2026/05/14 10:30:36.368,0.053,0.038,1.013
2026/05/14 10:30:36.388,0.055,0.039,1.012
2026/05/14 10:30:36.408,0.051,0.036,1.017
2026/05/14 10:30:36.428,0.048,0.036,1.017
2026/05/14 10:30:36.449,0.05,0.035,1.014
2026/05/14 10:30:36.469,0.052,0.035,1.016
2026/05/14 10:30:36.489,0.051,0.041,1.012
2026/05/14 10:30:36.509,0.048,0.034,1.015
2026/05/14 10:30:36.529,0.05,0.034,1.018
2026/05/14 10:30:36.550,0.048,0.034,1.015
2026/05/14 10:30:36.570,0.056,0.037,1.016
2026/05/14 10:30:36.590,0.053,0.037,1.018
2026/05/14 10:30:36.610,0.057,0.035,1.014
2026/05/14 10:30:36.630,0.051,0.036,1.011
2026/05/14 10:30:36.651,0.051,0.035,1.019
2026/05/14 10:30:36.671,0.052,0.035,1.018
2026/05/14 10:30:36.691,0.054,0.036,1.014
2026/05/14 10:30:36.711,0.052,0.04,1.011
2026/05/14 10:30:36.731,0.049,0.038,1.014
2026/05/14 10:30:36.751,0.051,0.036,1.015
2026/05/14 10:30:36.772,0.05,0.036,1.017
2026/05/14 10:30:36.792,0.048,0.033,1.017
2026/05/14 10:30:36.812,0.049,0.038,1.016
2026/05/14 10:30:36.832,0.055,0.032,1.016
2026/05/14 10:30:36.852,0.057,0.037,1.018
2026/05/14 10:30:36.873,0.056,0.035,1.011
2026/05/14 10:30:36.893,0.055,0.039,1.012
2026/05/14 10:30:36.913,0.053,0.035,1.015
2026/05/14 10:30:36.933,0.052,0.035,1.015
2026/05/14 10:30:36.953,0.05,0.036,1.015
2026/05/14 10:30:36.974,0.049,0.037,1.011
2026/05/14 10:30:36.994,0.05,0.035,1.014
2026/05/14 10:30:37.014,0.048,0.036,1.019
2026/05/14 10:30:37.034,0.049,0.031,1.014
2026/05/14 10:30:37.054,0.055,0.042,1.017
2026/05/14 10:30:37.075,0.051,0.036,1.015
2026/05/14 10:30:37.095,0.053,0.033,1.017
2026/05/14 10:30:37.115,0.053,0.033,1.015
2026/05/14 10:30:37.135,0.05,0.034,1.014
2026/05/14 10:30:37.155,0.053,0.038,1.015
2026/05/14 10:30:37.176,0.051,0.037,1.016
2026/05/14 10:30:37.196,0.052,0.037,1.019
2026/05/14 10:30:37.216,0.051,0.036,1.015
2026/05/14 10:30:37.236,0.051,0.037,1.018
2026/05/14 10:30:37.256,0.048,0.033,1.017
2026/05/14 10:30:37.276,0.052,0.035,1.016
2026/05/14 10:30:37.297,0.051,0.034,1.015
2026/05/14 10:30:37.317,0.056,0.033,1.016
2026/05/14 10:30:37.337,0.052,0.033,1.019
2026/05/14 10:30:37.357,0.053,0.035,1.014
2026/05/14 10:30:37.377,0.053,0.035,1.015
2026/05/14 10:30:37.398,0.052,0.036,1.015
2026/05/14 10:30:37.418,0.053,0.037,1.017
2026/05/14 10:30:37.438,0.052,0.039,1.016
2026/05/14 10:30:37.458,0.051,0.036,1.016
2026/05/14 10:30:37.478,0.052,0.036,1.015
2026/05/14 10:30:37.499,0.05,0.034,1.015
2026/05/14 10:30:37.519,0.049,0.036,1.017
2026/05/14 10:30:37.539,0.05,0.035,1.016
2026/05/14 10:30:37.559,0.053,0.035,1.018
2026/05/14 10:30:37.579,0.056,0.036,1.014
2026/05/14 10:30:37.600,0.051,0.032,1.017
2026/05/14 10:30:37.620,0.055,0.036,1.018
2026/05/14 10:30:37.640,0.054,0.035,1.014
2026/05/14 10:30:37.660,0.053,0.037,1.019
2026/05/14 10:30:37.680,0.052,0.037,1.017
2026/05/14 10:30:37.701,0.049,0.035,1.017
2026/05/14 10:30:37.721,0.052,0.038,1.014
2026/05/14 10:30:37.741,0.053,0.036,1.012
2026/05/14 10:30:37.761,0.052,0.037,1.013
2026/05/14 10:30:37.781,0.052,0.034,1.016
2026/05/14 10:30:37.802,0.053,0.036,1.016
2026/05/14 10:30:37.822,0.056,0.036,1.012
2026/05/14 10:30:37.842,0.056,0.038,1.016
2026/05/14 10:30:37.862,0.051,0.037,1.017
2026/05/14 10:30:37.882,0.055,0.035,1.016
2026/05/14 10:30:37.902,0.054,0.038,1.015
2026/05/14 10:30:37.923,0.051,0.035,1.013
2026/05/14 10:30:37.943,0.051,0.037,1.017
2026/05/14 10:30:37.963,0.052,0.037,1.016
2026/05/14 10:30:37.983,0.051,0.037,1.014
2026/05/14 10:30:38.003,0.049,0.038,1.012
2026/05/14 10:30:38.024,0.052,0.036,1.013
2026/05/14 10:30:38.044,0.052,0.037,1.012
2026/05/14 10:30:38.064,0.052,0.037,1.017
2026/05/14 10:30:38.084,0.049,0.033,1.016
2026/05/14 10:30:38.104,0.052,0.035,1.02
2026/05/14 10:30:38.125,0.053,0.035,1.015
2026/05/14 10:30:38.145,0.053,0.039,1.013
2026/05/14 10:30:38.165,0.051,0.034,1.016
2026/05/14 10:30:38.185,0.053,0.04,1.017
2026/05/14 10:30:38.205,0.053,0.034,1.012
2026/05/14 10:30:38.226,0.051,0.036,1.012
2026/05/14 10:30:38.246,0.052,0.036,1.018
2026/05/14 10:30:38.266,0.05,0.035,1.015
2026/05/14 10:30:38.286,0.049,0.039,1.016
2026/05/14 10:30:38.306,0.053,0.032,1.013
2026/05/14 10:30:38.327,0.055,0.036,1.018
2026/05/14 10:30:38.347,0.052,0.039,1.014
2026/05/14 10:30:38.367,0.055,0.036,1.014
2026/05/14 10:30:38.387,0.051,0.034,1.015
2026/05/14 10:30:38.407,0.05,0.036,1.02
2026/05/14 10:30:38.428,0.049,0.038,1.015
2026/05/14 10:30:38.448,0.049,0.037,1.014
2026/05/14 10:30:38.468,0.051,0.039,1.014
2026/05/14 10:30:38.488,0.049,0.036,1.018
2026/05/14 10:30:38.508,0.052,0.033,1.015
2026/05/14 10:30:38.528,0.054,0.037,1.012
2026/05/14 10:30:38.549,0.056,0.037,1.019
2026/05/14 10:30:38.569,0.055,0.038,1.018
2026/05/14 10:30:38.589,0.05,0.035,1.017
2026/05/14 10:30:38.609,0.051,0.036,1.013
2026/05/14 10:30:38.629,0.055,0.037,1.014
2026/05/14 10:30:38.650,0.053,0.035,1.011
2026/05/14 10:30:38.670,0.054,0.035,1.015
2026/05/14 10:30:38.690,0.052,0.034,1.021
2026/05/14 10:30:38.710,0.049,0.035,1.017
2026/05/14 10:30:38.730,0.055,0.038,1.018
2026/05/14 10:30:38.751,0.053,0.038,1.013
2026/05/14 10:30:38.771,0.049,0.039,1.016
2026/05/14 10:30:38.791,0.048,0.034,1.016
2026/05/14 10:30:38.811,0.052,0.035,1.015
2026/05/14 10:30:38.831,0.052,0.038,1.017
2026/05/14 10:30:38.852,0.052,0.031,1.015
2026/05/14 10:30:38.872,0.052,0.036,1.012
2026/05/14 10:30:38.892,0.052,0.04,1.015
2026/05/14 10:30:38.912,0.05,0.034,1.013
2026/05/14 10:30:38.932,0.048,0.032,1.017
2026/05/14 10:30:38.953,0.048,0.033,1.016
2026/05/14 10:30:38.973,0.049,0.036,1.015
2026/05/14 10:30:38.993,0.046,0.031,1.011
2026/05/14 10:30:39.013,0.048,0.034,1.013
2026/05/14 10:30:39.033,0.048,0.032,1.017
2026/05/14 10:30:39.054,0.05,0.036,1.016
2026/05/14 10:30:39.074,0.053,0.04,1.016
2026/05/14 10:30:39.094,0.056,0.042,1.017
2026/05/14 10:30:39.114,0.056,0.039,1.017
2026/05/14 10:30:39.134,0.057,0.04,1.013
2026/05/14 10:30:39.154,0.06,0.042,1.016
2026/05/14 10:30:39.175,0.061,0.038,1.015
2026/05/14 10:30:39.195,0.063,0.038,1.015
2026/05/14 10:30:39.215,0.067,0.039,1.014
2026/05/14 10:30:39.235,0.062,0.036,1.011
2026/05/14 10:30:39.255,0.058,0.033,1.016
2026/05/14 10:30:39.276,0.051,0.032,1.017
2026/05/14 10:30:39.296,0.045,0.03,1.015
2026/05/14 10:30:39.316,0.044,0.031,1.016
2026/05/14 10:30:39.336,0.046,0.04,1.021
2026/05/14 10:30:39.356,0.047,0.036,1.02
2026/05/14 10:30:39.377,0.046,0.039,1.013
2026/05/14 10:30:39.397,0.049,0.04,1.017
2026/05/14 10:30:39.417,0.051,0.037,1.014
2026/05/14 10:30:39.437,0.056,0.036,1.015
2026/05/14 10:30:39.457,0.061,0.033,1.016
2026/05/14 10:30:39.478,0.06,0.037,1.012
2026/05/14 10:30:39.498,0.06,0.035,1.014
2026/05/14 10:30:39.518,0.054,0.035,1.014
2026/05/14 10:30:39.538,0.053,0.033,1.017
2026/05/14 10:30:39.558,0.047,0.037,1.015
2026/05/14 10:30:39.579,0.044,0.039,1.017
2026/05/14 10:30:39.599,0.048,0.037,1.013
2026/05/14 10:30:39.619,0.049,0.035,1.019
2026/05/14 10:30:39.639,0.045,0.034,1.018
2026/05/14 10:30:39.659,0.052,0.033,1.017
2026/05/14 10:30:39.680,0.05,0.036,1.02
2026/05/14 10:30:39.700,0.055,0.036,1.011
2026/05/14 10:30:39.720,0.06,0.039,1.014
2026/05/14 10:30:39.740,0.057,0.036,1.01
2026/05/14 10:30:39.760,0.057,0.033,1.014
2026/05/14 10:30:39.780,0.053,0.034,1.013
2026/05/14 10:30:39.801,0.054,0.039,1.015
2026/05/14 10:30:39.821,0.048,0.034,1.017
2026/05/14 10:30:39.841,0.048,0.037,1.014
2026/05/14 10:30:39.861,0.049,0.033,1.013
2026/05/14 10:30:39.881,0.048,0.036,1.012
2026/05/14 10:30:39.902,0.05,0.038,1.017
2026/05/14 10:30:39.922,0.054,0.032,1.012
2026/05/14 10:30:39.942,0.057,0.033,1.015
2026/05/14 10:30:39.962,0.054,0.034,1.015
2026/05/14 10:30:39.982,0.06,0.033,1.013
2026/05/14 10:30:40.003,0.06,0.036,1.019
2026/05/14 10:30:40.023,0.058,0.041,1.011
2026/05/14 10:30:40.043,0.055,0.039,1.016
2026/05/14 10:30:40.063,0.055,0.037,1.014
2026/05/14 10:30:40.083,0.057,0.036,1.013
2026/05/14 10:30:40.104,0.056,0.04,1.014
2026/05/14 10:30:40.124,0.055,0.039,1.012
2026/05/14 10:30:40.144,0.047,0.038,1.019
2026/05/14 10:30:40.164,0.044,0.038,1.013
2026/05/14 10:30:40.184,0.041,0.038,1.013
2026/05/14 10:30:40.205,0.045,0.033,1.011
2026/05/14 10:30:40.225,0.046,0.032,1.015
2026/05/14 10:30:40.245,0.049,0.037,1.019
2026/05/14 10:30:40.265,0.056,0.036,1.017
2026/05/14 10:30:40.285,0.061,0.037,1.018
2026/05/14 10:30:40.305,0.063,0.033,1.015
2026/05/14 10:30:40.326,0.06,0.034,1.013
2026/05/14 10:30:40.346,0.056,0.032,1.014
2026/05/14 10:30:40.366,0.059,0.036,1.013
2026/05/14 10:30:40.386,0.053,0.039,1.016
2026/05/14 10:30:40.406,0.047,0.039,1.013
2026/05/14 10:30:40.427,0.044,0.04,1.014
2026/05/14 10:30:40.447,0.046,0.031,1.011
2026/05/14 10:30:40.467,0.044,0.038,1.019
2026/05/14 10:30:40.487,0.049,0.036,1.011
2026/05/14 10:30:40.507,0.053,0.037,1.018
2026/05/14 10:30:40.528,0.054,0.034,1.012
2026/05/14 10:30:40.548,0.058,0.037,1.017
2026/05/14 10:30:40.568,0.06,0.035,1.012
2026/05/14 10:30:40.588,0.058,0.041,1.014
2026/05/14 10:30:40.608,0.056,0.034,1.013
2026/05/14 10:30:40.629,0.055,0.038,1.014
2026/05/14 10:30:40.649,0.052,0.035,1.014
2026/05/14 10:30:40.669,0.048,0.035,1.016
2026/05/14 10:30:40.689,0.046,0.035,1.014
2026/05/14 10:30:40.709,0.044,0.038,1.012
2026/05/14 10:30:40.730,0.051,0.037,1.015
2026/05/14 10:30:40.750,0.049,0.037,1.017
2026/05/14 10:30:40.770,0.051,0.033,1.015
2026/05/14 10:30:40.790,0.054,0.038,1.015
2026/05/14 10:30:40.810,0.057,0.036,1.012
2026/05/14 10:30:40.830,0.058,0.032,1.014
2026/05/14 10:30:40.851,0.058,0.037,1.014
2026/05/14 10:30:40.871,0.058,0.037,1.015
2026/05/14 10:30:40.891,0.056,0.036,1.014
2026/05/14 10:30:40.911,0.051,0.037,1.014
2026/05/14 10:30:40.931,0.049,0.037,1.013
2026/05/14 10:30:40.952,0.049,0.036,1.015
2026/05/14 10:30:40.972,0.049,0.035,1.014
2026/05/14 10:30:40.992,0.049,0.038,1.012
2026/05/14 10:30:41.012,0.051,0.035,1.018
2026/05/14 10:30:41.032,0.052,0.036,1.019
2026/05/14 10:30:41.053,0.051,0.035,1.014
2026/05/14 10:30:41.073,0.054,0.033,1.011
2026/05/14 10:30:41.093,0.055,0.035,1.016
2026/05/14 10:30:41.113,0.054,0.04,1.016
2026/05/14 10:30:41.133,0.056,0.036,1.013
2026/05/14 10:30:41.154,0.053,0.035,1.013
2026/05/14 10:30:41.174,0.053,0.036,1.016
2026/05/14 10:30:41.194,0.049,0.036,1.014
2026/05/14 10:30:41.214,0.052,0.036,1.013
2026/05/14 10:30:41.234,0.05,0.029,1.011
2026/05/14 10:30:41.255,0.048,0.034,1.015
2026/05/14 10:30:41.275,0.047,0.039,1.018
2026/05/14 10:30:41.295,0.052,0.036,1.017
2026/05/14 10:30:41.315,0.054,0.035,1.016
2026/05/14 10:30:41.335,0.057,0.036,1.015
2026/05/14 10:30:41.355,0.054,0.034,1.018
2026/05/14 10:30:41.376,0.053,0.032,1.016
2026/05/14 10:30:41.396,0.056,0.036,1.01
2026/05/14 10:30:41.416,0.052,0.039,1.019
2026/05/14 10:30:41.436,0.052,0.033,1.017
2026/05/14 10:30:41.456,0.053,0.036,1.018
2026/05/14 10:30:41.477,0.052,0.035,1.013
2026/05/14 10:30:41.497,0.047,0.032,1.012
2026/05/14 10:30:41.517,0.049,0.037,1.015
2026/05/14 10:30:41.537,0.048,0.034,1.01
2026/05/14 10:30:41.557,0.052,0.033,1.015
2026/05/14 10:30:41.578,0.051,0.037,1.011
2026/05/14 10:30:41.598,0.055,0.038,1.011
2026/05/14 10:30:41.618,0.054,0.036,1.017
2026/05/14 10:30:41.638,0.055,0.034,1.015
2026/05/14 10:30:41.658,0.054,0.034,1.013
2026/05/14 10:30:41.679,0.056,0.037,1.014
2026/05/14 10:30:41.699,0.051,0.035,1.017
2026/05/14 10:30:41.719,0.05,0.04,1.013
2026/05/14 10:30:41.739,0.05,0.036,1.012
2026/05/14 10:30:41.759,0.05,0.038,1.012
2026/05/14 10:30:41.780,0.051,0.038,1.013
2026/05/14 10:30:41.800,0.05,0.036,1.015
2026/05/14 10:30:41.820,0.052,0.036,1.017
2026/05/14 10:30:41.840,0.053,0.034,1.016
2026/05/14 10:30:41.860,0.055,0.036,1.016
2026/05/14 10:30:41.880,0.054,0.037,1.017
2026/05/14 10:30:41.901,0.051,0.034,1.018
2026/05/14 10:30:41.921,0.052,0.035,1.01
2026/05/14 10:30:41.941,0.052,0.036,1.014
2026/05/14 10:30:41.961,0.051,0.032,1.015
2026/05/14 10:30:41.981,0.051,0.037,1.014
2026/05/14 10:30:42.002,0.053,0.036,1.017
2026/05/14 10:30:42.022,0.052,0.038,1.013
2026/05/14 10:30:42.042,0.051,0.034,1.014
2026/05/14 10:30:42.062,0.054,0.039,1.013
2026/05/14 10:30:42.082,0.053,0.035,1.014
2026/05/14 10:30:42.103,0.056,0.034,1.014
2026/05/14 10:30:42.123,0.054,0.04,1.016
2026/05/14 10:30:42.143,0.053,0.039,1.013
2026/05/14 10:30:42.163,0.052,0.037,1.013
2026/05/14 10:30:42.183,0.053,0.035,1.015
2026/05/14 10:30:42.204,0.053,0.038,1.013
2026/05/14 10:30:42.224,0.052,0.038,1.014
2026/05/14 10:30:42.244,0.049,0.033,1.013
2026/05/14 10:30:42.264,0.052,0.032,1.018
2026/05/14 10:30:42.284,0.052,0.034,1.013
2026/05/14 10:30:42.305,0.05,0.039,1.016
2026/05/14 10:30:42.325,0.055,0.039,1.015
2026/05/14 10:30:42.345,0.052,0.036,1.014
2026/05/14 10:30:42.365,0.053,0.035,1.011
2026/05/14 10:30:42.385,0.053,0.034,1.016
2026/05/14 10:30:42.405,0.055,0.031,1.016
2026/05/14 10:30:42.426,0.051,0.037,1.014
2026/05/14 10:30:42.446,0.052,0.037,1.014
2026/05/14 10:30:42.466,0.052,0.039,1.017
2026/05/14 10:30:42.486,0.047,0.037,1.013
2026/05/14 10:30:42.506,0.053,0.032,1.014
2026/05/14 10:30:42.527,0.054,0.036,1.013
2026/05/14 10:30:42.547,0.05,0.033,1.016
2026/05/14 10:30:42.567,0.054,0.04,1.013
2026/05/14 10:30:42.587,0.056,0.033,1.016
2026/05/14 10:30:42.607,0.047,0.037,1.016
2026/05/14 10:30:42.628,0.05,0.036,1.016
2026/05/14 10:30:42.648,0.053,0.033,1.016
2026/05/14 10:30:42.668,0.052,0.033,1.016
2026/05/14 10:30:42.688,0.051,0.035,1.013
2026/05/14 10:30:42.708,0.051,0.037,1.01
2026/05/14 10:30:42.729,0.05,0.034,1.011
2026/05/14 10:30:42.749,0.054,0.034,1.01
2026/05/14 10:30:42.769,0.053,0.037,1.015
2026/05/14 10:30:42.789,0.053,0.032,1.014
2026/05/14 10:30:42.809,0.05,0.037,1.015
2026/05/14 10:30:42.830,0.059,0.033,1.019
2026/05/14 10:30:42.850,0.054,0.035,1.016
2026/05/14 10:30:42.870,0.051,0.037,1.013
2026/05/14 10:30:42.890,0.05,0.039,1.014
2026/05/14 10:30:42.910,0.052,0.039,1.015
2026/05/14 10:30:42.930,0.051,0.037,1.014
2026/05/14 10:30:42.951,0.05,0.034,1.015
2026/05/14 10:30:42.971,0.055,0.038,1.014
2026/05/14 10:30:42.991,0.051,0.036,1.014
2026/05/14 10:30:43.011,0.052,0.036,1.014
2026/05/14 10:30:43.031,0.05,0.038,1.016
2026/05/14 10:30:43.052,0.057,0.037,1.015
2026/05/14 10:30:43.072,0.052,0.031,1.015
2026/05/14 10:30:43.092,0.054,0.033,1.016
2026/05/14 10:30:43.112,0.051,0.031,1.021
2026/05/14 10:30:43.132,0.055,0.036,1.015
2026/05/14 10:30:43.153,0.049,0.032,1.01
2026/05/14 10:30:43.173,0.052,0.036,1.019
2026/05/14 10:30:43.193,0.061,-0.06,0.836
2026/05/14 10:30:43.213,-0.005,0.022,1.042
2026/05/14 10:30:43.233,0.066,-0.014,0.84
2026/05/14 10:30:43.254,0.037,0.045,1.136
2026/05/14 10:30:43.274,-0.012,0.072,0.862
2026/05/14 10:30:43.294,0.073,0.09,0.976
2026/05/14 10:30:43.314,0.088,0.073,0.971
2026/05/14 10:30:43.334,0.1,0.068,0.898
2026/05/14 10:30:43.355,0.104,0.019,1.003
2026/05/14 10:30:43.375,0.119,-0.022,0.982
2026/05/14 10:30:43.395,0.101,0.006,1.008
2026/05/14 10:30:43.415,0.083,0.025,0.987
2026/05/14 10:30:43.435,0.051,0.023,0.972
2026/05/14 10:30:43.456,0.037,0.022,1.008
2026/05/14 10:30:43.476,0.031,0.042,1.003
2026/05/14 10:30:43.496,0.023,0.064,1.034
2026/05/14 10:30:43.516,0.027,0.062,1.018
2026/05/14 10:30:43.536,0.041,0.047,0.975
2026/05/14 10:30:43.557,0.016,0.032,1.005
2026/05/14 10:30:43.577,0.023,0.017,1.008
2026/05/14 10:30:43.597,0.055,0.015,1.018
2026/05/14 10:30:43.617,0.07,0.031,1.014
2026/05/14 10:30:43.637,0.078,0.044,1.0
2026/05/14 10:30:43.657,0.076,0.049,1.02
2026/05/14 10:30:43.678,0.078,0.054,1.013
2026/05/14 10:30:43.698,0.078,0.041,1.009
2026/05/14 10:30:43.718,0.068,0.033,1.014
2026/05/14 10:30:43.738,0.051,0.027,1.014
2026/05/14 10:30:43.758,0.037,0.028,1.021
2026/05/14 10:30:43.779,0.031,0.035,1.012
2026/05/14 10:30:43.799,0.023,0.043,1.015
2026/05/14 10:30:43.819,0.027,0.043,1.017
2026/05/14 10:30:43.839,0.038,0.041,1.014
2026/05/14 10:30:43.859,0.047,0.033,1.012
2026/05/14 10:30:43.880,0.052,0.031,1.013
2026/05/14 10:30:43.900,0.055,0.031,1.011
2026/05/14 10:30:43.920,0.062,0.032,1.019
2026/05/14 10:30:43.940,0.074,0.034,1.014
2026/05/14 10:30:43.960,0.078,0.035,1.009
2026/05/14 10:30:43.981,0.07,0.044,1.017
2026/05/14 10:30:44.001,0.055,0.038,1.015
2026/05/14 10:30:44.021,0.048,0.036,1.011
2026/05/14 10:30:44.041,0.033,0.034,1.014
2026/05/14 10:30:44.061,0.032,0.039,1.017
2026/05/14 10:30:44.082,0.037,0.039,1.009
2026/05/14 10:30:44.102,0.039,0.034,1.013
2026/05/14 10:30:44.122,0.046,0.035,1.01
2026/05/14 10:30:44.142,0.049,0.031,1.018
2026/05/14 10:30:44.162,0.054,0.032,1.012
2026/05/14 10:30:44.183,0.061,0.037,1.009
2026/05/14 10:30:44.203,0.071,0.038,1.018
2026/05/14 10:30:44.223,0.07,0.039,1.015
2026/05/14 10:30:44.243,0.067,0.035,1.011
2026/05/14 10:30:44.263,0.054,0.03,1.011
2026/05/14 10:30:44.284,0.043,0.033,1.014
2026/05/14 10:30:44.304,0.041,0.035,1.017
2026/05/14 10:30:44.324,0.041,0.038,1.014
2026/05/14 10:30:44.344,0.039,0.042,1.011
2026/05/14 10:30:44.364,0.047,0.043,1.015
2026/05/14 10:30:44.384,0.044,0.037,1.014
2026/05/14 10:30:44.405,0.052,0.031,1.013
2026/05/14 10:30:44.425,0.057,0.03,1.012
2026/05/14 10:30:44.445,0.067,0.036,1.015
2026/05/14 10:30:44.465,0.063,0.037,1.015
2026/05/14 10:30:44.485,0.063,0.037,1.012
2026/05/14 10:30:44.506,0.056,0.038,1.009
2026/05/14 10:30:44.526,0.051,0.039,1.019
2026/05/14 10:30:44.546,0.044,0.036,1.013
2026/05/14 10:30:44.566,0.043,0.04,1.016
2026/05/14 10:30:44.586,0.039,0.039,1.012
2026/05/14 10:30:44.607,0.039,0.037,1.012
2026/05/14 10:30:44.627,0.044,0.036,1.015
2026/05/14 10:30:44.647,0.049,0.037,1.014
2026/05/14 10:30:44.667,0.054,0.037,1.015
2026/05/14 10:30:44.687,0.062,0.034,1.016
2026/05/14 10:30:44.708,0.069,0.032,1.012
2026/05/14 10:30:44.728,0.062,0.032,1.015
2026/05/14 10:30:44.748,0.06,0.033,1.018
2026/05/14 10:30:44.768,0.156,0.042,1.008
2026/05/14 10:30:44.788,0.058,0.046,1.055
2026/05/14 10:30:44.809,0.055,0.042,1.013
2026/05/14 10:30:44.829,0.046,0.058,1.001
2026/05/14 10:30:44.849,0.054,0.045,0.977
2026/05/14 10:30:44.869,0.047,0.029,0.998
2026/05/14 10:30:44.889,0.05,0.021,1.013
2026/05/14 10:30:44.910,0.061,0.021,0.995
2026/05/14 10:30:44.930,0.048,0.029,0.909
2026/05/14 10:30:44.950,0.03,0.035,0.989
2026/05/14 10:30:44.970,0.053,0.052,1.067
2026/05/14 10:30:44.990,0.068,0.046,1.014
2026/05/14 10:30:45.010,0.055,0.047,0.974
2026/05/14 10:30:45.031,0.07,0.006,1.038
2026/05/14 10:30:45.051,0.021,0.012,0.99
2026/05/14 10:30:45.071,0.047,0.037,1.011
2026/05/14 10:30:45.091,0.052,0.046,0.99
2026/05/14 10:30:45.111,0.058,0.047,0.995
2026/05/14 10:30:45.132,0.052,0.039,1.011
2026/05/14 10:30:45.152,0.054,0.034,1.016
2026/05/14 10:30:45.172,0.056,0.03,1.014
2026/05/14 10:30:45.192,0.058,0.037,1.007
2026/05/14 10:30:45.212,0.066,0.033,1.005
2026/05/14 10:30:45.233,0.065,0.031,1.007
2026/05/14 10:30:45.253,0.052,0.035,1.01
2026/05/14 10:30:45.273,0.05,0.04,1.004
2026/05/14 10:30:45.293,0.038,0.042,1.01
2026/05/14 10:30:45.313,0.039,0.043,1.012
2026/05/14 10:30:45.334,0.044,0.048,1.036
2026/05/14 10:30:45.354,0.06,0.031,0.998
2026/05/14 10:30:45.374,0.057,0.033,1.014
2026/05/14 10:30:45.394,0.052,0.027,1.006
2026/05/14 10:30:45.414,0.054,0.04,1.024
2026/05/14 10:30:45.434,0.057,0.037,1.009
2026/05/14 10:30:45.455,0.082,0.002,0.998
2026/05/14 10:30:45.475,0.059,0.035,1.017
2026/05/14 10:30:45.495,0.055,0.033,1.01
2026/05/14 10:30:45.515,0.046,0.032,1.009
2026/05/14 10:30:45.535,0.052,0.03,1.009
2026/05/14 10:30:45.556,0.048,0.036,1.019
2026/05/14 10:30:45.576,0.052,0.036,1.014
2026/05/14 10:30:45.596,0.047,0.04,1.013
2026/05/14 10:30:45.616,0.043,0.038,1.015
2026/05/14 10:30:45.636,0.043,0.039,1.014
2026/05/14 10:30:45.657,0.045,0.042,1.012
2026/05/14 10:30:45.677,0.054,0.036,1.018
2026/05/14 10:30:45.697,0.057,0.032,1.01
2026/05/14 10:30:45.717,0.059,0.034,1.011
2026/05/14 10:30:45.737,0.057,0.035,1.014
2026/05/14 10:30:45.758,0.055,0.039,1.023
2026/05/14 10:30:45.778,0.051,0.036,1.016
2026/05/14 10:30:45.798,0.048,0.037,1.016
2026/05/14 10:30:45.818,0.054,0.034,1.013
2026/05/14 10:30:45.838,0.048,0.037,1.014
2026/05/14 10:30:45.859,0.048,0.033,1.011
2026/05/14 10:30:45.879,0.047,0.038,1.011
2026/05/14 10:30:45.899,0.07,0.045,1.052
2026/05/14 10:30:45.919,0.059,0.041,1.019
2026/05/14 10:30:45.939,0.055,0.037,1.014
2026/05/14 10:30:45.959,0.058,0.045,1.02
2026/05/14 10:30:45.980,0.054,0.036,1.013
2026/05/14 10:30:46.000,0.024,0.043,1.012
2026/05/14 10:30:46.020,-0.024,0.046,0.995
2026/05/14 10:30:46.040,0.049,0.051,1.016
2026/05/14 10:30:46.060,0.042,0.021,0.952
2026/05/14 10:30:46.081,0.048,0.04,1.013
2026/05/14 10:30:46.101,0.032,0.009,0.962
2026/05/14 10:30:46.121,-0.011,0.018,0.995
2026/05/14 10:30:46.141,0.146,0.047,1.052
2026/05/14 10:30:46.161,0.076,0.027,1.019
2026/05/14 10:30:46.182,0.04,0.029,1.012
2026/05/14 10:30:46.202,0.024,0.029,0.987
2026/05/14 10:30:46.222,0.023,0.047,1.017
2026/05/14 10:30:46.242,0.043,0.031,0.996
2026/05/14 10:30:46.262,0.054,0.029,1.006
2026/05/14 10:30:46.283,0.048,0.032,1.02
2026/05/14 10:30:46.303,0.046,0.038,1.022
2026/05/14 10:30:46.323,0.056,0.038,1.01
2026/05/14 10:30:46.343,0.058,0.039,1.003
2026/05/14 10:30:46.363,0.051,0.01,0.922
2026/05/14 10:30:46.384,0.033,0.018,0.968
2026/05/14 10:30:46.404,0.015,0.007,1.02
2026/05/14 10:30:46.424,0.072,0.049,1.018
2026/05/14 10:30:46.444,0.069,0.056,1.003
2026/05/14 10:30:46.464,0.025,0.02,0.984
2026/05/14 10:30:46.484,0.057,0.031,1.031
2026/05/14 10:30:46.505,0.137,0.024,1.057
2026/05/14 10:30:46.525,0.03,0.03,0.98
2026/05/14 10:30:46.545,0.048,0.032,0.999
2026/05/14 10:30:46.565,0.037,0.035,1.011
2026/05/14 10:30:46.585,-0.039,-0.041,0.88
2026/05/14 10:30:46.606,0.097,0.053,1.148
2026/05/14 10:30:46.626,0.033,0.054,1.05
2026/05/14 10:30:46.646,0.074,0.04,0.994
2026/05/14 10:30:46.666,0.068,0.02,1.038
2026/05/14 10:30:46.686,0.063,0.024,1.033
2026/05/14 10:30:46.707,0.066,0.031,1.04
2026/05/14 10:30:46.727,0.068,0.046,0.999
2026/05/14 10:30:46.747,0.067,0.032,1.035
2026/05/14 10:30:46.767,0.038,0.029,1.035
2026/05/14 10:30:46.787,0.043,0.034,1.027
2026/05/14 10:30:46.808,0.04,0.037,1.013
2026/05/14 10:30:46.828,0.045,0.036,1.01
2026/05/14 10:30:46.848,0.048,0.034,1.012
2026/05/14 10:30:46.868,0.039,0.036,1.007
2026/05/14 10:30:46.888,0.047,0.04,1.019
2026/05/14 10:30:46.908,0.053,0.039,1.009
2026/05/14 10:30:46.929,0.063,0.037,1.015
2026/05/14 10:30:46.949,0.065,0.025,1.016
2026/05/14 10:30:46.969,0.062,0.031,1.022
2026/05/14 10:30:46.989,0.062,0.032,1.011
2026/05/14 10:30:47.009,0.062,0.034,1.011
2026/05/14 10:30:47.030,0.052,0.039,1.012
2026/05/14 10:30:47.050,0.045,0.038,1.014
2026/05/14 10:30:47.070,0.04,0.043,1.016
2026/05/14 10:30:47.090,0.038,0.041,1.016
2026/05/14 10:30:47.110,0.042,0.04,1.023
2026/05/14 10:30:47.131,0.05,0.033,1.015
2026/05/14 10:30:47.151,0.055,0.036,1.012
2026/05/14 10:30:47.171,0.059,0.035,1.01
2026/05/14 10:30:47.191,0.061,0.03,1.018
2026/05/14 10:30:47.211,0.068,0.042,1.031
2026/05/14 10:30:47.232,0.062,0.04,1.003
2026/05/14 10:30:47.252,0.075,0.046,1.026
2026/05/14 10:30:47.272,0.047,0.029,1.008
2026/05/14 10:30:47.292,0.028,0.03,1.014
2026/05/14 10:30:47.312,0.031,0.035,1.002
2026/05/14 10:30:47.333,0.045,0.038,1.016
2026/05/14 10:30:47.353,0.044,0.035,1.009
2026/05/14 10:30:47.373,0.048,0.043,1.013
2026/05/14 10:30:47.393,0.059,0.042,1.011
2026/05/14 10:30:47.413,0.044,0.038,1.024
2026/05/14 10:30:47.433,0.072,0.024,1.033
2026/05/14 10:30:47.454,0.115,0.047,1.102
2026/05/14 10:30:47.474,0.111,0.051,1.09
2026/05/14 10:30:47.494,0.032,0.021,0.919
2026/05/14 10:30:47.514,0.021,0.036,1.019
2026/05/14 10:30:47.534,0.053,0.048,1.023
2026/05/14 10:30:47.555,0.08,0.048,1.051
2026/05/14 10:30:47.575,0.022,-0.028,0.949
2026/05/14 10:30:47.595,0.035,0.037,0.985
2026/05/14 10:30:47.615,0.116,0.053,1.075
2026/05/14 10:30:47.635,0.098,-0.004,1.0
2026/05/14 10:30:47.656,0.054,0.036,1.031
2026/05/14 10:30:47.676,0.151,0.013,1.072
2026/05/14 10:30:47.696,-0.009,0.014,0.93
2026/05/14 10:30:47.716,0.053,0.009,0.994
2026/05/14 10:30:47.736,0.108,0.037,1.121
2026/05/14 10:30:47.757,0.074,0.058,1.018
2026/05/14 10:30:47.777,0.076,0.031,1.045
2026/05/14 10:30:47.797,-0.005,0.018,0.968
2026/05/14 10:30:47.817,0.047,0.043,1.021
2026/05/14 10:30:47.837,0.058,0.044,1.013
2026/05/14 10:30:47.857,0.055,0.038,1.018
2026/05/14 10:30:47.878,0.046,0.037,1.013
2026/05/14 10:30:47.898,0.052,0.038,1.017
2026/05/14 10:30:47.918,0.057,0.039,1.016
2026/05/14 10:30:47.938,0.057,0.036,1.013
2026/05/14 10:30:47.958,0.055,0.035,1.013
2026/05/14 10:30:47.979,0.054,0.035,1.018
2026/05/14 10:30:47.999,0.052,0.036,1.016
2026/05/14 10:30:48.019,0.047,0.038,1.012
2026/05/14 10:30:48.039,0.051,0.04,1.014
2026/05/14 10:30:48.059,0.046,0.044,1.013
2026/05/14 10:30:48.080,0.046,0.034,1.012
2026/05/14 10:30:48.100,0.051,0.033,1.017
2026/05/14 10:30:48.120,0.055,0.037,1.015
2026/05/14 10:30:48.140,0.053,0.035,1.013
2026/05/14 10:30:48.160,0.057,0.037,1.012
2026/05/14 10:30:48.181,0.056,0.025,1.002
2026/05/14 10:30:48.201,0.033,0.011,1.01
2026/05/14 10:30:48.221,0.108,0.069,1.091
2026/05/14 10:30:48.241,0.069,0.048,0.964
2026/05/14 10:30:48.261,0.038,0.05,1.009
2026/05/14 10:30:48.282,0.044,0.053,1.015
2026/05/14 10:30:48.302,0.056,0.036,1.011
2026/05/14 10:30:48.322,0.054,0.016,1.014
2026/05/14 10:30:48.342,0.042,0.01,1.025
2026/05/14 10:30:48.362,0.036,0.018,1.022
2026/05/14 10:30:48.382,0.049,0.033,1.016
2026/05/14 10:30:48.403,0.055,0.048,1.011
2026/05/14 10:30:48.423,0.049,0.055,1.017
2026/05/14 10:30:48.443,0.047,0.053,1.012
2026/05/14 10:30:48.463,0.049,0.046,1.02
2026/05/14 10:30:48.483,0.054,0.029,1.021
2026/05/14 10:30:48.504,0.021,0.015,1.016
2026/05/14 10:30:48.524,0.068,0.02,1.018
2026/05/14 10:30:48.544,0.066,0.031,1.001
2026/05/14 10:30:48.564,0.06,0.043,1.011
2026/05/14 10:30:48.584,0.052,0.045,1.018
2026/05/14 10:30:48.605,0.056,0.047,1.018
2026/05/14 10:30:48.625,0.05,0.038,1.012
2026/05/14 10:30:48.645,0.036,0.03,1.019
2026/05/14 10:30:48.665,0.042,0.026,1.023
2026/05/14 10:30:48.685,0.048,0.027,1.017
2026/05/14 10:30:48.706,0.085,0.048,0.98
2026/05/14 10:30:48.726,0.066,0.052,0.951
2026/05/14 10:30:48.746,0.055,0.035,1.037
2026/05/14 10:30:48.766,0.069,0.033,1.089
2026/05/14 10:30:48.786,0.057,0.034,1.039
2026/05/14 10:30:48.806,0.055,0.031,0.997
2026/05/14 10:30:48.827,0.044,0.027,1.016
2026/05/14 10:30:48.847,0.046,0.025,1.048
2026/05/14 10:30:48.867,0.053,0.039,1.022
2026/05/14 10:30:48.887,0.054,0.049,0.999
2026/05/14 10:30:48.907,0.044,0.05,1.003
2026/05/14 10:30:48.928,0.029,0.027,0.824
2026/05/14 10:30:48.948,0.037,0.027,1.034
2026/05/14 10:30:48.968,0.001,0.026,1.001
2026/05/14 10:30:48.988,0.025,0.036,1.087
2026/05/14 10:30:49.008,0.054,0.037,1.017
2026/05/14 10:30:49.029,0.071,0.039,1.019
2026/05/14 10:30:49.049,0.064,0.021,0.873
2026/05/14 10:30:49.069,0.071,0.169,1.122
2026/05/14 10:30:49.089,0.053,0.095,1.014
2026/05/14 10:30:49.109,0.081,0.005,0.951
2026/05/14 10:30:49.130,0.015,-0.03,1.032
2026/05/14 10:30:49.150,0.017,0.046,1.047
2026/05/14 10:30:49.170,-0.051,0.103,1.052
2026/05/14 10:30:49.190,0.012,0.156,0.93
2026/05/14 10:30:49.210,0.025,0.058,0.973
2026/05/14 10:30:49.230,0.022,0.033,0.927
2026/05/14 10:30:49.251,0.047,-0.062,0.999
2026/05/14 10:30:49.271,0.092,0.078,0.913
2026/05/14 10:30:49.291,0.08,0.142,0.966
2026/05/14 10:30:49.311,-0.033,0.16,0.974
2026/05/14 10:30:49.331,-0.039,-0.019,1.069
2026/05/14 10:30:49.352,0.032,-0.082,1.001
2026/05/14 10:30:49.372,-0.001,0.062,0.936
2026/05/14 10:30:49.392,-0.147,-0.084,0.739
2026/05/14 10:30:49.412,-0.063,-0.005,0.892
2026/05/14 10:30:49.432,0.074,0.096,1.179
2026/05/14 10:30:49.453,0.119,0.087,1.019
2026/05/14 10:30:49.473,0.096,0.089,0.972
2026/05/14 10:30:49.493,0.081,0.048,1.164
2026/05/14 10:30:49.513,0.112,0.008,1.151
2026/05/14 10:30:49.533,0.053,0.029,0.944
2026/05/14 10:30:49.554,-0.035,0.07,0.892
2026/05/14 10:30:49.574,-0.072,0.099,0.823
2026/05/14 10:30:49.594,-0.001,0.126,0.781
2026/05/14 10:30:49.614,0.048,0.085,0.881
2026/05/14 10:30:49.634,-0.083,0.077,0.87
2026/05/14 10:30:49.654,-0.029,0.073,0.987
2026/05/14 10:30:49.675,0.042,-0.008,0.98
2026/05/14 10:30:49.695,-0.058,-0.031,0.345
2026/05/14 10:30:49.715,0.009,0.057,0.304
2026/05/14 10:30:49.735,-0.081,0.336,1.01
2026/05/14 10:30:49.755,0.166,-0.153,1.447
2026/05/14 10:30:49.776,0.215,0.186,0.907
2026/05/14 10:30:49.796,0.188,-0.084,1.508
2026/05/14 10:30:49.816,0.01,0.106,0.99
2026/05/14 10:30:49.836,-0.026,0.032,0.89
2026/05/14 10:30:49.856,-0.032,0.031,0.901
2026/05/14 10:30:49.877,-0.056,0.055,0.922
2026/05/14 10:30:49.897,-0.106,0.062,0.919
2026/05/14 10:30:49.917,-0.024,0.175,0.924
2026/05/14 10:30:49.937,0.032,0.193,0.894
2026/05/14 10:30:49.957,0.0,0.107,1.039
2026/05/14 10:30:49.978,-0.116,-0.017,0.475
2026/05/14 10:30:49.998,0.006,-0.051,0.277
2026/05/14 10:30:50.018,0.04,0.039,0.156
2026/05/14 10:30:50.038,-0.062,0.152,1.917
2026/05/14 10:30:50.058,0.243,0.129,0.978
2026/05/14 10:30:50.079,0.048,-0.007,1.294
2026/05/14 10:30:50.099,-0.006,0.077,1.27
2026/05/14 10:30:50.119,-0.001,0.065,1.065
2026/05/14 10:30:50.139,-0.083,0.084,0.952
2026/05/14 10:30:50.159,-0.084,0.016,0.873
2026/05/14 10:30:50.180,-0.113,0.086,0.832
2026/05/14 10:30:50.200,-0.055,0.108,0.916
2026/05/14 10:30:50.220,-0.058,0.187,0.908
2026/05/14 10:30:50.240,-0.06,0.1,1.053
2026/05/14 10:30:50.260,0.144,-0.021,1.43
2026/05/14 10:30:50.280,-0.088,0.096,0.589
2026/05/14 10:30:50.301,-0.143,-0.08,0.537
2026/05/14 10:30:50.321,-0.33,2.816,7.323
2026/05/14 10:30:50.341,0.081,0.003,0.359
2026/05/14 10:30:50.361,0.078,0.168,1.159
2026/05/14 10:30:50.381,-0.012,0.055,0.976
2026/05/14 10:30:50.402,0.063,0.072,0.746
2026/05/14 10:30:50.422,0.067,-0.017,1.052
2026/05/14 10:30:50.442,-0.093,0.046,0.9
2026/05/14 10:30:50.462,-0.06,0.111,0.802
2026/05/14 10:30:50.482,-0.03,0.089,0.902
2026/05/14 10:30:50.503,-0.015,0.173,0.833
2026/05/14 10:30:50.523,-0.011,0.141,0.94
2026/05/14 10:30:50.543,-0.069,-0.01,0.318
2026/05/14 10:30:50.563,-0.316,-0.009,0.993
2026/05/14 10:30:50.583,0.025,-0.072,0.241
2026/05/14 10:30:50.604,0.055,-0.075,0.357
2026/05/14 10:30:50.624,-0.02,-0.086,0.354
2026/05/14 10:30:50.644,0.148,0.158,0.85
2026/05/14 10:30:50.664,0.238,-0.144,1.491
2026/05/14 10:30:50.684,0.108,0.121,0.81
2026/05/14 10:30:50.705,-0.038,0.045,0.81
2026/05/14 10:30:50.725,-0.115,0.108,0.806
2026/05/14 10:30:50.745,-0.01,-0.028,0.964
2026/05/14 10:30:50.765,-0.098,0.11,0.837
2026/05/14 10:30:50.785,-0.115,0.158,0.847
2026/05/14 10:30:50.805,0.062,0.196,1.018
2026/05/14 10:30:50.826,0.013,0.093,0.382
2026/05/14 10:30:50.846,0.049,0.027,0.034
2026/05/14 10:30:50.866,0.073,-0.138,0.639
2026/05/14 10:30:50.886,0.545,-0.165,1.725
2026/05/14 10:30:50.906,0.075,0.113,0.977
2026/05/14 10:30:50.927,0.08,-0.062,1.001
2026/05/14 10:30:50.947,0.194,-0.026,0.87
2026/05/14 10:30:50.967,0.168,-0.076,1.054
2026/05/14 10:30:50.987,0.012,0.045,1.031
2026/05/14 10:30:51.007,0.03,0.026,0.996
2026/05/14 10:30:51.028,-0.001,0.056,1.024
2026/05/14 10:30:51.048,0.055,0.056,1.061
2026/05/14 10:30:51.068,0.056,0.067,0.988
2026/05/14 10:30:51.088,0.068,0.07,0.987
2026/05/14 10:30:51.108,0.042,0.041,0.992
2026/05/14 10:30:51.129,0.01,0.024,1.0
2026/05/14 10:30:51.149,0.031,0.032,1.012
2026/05/14 10:30:51.169,0.063,0.019,1.021
2026/05/14 10:30:51.189,0.089,0.017,1.018
2026/05/14 10:30:51.209,0.1,0.025,1.007
2026/05/14 10:30:51.230,0.092,0.041,1.021
2026/05/14 10:30:51.250,0.067,0.044,1.004
2026/05/14 10:30:51.270,0.042,0.048,1.007
2026/05/14 10:30:51.290,0.032,0.044,1.014
2026/05/14 10:30:51.310,0.034,0.048,1.016
2026/05/14 10:30:51.331,0.042,0.054,1.001
2026/05/14 10:30:51.351,0.04,0.055,1.007
2026/05/14 10:30:51.371,0.036,0.053,1.017
2026/05/14 10:30:51.391,0.036,0.05,1.012
2026/05/14 10:30:51.411,0.038,0.051,1.015
2026/05/14 10:30:51.431,0.066,0.047,1.008
2026/05/14 10:30:51.452,0.073,0.04,1.012
2026/05/14 10:30:51.472,0.088,0.035,1.015
2026/05/14 10:30:51.492,0.081,0.027,1.014
2026/05/14 10:30:51.512,0.068,0.031,1.011
2026/05/14 10:30:51.532,0.056,0.032,1.011
2026/05/14 10:30:51.553,0.053,0.041,1.018
2026/05/14 10:30:51.573,0.052,0.048,1.012
2026/05/14 10:30:51.593,0.046,0.058,1.019
2026/05/14 10:30:51.613,0.043,0.06,1.016
2026/05/14 10:30:51.633,0.036,0.058,1.012
2026/05/14 10:30:51.654,0.035,0.052,1.007
2026/05/14 10:30:51.674,0.044,0.039,1.01
2026/05/14 10:30:51.694,0.058,0.04,1.014
2026/05/14 10:30:51.714,0.065,0.035,1.009
2026/05/14 10:30:51.734,0.07,0.033,1.014
2026/05/14 10:30:51.755,0.074,0.041,1.011
2026/05/14 10:30:51.775,0.07,0.039,1.013
2026/05/14 10:30:51.795,0.066,0.042,1.015
2026/05/14 10:30:51.815,0.054,0.039,1.013
2026/05/14 10:30:51.835,0.051,0.044,1.012
2026/05/14 10:30:51.856,0.042,0.05,1.013
2026/05/14 10:30:51.876,0.039,0.052,1.013
2026/05/14 10:30:51.896,0.042,0.053,1.012
2026/05/14 10:30:51.916,0.045,0.055,1.017
2026/05/14 10:30:51.936,0.047,0.046,1.016
2026/05/14 10:30:51.956,0.054,0.047,1.017
2026/05/14 10:30:51.977,0.057,0.038,1.012
2026/05/14 10:30:51.997,0.064,0.038,1.014
2026/05/14 10:30:52.017,0.068,0.035,1.017
2026/05/14 10:30:52.037,0.071,0.035,1.016
2026/05/14 10:30:52.057,0.062,0.038,1.015
2026/05/14 10:30:52.078,0.058,0.044,1.016
2026/05/14 10:30:52.098,0.049,0.048,1.017
2026/05/14 10:30:52.118,0.043,0.05,1.017
2026/05/14 10:30:52.138,0.046,0.05,1.018
2026/05/14 10:30:52.158,0.05,0.047,1.01
2026/05/14 10:30:52.179,0.048,0.05,1.017
2026/05/14 10:30:52.199,0.047,0.042,1.018
2026/05/14 10:30:52.219,0.052,0.044,1.015
2026/05/14 10:30:52.239,0.057,0.044,1.015
2026/05/14 10:30:52.259,0.063,0.04,1.014
2026/05/14 10:30:52.280,0.065,0.037,1.009
2026/05/14 10:30:52.300,0.068,0.033,1.015
2026/05/14 10:30:52.320,0.061,0.042,1.014
2026/05/14 10:30:52.340,0.056,0.04,1.019
2026/05/14 10:30:52.360,0.051,0.044,1.011
2026/05/14 10:30:52.381,0.047,0.045,1.017
2026/05/14 10:30:52.401,0.049,0.05,1.018
2026/05/14 10:30:52.421,0.049,0.047,1.016
2026/05/14 10:30:52.441,0.046,0.051,1.013
2026/05/14 10:30:52.461,0.05,0.046,1.014
2026/05/14 10:30:52.481,0.052,0.044,1.017
2026/05/14 10:30:52.502,0.059,0.039,1.016
2026/05/14 10:30:52.522,0.063,0.039,1.014
2026/05/14 10:30:52.542,0.061,0.035,1.013
2026/05/14 10:30:52.562,0.06,0.041,1.014
2026/05/14 10:30:52.582,0.058,0.039,1.017
2026/05/14 10:30:52.603,0.055,0.042,1.015
2026/05/14 10:30:52.623,0.053,0.044,1.015
2026/05/14 10:30:52.643,0.051,0.047,1.018
2026/05/14 10:30:52.663,0.043,0.047,1.015
2026/05/14 10:30:52.683,0.047,0.044,1.017
2026/05/14 10:30:52.704,0.053,0.045,1.016
2026/05/14 10:30:52.724,0.051,0.048,1.015
2026/05/14 10:30:52.744,0.057,0.044,1.017
2026/05/14 10:30:52.764,0.063,0.043,1.019
2026/05/14 10:30:52.784,0.056,0.043,1.013
2026/05/14 10:30:52.805,0.059,0.038,1.016
2026/05/14 10:30:52.825,0.062,0.04,1.015
2026/05/14 10:30:52.845,0.055,0.04,1.013
2026/05/14 10:30:52.865,0.058,0.046,1.009
2026/05/14 10:30:52.885,0.054,0.047,1.015
2026/05/14 10:30:52.905,0.052,0.048,1.011
2026/05/14 10:30:52.926,0.048,0.045,1.011
2026/05/14 10:30:52.946,0.051,0.044,1.014
2026/05/14 10:30:52.966,0.05,0.043,1.016
2026/05/14 10:30:52.986,0.056,0.043,1.017
2026/05/14 10:30:53.006,0.056,0.041,1.016
2026/05/14 10:30:53.027,0.061,0.038,1.01
2026/05/14 10:30:53.047,0.059,0.041,1.011
2026/05/14 10:30:53.067,0.061,0.042,1.015
2026/05/14 10:30:53.087,0.055,0.04,1.011
2026/05/14 10:30:53.107,0.052,0.041,1.018
2026/05/14 10:30:53.128,0.05,0.044,1.018
2026/05/14 10:30:53.148,0.052,0.045,1.018
2026/05/14 10:30:53.168,0.051,0.046,1.013
2026/05/14 10:30:53.188,0.05,0.044,1.018
2026/05/14 10:30:53.208,0.051,0.045,1.016
2026/05/14 10:30:53.229,0.054,0.042,1.014
2026/05/14 10:30:53.249,0.057,0.04,1.016
2026/05/14 10:30:53.269,0.061,0.04,1.016
2026/05/14 10:30:53.289,0.056,0.039,1.011
2026/05/14 10:30:53.309,0.059,0.039,1.014
2026/05/14 10:30:53.330,0.058,0.037,1.015
2026/05/14 10:30:53.350,0.056,0.038,1.014
2026/05/14 10:30:53.370,0.05,0.043,1.002
2026/05/14 10:30:53.390,0.043,0.065,1.002
2026/05/14 10:30:53.410,0.079,0.06,1.05
2026/05/14 10:30:53.430,0.068,0.053,0.993
2026/05/14 10:30:53.451,0.073,0.023,1.031
2026/05/14 10:30:53.471,0.063,0.026,1.048
2026/05/14 10:30:53.491,0.053,0.024,0.997
2026/05/14 10:30:53.511,0.02,0.023,0.996
2026/05/14 10:30:53.531,0.017,0.042,1.019
2026/05/14 10:30:53.552,0.028,0.061,1.02
2026/05/14 10:30:53.572,0.054,0.07,1.017
2026/05/14 10:30:53.592,0.066,0.066,1.007
2026/05/14 10:30:53.612,0.061,0.063,1.023
2026/05/14 10:30:53.632,0.051,0.039,1.021
2026/05/14 10:30:53.653,0.047,0.025,1.001
2026/05/14 10:30:53.673,0.052,0.032,1.01
2026/05/14 10:30:53.693,0.064,0.022,1.008
2026/05/14 10:30:53.713,0.077,0.034,1.019
2026/05/14 10:30:53.733,0.08,0.047,1.012
2026/05/14 10:30:53.754,0.066,0.048,1.01
2026/05/14 10:30:53.774,0.049,0.055,1.017
2026/05/14 10:30:53.794,0.037,0.051,1.019
2026/05/14 10:30:53.814,0.043,0.047,1.009
2026/05/14 10:30:53.834,0.044,0.046,1.01
2026/05/14 10:30:53.854,0.052,0.039,1.017
2026/05/14 10:30:53.875,0.046,0.035,1.009
2026/05/14 10:30:53.895,0.045,0.036,1.013
2026/05/14 10:30:53.915,0.044,0.043,1.013
2026/05/14 10:30:53.935,0.051,0.049,1.017
2026/05/14 10:30:53.955,0.068,0.055,1.017
2026/05/14 10:30:53.976,0.074,0.047,1.015
2026/05/14 10:30:53.996,0.071,0.045,1.017
2026/05/14 10:30:54.016,0.064,0.034,1.014
2026/05/14 10:30:54.036,0.054,0.03,1.019
2026/05/14 10:30:54.056,0.052,0.035,1.017
2026/05/14 10:30:54.077,0.053,0.039,1.012
2026/05/14 10:30:54.097,0.056,0.052,1.017
2026/05/14 10:30:54.117,0.057,0.056,1.018
2026/05/14 10:30:54.137,0.051,0.055,1.009
2026/05/14 10:30:54.157,0.046,0.05,1.01
2026/05/14 10:30:54.178,0.043,0.042,1.014
2026/05/14 10:30:54.198,0.05,0.036,1.013
2026/05/14 10:30:54.218,0.051,0.032,1.016
2026/05/14 10:30:54.238,0.059,0.036,1.01
2026/05/14 10:30:54.258,0.059,0.039,1.012
2026/05/14 10:30:54.279,0.061,0.046,1.017
2026/05/14 10:30:54.299,0.061,0.047,1.017
2026/05/14 10:30:54.319,0.06,0.045,1.016
2026/05/14 10:30:54.339,0.059,0.041,1.013
2026/05/14 10:30:54.359,0.058,0.041,1.016
2026/05/14 10:30:54.379,0.056,0.044,1.015
2026/05/14 10:30:54.400,0.049,0.042,1.012
2026/05/14 10:30:54.420,0.049,0.046,1.014
2026/05/14 10:30:54.440,0.046,0.045,1.013
2026/05/14 10:30:54.460,0.051,0.049,1.016
2026/05/14 10:30:54.480,0.052,0.047,1.012
2026/05/14 10:30:54.501,0.051,0.047,1.014
2026/05/14 10:30:54.521,0.053,0.039,1.017
2026/05/14 10:30:54.541,0.058,0.037,1.016
2026/05/14 10:30:54.561,0.058,0.04,1.015
2026/05/14 10:30:54.581,0.062,0.04,1.016
2026/05/14 10:30:54.602,0.065,0.041,1.015
2026/05/14 10:30:54.622,0.062,0.043,1.012
2026/05/14 10:30:54.642,0.057,0.044,1.016
2026/05/14 10:30:54.662,0.051,0.049,1.014
2026/05/14 10:30:54.682,0.051,0.045,1.012
2026/05/14 10:30:54.703,0.05,0.047,1.012
2026/05/14 10:30:54.723,0.051,0.043,1.011
2026/05/14 10:30:54.743,0.048,0.046,1.016
2026/05/14 10:30:54.763,0.052,0.042,1.012
2026/05/14 10:30:54.783,0.052,0.048,1.015
2026/05/14 10:30:54.803,0.056,0.047,1.014
2026/05/14 10:30:54.824,0.055,0.043,1.009
2026/05/14 10:30:54.844,0.057,0.043,1.017
2026/05/14 10:30:54.864,0.061,0.039,1.011
2026/05/14 10:30:54.884,0.061,0.041,1.016
2026/05/14 10:30:54.904,0.06,0.039,1.011
2026/05/14 10:30:54.925,0.059,0.044,1.016
2026/05/14 10:30:54.945,0.058,0.042,1.013
2026/05/14 10:30:54.965,0.053,0.043,1.012
2026/05/14 10:30:54.985,0.051,0.053,1.012
2026/05/14 10:30:55.005,0.051,0.046,1.016
2026/05/14 10:30:55.026,0.05,0.052,1.012
2026/05/14 10:30:55.046,0.049,0.047,1.01
2026/05/14 10:30:55.066,0.052,0.045,1.012
2026/05/14 10:30:55.086,0.052,0.042,1.014
2026/05/14 10:30:55.106,0.053,0.042,1.011
2026/05/14 10:30:55.127,0.054,0.04,1.015
2026/05/14 10:30:55.147,0.057,0.046,1.013
2026/05/14 10:30:55.167,0.059,0.045,1.013
2026/05/14 10:30:55.187,0.061,0.045,1.012
2026/05/14 10:30:55.207,0.058,0.044,1.014
2026/05/14 10:30:55.227,0.056,0.045,1.013
2026/05/14 10:30:55.248,0.054,0.041,1.01
2026/05/14 10:30:55.268,0.052,0.043,1.015
2026/05/14 10:30:55.288,0.052,0.043,1.011
2026/05/14 10:30:55.308,0.052,0.043,1.011
2026/05/14 10:30:55.328,0.054,0.049,1.015
2026/05/14 10:30:55.349,0.053,0.044,1.015
2026/05/14 10:30:55.369,0.052,0.051,1.016
2026/05/14 10:30:55.389,0.053,0.042,1.015
2026/05/14 10:30:55.409,0.054,0.041,1.011
2026/05/14 10:30:55.429,0.055,0.042,1.015
2026/05/14 10:30:55.450,0.055,0.041,1.013
2026/05/14 10:30:55.470,0.062,0.042,1.013
2026/05/14 10:30:55.490,0.059,0.042,1.017
2026/05/14 10:30:55.510,0.052,0.046,1.014
2026/05/14 10:30:55.530,0.056,0.043,1.014
2026/05/14 10:30:55.551,0.053,0.043,1.013
2026/05/14 10:30:55.571,0.051,0.04,1.014
2026/05/14 10:30:55.591,0.053,0.049,1.011
2026/05/14 10:30:55.611,0.051,0.047,1.014
2026/05/14 10:30:55.631,0.048,0.044,1.016
2026/05/14 10:30:55.652,0.055,0.049,1.011
2026/05/14 10:30:55.672,0.051,0.042,1.013
2026/05/14 10:30:55.692,0.057,0.046,1.016
2026/05/14 10:30:55.712,0.056,0.042,1.011
2026/05/14 10:30:55.732,0.059,0.042,1.015
2026/05/14 10:30:55.752,0.058,0.041,1.017
2026/05/14 10:30:55.773,0.058,0.046,1.015
2026/05/14 10:30:55.793,0.054,0.037,1.015
2026/05/14 10:30:55.813,0.055,0.044,1.018
2026/05/14 10:30:55.833,0.054,0.046,1.016
2026/05/14 10:30:55.853,0.053,0.047,1.016
2026/05/14 10:30:55.874,0.054,0.048,1.013
2026/05/14 10:30:55.894,0.053,0.043,1.011
2026/05/14 10:30:55.914,0.056,0.043,1.013
2026/05/14 10:30:55.934,0.055,0.043,1.016
2026/05/14 10:30:55.954,0.055,0.042,1.009
2026/05/14 10:30:55.975,0.055,0.042,1.013
2026/05/14 10:30:55.995,0.058,0.041,1.012
2026/05/14 10:30:56.015,0.053,0.043,1.015
2026/05/14 10:30:56.035,0.058,0.041,1.015
2026/05/14 10:30:56.055,0.059,0.043,1.018
2026/05/14 10:30:56.076,0.055,0.044,1.015
2026/05/14 10:30:56.096,0.053,0.041,1.015
2026/05/14 10:30:56.116,0.054,0.041,1.014
2026/05/14 10:30:56.136,0.054,0.043,1.009
2026/05/14 10:30:56.156,0.052,0.046,1.015
2026/05/14 10:30:56.176,0.052,0.043,1.015
2026/05/14 10:30:56.197,0.054,0.04,1.015
2026/05/14 10:30:56.217,0.051,0.046,1.013
2026/05/14 10:30:56.237,0.054,0.049,1.017
2026/05/14 10:30:56.257,0.056,0.045,1.015
2026/05/14 10:30:56.277,0.054,0.042,1.013
2026/05/14 10:30:56.298,0.053,0.043,1.015
2026/05/14 10:30:56.318,0.059,0.044,1.013
2026/05/14 10:30:56.338,0.054,0.041,1.014
2026/05/14 10:30:56.358,0.054,0.043,1.011
2026/05/14 10:30:56.378,0.055,0.042,1.014
2026/05/14 10:30:56.399,0.054,0.043,1.013
2026/05/14 10:30:56.419,0.055,0.047,1.01
2026/05/14 10:30:56.439,0.054,0.043,1.014
2026/05/14 10:30:56.459,0.051,0.042,1.013
2026/05/14 10:30:56.479,0.053,0.042,1.015
2026/05/14 10:30:56.500,0.053,0.042,1.017
2026/05/14 10:30:56.520,0.059,0.048,1.018
2026/05/14 10:30:56.540,0.053,0.044,1.011
2026/05/14 10:30:56.560,0.054,0.044,1.017
2026/05/14 10:30:56.580,0.052,0.046,1.014
2026/05/14 10:30:56.600,0.057,0.044,1.015
2026/05/14 10:30:56.621,0.057,0.041,1.012
2026/05/14 10:30:56.641,0.06,0.041,1.013
2026/05/14 10:30:56.661,0.053,0.04,1.011
2026/05/14 10:30:56.681,0.055,0.045,1.013
2026/05/14 10:30:56.701,0.053,0.043,1.017
2026/05/14 10:30:56.722,0.056,0.046,1.012
2026/05/14 10:30:56.742,0.056,0.045,1.016
2026/05/14 10:30:56.762,0.052,0.043,1.015
2026/05/14 10:30:56.782,0.054,0.043,1.015
2026/05/14 10:30:56.802,0.052,0.044,1.017
2026/05/14 10:30:56.823,0.055,0.04,1.015
2026/05/14 10:30:56.843,0.051,0.045,1.014
2026/05/14 10:30:56.863,0.056,0.042,1.012
2026/05/14 10:30:56.883,0.055,0.043,1.015
2026/05/14 10:30:56.903,0.056,0.045,1.019
2026/05/14 10:30:56.924,0.058,0.042,1.014
2026/05/14 10:30:56.944,0.054,0.043,1.013
2026/05/14 10:30:56.964,0.052,0.042,1.013
2026/05/14 10:30:56.984,0.057,0.041,1.016
2026/05/14 10:30:57.004,0.056,0.041,1.014
2026/05/14 10:30:57.024,0.057,0.047,1.015
2026/05/14 10:30:57.045,0.048,0.046,1.017
2026/05/14 10:30:57.065,0.054,0.045,1.013
2026/05/14 10:30:57.085,0.055,0.046,1.016
2026/05/14 10:30:57.105,0.054,0.047,1.016
2026/05/14 10:30:57.125,0.053,0.041,1.011
2026/05/14 10:30:57.146,0.056,0.044,1.016
2026/05/14 10:30:57.166,0.055,0.047,1.017
2026/05/14 10:30:57.186,0.055,0.044,1.013
2026/05/14 10:30:57.206,0.054,0.045,1.012
2026/05/14 10:30:57.226,0.054,0.045,1.012
2026/05/14 10:30:57.247,0.057,0.041,1.013
2026/05/14 10:30:57.267,0.056,0.044,1.012
2026/05/14 10:30:57.287,0.053,0.048,1.016
2026/05/14 10:30:57.307,0.054,0.042,1.012
2026/05/14 10:30:57.327,0.054,0.042,1.014
2026/05/14 10:30:57.348,0.055,0.041,1.016
2026/05/14 10:30:57.368,0.054,0.045,1.01
2026/05/14 10:30:57.388,0.057,0.042,1.013
2026/05/14 10:30:57.408,0.054,0.041,1.014
2026/05/14 10:30:57.428,0.055,0.046,1.015
2026/05/14 10:30:57.448,0.055,0.042,1.018
2026/05/14 10:30:57.469,0.056,0.041,1.016
2026/05/14 10:30:57.489,0.056,0.044,1.013
2026/05/14 10:30:57.509,0.054,0.046,1.014
2026/05/14 10:30:57.529,0.056,0.043,1.014
2026/05/14 10:30:57.549,0.056,0.045,1.013
2026/05/14 10:30:57.570,0.05,0.041,1.018
2026/05/14 10:30:57.590,0.056,0.044,1.017
2026/05/14 10:30:57.610,0.054,0.046,1.019
2026/05/14 10:30:57.630,0.057,0.042,1.015
2026/05/14 10:30:57.650,0.054,0.046,1.012
2026/05/14 10:30:57.671,0.055,0.044,1.012
2026/05/14 10:30:57.691,0.058,0.044,1.015
2026/05/14 10:30:57.711,0.052,0.041,1.014
2026/05/14 10:30:57.731,0.054,0.04,1.013
2026/05/14 10:30:57.751,0.053,0.043,1.015
2026/05/14 10:30:57.772,0.053,0.041,1.011
2026/05/14 10:30:57.792,0.054,0.045,1.013
2026/05/14 10:30:57.812,0.054,0.041,1.015
2026/05/14 10:30:57.832,0.051,0.042,1.014
2026/05/14 10:30:57.852,0.057,0.046,1.013
2026/05/14 10:30:57.872,0.053,0.044,1.012
2026/05/14 10:30:57.893,0.055,0.045,1.012
2026/05/14 10:30:57.913,0.054,0.041,1.017
2026/05/14 10:30:57.933,0.052,0.043,1.019
2026/05/14 10:30:57.953,0.054,0.042,1.015
2026/05/14 10:30:57.973,0.051,0.04,1.015
2026/05/14 10:30:57.994,0.052,0.048,1.014
2026/05/14 10:30:58.014,0.053,0.043,1.016
2026/05/14 10:30:58.034,0.053,0.043,1.017
2026/05/14 10:30:58.054,0.053,0.046,1.017
2026/05/14 10:30:58.074,0.056,0.047,1.013
2026/05/14 10:30:58.095,0.053,0.042,1.014
2026/05/14 10:30:58.115,0.056,0.042,1.012
2026/05/14 10:30:58.135,0.054,0.046,1.015
2026/05/14 10:30:58.155,0.052,0.046,1.013
2026/05/14 10:30:58.175,0.053,0.043,1.015
2026/05/14 10:30:58.196,0.056,0.043,1.015
2026/05/14 10:30:58.216,0.054,0.043,1.017
2026/05/14 10:30:58.236,0.052,0.043,1.015
2026/05/14 10:30:58.256,0.049,0.046,1.017
2026/05/14 10:30:58.276,0.052,0.043,1.015
2026/05/14 10:30:58.296,0.054,0.047,1.019
2026/05/14 10:30:58.317,0.056,0.046,1.014
2026/05/14 10:30:58.337,0.056,0.046,1.012
2026/05/14 10:30:58.357,0.048,0.044,1.017
2026/05/14 10:30:58.377,0.053,0.044,1.016
2026/05/14 10:30:58.397,0.055,0.044,1.014
2026/05/14 10:30:58.418,0.057,0.044,1.012
2026/05/14 10:30:58.438,0.056,0.047,1.016
2026/05/14 10:30:58.458,0.054,0.042,1.016
2026/05/14 10:30:58.478,0.051,0.046,1.013
2026/05/14 10:30:58.498,0.056,0.044,1.016
2026/05/14 10:30:58.519,0.054,0.043,1.016
2026/05/14 10:30:58.539,0.053,0.044,1.012
2026/05/14 10:30:58.559,0.052,0.042,1.012
2026/05/14 10:30:58.579,0.057,0.044,1.015
2026/05/14 10:30:58.599,0.053,0.044,1.013
2026/05/14 10:30:58.619,0.053,0.046,1.017
2026/05/14 10:30:58.640,0.054,0.042,1.015
2026/05/14 10:30:58.660,0.056,0.046,1.015
2026/05/14 10:30:58.680,0.056,0.043,1.013
2026/05/14 10:30:58.700,0.055,0.044,1.015
2026/05/14 10:30:58.720,0.054,0.046,1.015
2026/05/14 10:30:58.741,0.054,0.04,1.012
2026/05/14 10:30:58.761,0.054,0.045,1.012
2026/05/14 10:30:58.781,0.054,0.045,1.013
2026/05/14 10:30:58.801,0.055,0.042,1.011
2026/05/14 10:30:58.821,0.058,0.044,1.015
2026/05/14 10:30:58.842,0.056,0.043,1.014
2026/05/14 10:30:58.862,0.056,0.041,1.012
2026/05/14 10:30:58.882,0.057,0.043,1.015
2026/05/14 10:30:58.902,0.054,0.043,1.015
2026/05/14 10:30:58.922,0.053,0.044,1.016
2026/05/14 10:30:58.943,0.055,0.04,1.014
2026/05/14 10:30:58.963,0.058,0.041,1.015
2026/05/14 10:30:58.983,0.054,0.041,1.019
2026/05/14 10:30:59.003,0.055,0.04,1.015
2026/05/14 10:30:59.023,0.054,0.046,1.013
2026/05/14 10:30:59.043,0.054,0.043,1.017
2026/05/14 10:30:59.064,0.056,0.044,1.011
2026/05/14 10:30:59.084,0.051,0.044,1.016
2026/05/14 10:30:59.104,0.052,0.045,1.013
2026/05/14 10:30:59.124,0.056,0.042,1.015
2026/05/14 10:30:59.144,0.054,0.041,1.011
2026/05/14 10:30:59.165,0.054,0.043,1.015
2026/05/14 10:30:59.185,0.055,0.043,1.017
2026/05/14 10:30:59.205,0.054,0.042,1.016
2026/05/14 10:30:59.225,0.056,0.042,1.014
2026/05/14 10:30:59.245,0.053,0.044,1.016
2026/05/14 10:30:59.266,0.052,0.047,1.017
2026/05/14 10:30:59.286,0.051,0.047,1.012
2026/05/14 10:30:59.306,0.054,0.047,1.013
2026/05/14 10:30:59.326,0.051,0.046,1.016
2026/05/14 10:30:59.346,0.056,0.042,1.012
2026/05/14 10:30:59.367,0.055,0.043,1.014
2026/05/14 10:30:59.387,0.055,0.042,1.013
2026/05/14 10:30:59.407,0.055,0.045,1.017
2026/05/14 10:30:59.427,0.055,0.046,1.014
2026/05/14 10:30:59.447,0.052,0.047,1.017
2026/05/14 10:30:59.467,0.059,0.043,1.014
2026/05/14 10:30:59.488,0.054,0.044,1.014
2026/05/14 10:30:59.508,0.053,0.045,1.02
2026/05/14 10:30:59.528,0.056,0.042,1.012
2026/05/14 10:30:59.548,0.055,0.044,1.015
2026/05/14 10:30:59.568,0.055,0.042,1.016
2026/05/14 10:30:59.589,0.056,0.044,1.015
2026/05/14 10:30:59.609,0.054,0.043,1.017
2026/05/14 10:30:59.629,0.055,0.043,1.012
2026/05/14 10:30:59.649,0.053,0.046,1.012
2026/05/14 10:30:59.669,0.052,0.039,1.012
2026/05/14 10:30:59.690,0.059,0.045,1.019
2026/05/14 10:30:59.710,0.052,0.047,1.015
2026/05/14 10:30:59.730,0.051,0.043,1.014
2026/05/14 10:30:59.750,0.052,0.044,1.011
2026/05/14 10:30:59.770,0.051,0.04,1.017
2026/05/14 10:30:59.791,0.055,0.043,1.016
2026/05/14 10:30:59.811,0.055,0.042,1.012
2026/05/14 10:30:59.831,0.054,0.044,1.014
2026/05/14 10:30:59.851,0.052,0.044,1.016
2026/05/14 10:30:59.871,0.055,0.039,1.012
2026/05/14 10:30:59.891,0.052,0.044,1.013
2026/05/14 10:30:59.912,0.055,0.043,1.018
2026/05/14 10:30:59.932,0.059,0.045,1.015
2026/05/14 10:30:59.952,0.056,0.044,1.017
2026/05/14 10:30:59.972,0.057,0.044,1.014
2026/05/14 10:30:59.992,0.054,0.042,1.016
2026/05/14 10:31:00.013,0.053,0.044,1.014
2026/05/14 10:31:00.033,0.056,0.044,1.014
2026/05/14 10:31:00.053,0.055,0.041,1.017
2026/05/14 10:31:00.073,0.057,0.045,1.016
2026/05/14 10:31:00.093,0.057,0.047,1.012
2026/05/14 10:31:00.114,0.054,0.04,1.015
2026/05/14 10:31:00.134,0.057,0.046,1.016
2026/05/14 10:31:00.154,0.058,0.044,1.018
2026/05/14 10:31:00.174,0.056,0.044,1.016
2026/05/14 10:31:00.194,0.053,0.046,1.012
2026/05/14 10:31:00.215,0.058,0.04,1.015
2026/05/14 10:31:00.235,0.051,0.047,1.017
2026/05/14 10:31:00.255,0.053,0.047,1.012
2026/05/14 10:31:00.275,0.056,0.046,1.017
2026/05/14 10:31:00.295,0.054,0.045,1.019
2026/05/14 10:31:00.315,0.053,0.044,1.015
2026/05/14 10:31:00.336,0.057,0.045,1.016
2026/05/14 10:31:00.356,0.053,0.046,1.011
2026/05/14 10:31:00.376,0.053,0.042,1.014
2026/05/14 10:31:00.396,0.055,0.041,1.013
2026/05/14 10:31:00.416,0.055,0.041,1.015
2026/05/14 10:31:00.437,0.051,0.042,1.014
2026/05/14 10:31:00.457,0.052,0.042,1.016
2026/05/14 10:31:00.477,0.055,0.044,1.014
2026/05/14 10:31:00.497,0.052,0.042,1.015
2026/05/14 10:31:00.517,0.055,0.046,1.014
2026/05/14 10:31:00.538,0.056,0.042,1.01
2026/05/14 10:31:00.558,0.054,0.046,1.013
2026/05/14 10:31:00.578,0.054,0.043,1.016
2026/05/14 10:31:00.598,0.053,0.043,1.011
2026/05/14 10:31:00.618,0.056,0.043,1.015
2026/05/14 10:31:00.639,0.056,0.041,1.012
2026/05/14 10:31:00.659,0.054,0.047,1.017
2026/05/14 10:31:00.679,0.054,0.044,1.014
2026/05/14 10:31:00.699,0.055,0.045,1.012
2026/05/14 10:31:00.719,0.052,0.045,1.013
2026/05/14 10:31:00.739,0.055,0.041,1.013
2026/05/14 10:31:00.760,0.057,0.045,1.013
2026/05/14 10:31:00.780,0.052,0.043,1.013
2026/05/14 10:31:00.800,0.055,0.041,1.019
2026/05/14 10:31:00.820,0.054,0.043,1.013
2026/05/14 10:31:00.840,0.055,0.047,1.013
2026/05/14 10:31:00.861,0.054,0.047,1.015
2026/05/14 10:31:00.881,0.059,0.042,1.016
2026/05/14 10:31:00.901,0.057,0.043,1.015
2026/05/14 10:31:00.921,0.054,0.043,1.012
2026/05/14 10:31:00.941,0.054,0.043,1.015
2026/05/14 10:31:00.962,0.052,0.043,1.016
2026/05/14 10:31:00.982,0.052,0.045,1.016
2026/05/14 10:31:01.002,0.052,0.042,1.014
2026/05/14 10:31:01.022,0.053,0.045,1.016
2026/05/14 10:31:01.042,0.054,0.047,1.014
2026/05/14 10:31:01.063,0.057,0.043,1.017
2026/05/14 10:31:01.083,0.055,0.046,1.016
2026/05/14 10:31:01.103,0.052,0.043,1.015
2026/05/14 10:31:01.123,0.058,0.043,1.016
2026/05/14 10:31:01.143,0.056,0.045,1.018
2026/05/14 10:31:01.164,0.054,0.042,1.014
2026/05/14 10:31:01.184,0.055,0.042,1.015
2026/05/14 10:31:01.204,0.051,0.043,1.013
2026/05/14 10:31:01.224,0.053,0.043,1.015
2026/05/14 10:31:01.244,0.053,0.043,1.014
2026/05/14 10:31:01.264,0.054,0.047,1.018
2026/05/14 10:31:01.285,0.055,0.047,1.015
2026/05/14 10:31:01.305,0.058,0.043,1.019
2026/05/14 10:31:01.325,0.051,0.043,1.016
2026/05/14 10:31:01.345,0.055,0.041,1.015
2026/05/14 10:31:01.365,0.058,0.045,1.02
2026/05/14 10:31:01.386,0.054,0.043,1.017
2026/05/14 10:31:01.406,0.056,0.047,1.016
2026/05/14 10:31:01.426,0.056,0.044,1.012
2026/05/14 10:31:01.446,0.055,0.044,1.012
2026/05/14 10:31:01.466,0.056,0.044,1.016
2026/05/14 10:31:01.487,0.054,0.044,1.015
2026/05/14 10:31:01.507,0.055,0.045,1.011
2026/05/14 10:31:01.527,0.056,0.046,1.013
2026/05/14 10:31:01.547,0.055,0.044,1.009
2026/05/14 10:31:01.567,0.054,0.043,1.013
2026/05/14 10:31:01.588,0.057,0.041,1.012
2026/05/14 10:31:01.608,0.055,0.044,1.011
2026/05/14 10:31:01.628,0.054,0.04,1.013
2026/05/14 10:31:01.648,0.056,0.045,1.012
2026/05/14 10:31:01.668,0.054,0.042,1.015
2026/05/14 10:31:01.688,0.056,0.044,1.018
2026/05/14 10:31:01.709,0.054,0.044,1.013
2026/05/14 10:31:01.729,0.056,0.045,1.015
2026/05/14 10:31:01.749,0.053,0.049,1.016
2026/05/14 10:31:01.769,0.051,0.042,1.019
2026/05/14 10:31:01.789,0.056,0.049,1.013
2026/05/14 10:31:01.810,0.055,0.042,1.019
2026/05/14 10:31:01.830,0.057,0.041,1.015
2026/05/14 10:31:01.850,0.052,0.042,1.016
2026/05/14 10:31:01.870,0.053,0.044,1.014
2026/05/14 10:31:01.890,0.054,0.046,1.017
2026/05/14 10:31:01.911,0.056,0.044,1.014
2026/05/14 10:31:01.931,0.053,0.044,1.013
2026/05/14 10:31:01.951,0.053,0.045,1.016
2026/05/14 10:31:01.971,0.054,0.043,1.013
2026/05/14 10:31:01.991,0.051,0.044,1.016
2026/05/14 10:31:02.012,0.057,0.046,1.017
2026/05/14 10:31:02.032,0.051,0.041,1.014
2026/05/14 10:31:02.052,0.051,0.047,1.013
2026/05/14 10:31:02.072,0.057,0.041,1.016
2026/05/14 10:31:02.092,0.053,0.043,1.012
2026/05/14 10:31:02.113,0.056,0.042,1.015
2026/05/14 10:31:02.133,0.055,0.047,1.015
2026/05/14 10:31:02.153,0.056,0.043,1.019
2026/05/14 10:31:02.173,0.054,0.047,1.012
2026/05/14 10:31:02.193,0.054,0.043,1.016
2026/05/14 10:31:02.213,0.055,0.042,1.01
2026/05/14 10:31:02.234,0.054,0.041,1.016
2026/05/14 10:31:02.254,0.055,0.043,1.015
2026/05/14 10:31:02.274,0.055,0.043,1.012
2026/05/14 10:31:02.294,0.051,0.046,1.014
2026/05/14 10:31:02.314,0.06,0.044,1.015
2026/05/14 10:31:02.335,0.054,0.041,1.013
2026/05/14 10:31:02.355,0.059,0.045,1.02
2026/05/14 10:31:02.375,0.056,0.045,1.015
2026/05/14 10:31:02.395,0.055,0.047,1.017
2026/05/14 10:31:02.415,0.055,0.046,1.014
2026/05/14 10:31:02.436,0.055,0.044,1.019
2026/05/14 10:31:02.456,0.055,0.041,1.017
2026/05/14 10:31:02.476,0.052,0.043,1.016
2026/05/14 10:31:02.496,0.056,0.041,1.016
2026/05/14 10:31:02.516,0.057,0.041,1.012
2026/05/14 10:31:02.537,0.055,0.042,1.017
2026/05/14 10:31:02.557,0.057,0.044,1.014
2026/05/14 10:31:02.577,0.053,0.043,1.016
2026/05/14 10:31:02.597,0.053,0.042,1.013
2026/05/14 10:31:02.617,0.054,0.044,1.015
2026/05/14 10:31:02.637,0.053,0.043,1.018
2026/05/14 10:31:02.658,0.058,0.045,1.014
2026/05/14 10:31:02.678,0.058,0.048,1.016
2026/05/14 10:31:02.698,0.05,0.04,1.01
2026/05/14 10:31:02.718,0.051,0.047,1.015
2026/05/14 10:31:02.738,0.054,0.046,1.013
2026/05/14 10:31:02.759,0.055,0.044,1.016
2026/05/14 10:31:02.779,0.054,0.045,1.015
2026/05/14 10:31:02.799,0.052,0.041,1.013
2026/05/14 10:31:02.819,0.052,0.044,1.016
2026/05/14 10:31:02.839,0.054,0.045,1.014
2026/05/14 10:31:02.860,0.055,0.047,1.012
2026/05/14 10:31:02.880,0.052,0.047,1.016
2026/05/14 10:31:02.900,0.057,0.044,1.013
2026/05/14 10:31:02.920,0.052,0.045,1.012
2026/05/14 10:31:02.940,0.055,0.046,1.015
2026/05/14 10:31:02.961,0.055,0.041,1.015
2026/05/14 10:31:02.981,0.051,0.042,1.014
2026/05/14 10:31:03.001,0.051,0.044,1.015
2026/05/14 10:31:03.021,0.057,0.046,1.019
2026/05/14 10:31:03.041,0.058,0.044,1.013
2026/05/14 10:31:03.062,0.055,0.042,1.013
2026/05/14 10:31:03.082,0.056,0.04,1.016
2026/05/14 10:31:03.102,0.05,0.047,1.018
2026/05/14 10:31:03.122,0.054,0.044,1.012
2026/05/14 10:31:03.142,0.054,0.043,1.019
2026/05/14 10:31:03.162,0.055,0.044,1.017
2026/05/14 10:31:03.183,0.057,0.045,1.014
2026/05/14 10:31:03.203,0.057,0.044,1.012
2026/05/14 10:31:03.223,0.053,0.043,1.016
2026/05/14 10:31:03.243,0.055,0.045,1.015
2026/05/14 10:31:03.263,0.053,0.043,1.014
2026/05/14 10:31:03.284,0.058,0.045,1.015
2026/05/14 10:31:03.304,0.055,0.044,1.012
2026/05/14 10:31:03.324,0.055,0.042,1.012
2026/05/14 10:31:03.344,0.052,0.044,1.017
2026/05/14 10:31:03.364,0.053,0.04,1.011
2026/05/14 10:31:03.385,0.054,0.042,1.014
2026/05/14 10:31:03.405,0.055,0.041,1.014
2026/05/14 10:31:03.425,0.054,0.046,1.011
2026/05/14 10:31:03.445,0.054,0.04,1.015
2026/05/14 10:31:03.465,0.055,0.042,1.013
2026/05/14 10:31:03.486,0.055,0.044,1.011
2026/05/14 10:31:03.506,0.057,0.041,1.011
2026/05/14 10:31:03.526,0.056,0.041,1.013
2026/05/14 10:31:03.546,0.055,0.044,1.019
2026/05/14 10:31:03.566,0.065,0.038,1.014
2026/05/14 10:31:03.586,0.042,0.046,1.008
2026/05/14 10:31:03.607,0.057,0.041,1.043
2026/05/14 10:31:03.627,0.064,0.04,1.043
2026/05/14 10:31:03.647,0.049,0.041,1.015
2026/05/14 10:31:03.667,0.04,0.05,0.997
2026/05/14 10:31:03.687,0.056,0.041,1.024
2026/05/14 10:31:03.708,0.052,0.04,1.023
2026/05/14 10:31:03.728,0.051,0.041,1.008
2026/05/14 10:31:03.748,0.057,0.044,1.014
2026/05/14 10:31:03.768,0.053,0.039,1.018
2026/05/14 10:31:03.788,0.053,0.045,1.024
2026/05/14 10:31:03.809,0.052,0.044,1.017
2026/05/14 10:31:03.829,0.045,0.043,1.015
2026/05/14 10:31:03.849,0.051,0.041,1.012
2026/05/14 10:31:03.869,0.056,0.047,1.018
2026/05/14 10:31:03.889,0.059,0.046,1.01
2026/05/14 10:31:03.910,0.059,0.044,1.015
2026/05/14 10:31:03.930,0.054,0.046,1.023
2026/05/14 10:31:03.950,0.055,0.042,1.016
2026/05/14 10:31:03.970,0.05,0.044,1.015
2026/05/14 10:31:03.990,0.056,0.039,1.011
2026/05/14 10:31:04.011,0.054,0.041,1.019
2026/05/14 10:31:04.031,0.05,0.046,1.016
2026/05/14 10:31:04.051,0.053,0.043,1.014
2026/05/14 10:31:04.071,0.05,0.047,1.013
2026/05/14 10:31:04.091,0.055,0.046,1.013
2026/05/14 10:31:04.111,0.051,0.044,1.012
2026/05/14 10:31:04.132,0.053,0.046,1.011
2026/05/14 10:31:04.152,0.052,0.042,1.016
2026/05/14 10:31:04.172,0.053,0.04,1.012
2026/05/14 10:31:04.192,0.054,0.04,1.015
2026/05/14 10:31:04.212,0.056,0.04,1.019
2026/05/14 10:31:04.233,0.056,0.044,1.017
2026/05/14 10:31:04.253,0.055,0.045,1.016
2026/05/14 10:31:04.273,0.051,0.041,1.017
2026/05/14 10:31:04.293,0.052,0.04,1.008
2026/05/14 10:31:04.313,0.055,0.045,1.014
2026/05/14 10:31:04.334,0.054,0.042,1.014
2026/05/14 10:31:04.354,0.055,0.045,1.013
2026/05/14 10:31:04.374,0.052,0.043,1.013
2026/05/14 10:31:04.394,0.053,0.044,1.014
2026/05/14 10:31:04.414,0.058,0.045,1.019
2026/05/14 10:31:04.435,0.054,0.046,1.014
2026/05/14 10:31:04.455,0.056,0.041,1.017
2026/05/14 10:31:04.475,0.056,0.043,1.015
2026/05/14 10:31:04.495,0.057,0.041,1.013
2026/05/14 10:31:04.515,0.058,0.041,1.015
2026/05/14 10:31:04.535,0.054,0.044,1.013
2026/05/14 10:31:04.556,0.054,0.046,1.017
2026/05/14 10:31:04.576,0.056,0.046,1.013
2026/05/14 10:31:04.596,0.052,0.045,1.015
2026/05/14 10:31:04.616,0.052,0.043,1.015
2026/05/14 10:31:04.636,0.052,0.043,1.018
2026/05/14 10:31:04.657,0.053,0.04,1.015
2026/05/14 10:31:04.677,0.056,0.041,1.014
2026/05/14 10:31:04.697,0.052,0.044,1.013
2026/05/14 10:31:04.717,0.058,0.044,1.015
2026/05/14 10:31:04.737,0.054,0.045,1.015
2026/05/14 10:31:04.758,0.056,0.041,1.012
2026/05/14 10:31:04.778,0.057,0.041,1.015
2026/05/14 10:31:04.798,0.054,0.041,1.016
2026/05/14 10:31:04.818,0.054,0.042,1.014
2026/05/14 10:31:04.838,0.056,0.041,1.013
2026/05/14 10:31:04.859,0.058,0.044,1.015
2026/05/14 10:31:04.879,0.053,0.042,1.016
2026/05/14 10:31:04.899,0.053,0.043,1.015
2026/05/14 10:31:04.919,0.05,0.044,1.017
2026/05/14 10:31:04.939,0.05,0.047,1.015
2026/05/14 10:31:04.960,0.052,0.043,1.015
2026/05/14 10:31:04.980,0.055,0.044,1.014
2026/05/14 10:31:05.000,0.052,0.044,1.013
2026/05/14 10:31:05.020,0.054,0.043,1.018
2026/05/14 10:31:05.040,0.053,0.041,1.017
2026/05/14 10:31:05.060,0.054,0.043,1.013
2026/05/14 10:31:05.081,0.054,0.046,1.014
2026/05/14 10:31:05.101,0.052,0.041,1.016
2026/05/14 10:31:05.121,0.056,0.04,1.015
2026/05/14 10:31:05.141,0.054,0.039,1.014
2026/05/14 10:31:05.161,0.054,0.046,1.014
2026/05/14 10:31:05.182,0.054,0.042,1.014
2026/05/14 10:31:05.202,0.055,0.047,1.013
2026/05/14 10:31:05.222,0.054,0.045,1.014
2026/05/14 10:31:05.242,0.052,0.045,1.016
2026/05/14 10:31:05.262,0.056,0.04,1.016
2026/05/14 10:31:05.283,0.052,0.042,1.014
2026/05/14 10:31:05.303,0.054,0.044,1.013
2026/05/14 10:31:05.323,0.054,0.041,1.016
2026/05/14 10:31:05.343,0.055,0.045,1.018
2026/05/14 10:31:05.363,0.055,0.037,1.014
2026/05/14 10:31:05.384,0.054,0.042,1.016
2026/05/14 10:31:05.404,0.058,0.046,1.014
2026/05/14 10:31:05.424,0.054,0.045,1.017
2026/05/14 10:31:05.444,0.052,0.04,1.016
2026/05/14 10:31:05.464,0.058,0.043,1.013
2026/05/14 10:31:05.484,0.055,0.04,1.014
2026/05/14 10:31:05.505,0.053,0.044,1.018
2026/05/14 10:31:05.525,0.056,0.047,1.017
2026/05/14 10:31:05.545,0.051,0.044,1.014
2026/05/14 10:31:05.565,0.054,0.041,1.016
2026/05/14 10:31:05.585,0.053,0.046,1.015
2026/05/14 10:31:05.606,0.057,0.037,1.015
2026/05/14 10:31:05.626,0.05,0.044,1.017
2026/05/14 10:31:05.646,0.052,0.044,1.017
2026/05/14 10:31:05.666,0.049,0.041,1.013
2026/05/14 10:31:05.686,0.055,0.043,1.016
2026/05/14 10:31:05.707,0.055,0.048,1.013
2026/05/14 10:31:05.727,0.061,0.049,1.013
2026/05/14 10:31:05.747,0.058,0.045,1.014
2026/05/14 10:31:05.767,0.062,0.04,1.012
2026/05/14 10:31:05.787,0.055,0.037,1.012
2026/05/14 10:31:05.808,0.06,0.037,1.016
2026/05/14 10:31:05.828,0.048,0.04,1.012
2026/05/14 10:31:05.848,0.059,0.048,1.018
2026/05/14 10:31:05.868,0.051,0.045,1.006
2026/05/14 10:31:05.888,0.053,0.054,1.019
2026/05/14 10:31:05.909,0.057,0.05,1.009
2026/05/14 10:31:05.929,0.045,0.044,1.019
2026/05/14 10:31:05.949,0.054,0.037,1.019
2026/05/14 10:31:05.969,0.059,0.038,1.016
2026/05/14 10:31:05.989,0.055,0.041,1.013
2026/05/14 10:31:06.009,0.056,0.044,1.01
2026/05/14 10:31:06.030,0.056,0.047,1.021
2026/05/14 10:31:06.050,0.054,0.046,1.014
2026/05/14 10:31:06.070,0.053,0.043,1.017
2026/05/14 10:31:06.090,0.06,0.044,1.012
2026/05/14 10:31:06.110,0.057,0.04,1.017
2026/05/14 10:31:06.131,-0.01,0.045,0.798
2026/05/14 10:31:06.151,0.088,-0.036,0.865
2026/05/14 10:31:06.171,0.049,0.091,0.864
2026/05/14 10:31:06.191,0.113,-0.064,1.094
2026/05/14 10:31:06.211,0.055,0.034,1.054
2026/05/14 10:31:06.232,0.074,0.049,1.018
2026/05/14 10:31:06.252,0.072,0.054,1.021
2026/05/14 10:31:06.272,0.057,0.037,1.014
2026/05/14 10:31:06.292,0.054,0.047,1.027
2026/05/14 10:31:06.312,0.047,0.061,1.016
2026/05/14 10:31:06.333,0.041,0.062,1.012
2026/05/14 10:31:06.353,0.038,0.057,1.021
2026/05/14 10:31:06.373,0.037,0.044,1.022
2026/05/14 10:31:06.393,0.04,0.037,1.012
2026/05/14 10:31:06.413,0.05,0.034,1.016
2026/05/14 10:31:06.434,0.057,0.037,1.021
2026/05/14 10:31:06.454,0.059,0.053,1.021
2026/05/14 10:31:06.474,0.053,0.054,1.005
2026/05/14 10:31:06.494,0.06,0.047,1.022
2026/05/14 10:31:06.514,0.077,0.028,1.04
2026/05/14 10:31:06.534,0.084,0.024,1.023
2026/05/14 10:31:06.555,0.057,0.049,0.997
2026/05/14 10:31:06.575,0.054,0.035,1.023
2026/05/14 10:31:06.595,0.041,0.04,1.039
2026/05/14 10:31:06.615,0.044,0.049,1.029
2026/05/14 10:31:06.635,0.049,0.053,1.009
2026/05/14 10:31:06.656,0.042,0.05,1.016
2026/05/14 10:31:06.676,0.046,0.042,1.035
2026/05/14 10:31:06.696,0.04,0.045,1.03
2026/05/14 10:31:06.716,0.049,0.038,1.018
2026/05/14 10:31:06.736,0.055,0.032,1.016
2026/05/14 10:31:06.757,0.061,0.037,1.028
2026/05/14 10:31:06.777,0.07,0.04,1.024
2026/05/14 10:31:06.797,0.072,0.044,1.013
2026/05/14 10:31:06.817,0.066,0.043,1.01
2026/05/14 10:31:06.837,0.057,0.036,1.024
2026/05/14 10:31:06.858,0.049,0.037,1.028
2026/05/14 10:31:06.878,0.047,0.041,1.013
2026/05/14 10:31:06.898,0.044,0.048,1.016
2026/05/14 10:31:06.918,0.046,0.042,1.012
2026/05/14 10:31:06.938,0.047,0.048,1.012
2026/05/14 10:31:06.959,0.043,0.048,1.016
2026/05/14 10:31:06.979,0.047,0.045,1.014
2026/05/14 10:31:06.999,0.051,0.042,1.023
2026/05/14 10:31:07.019,0.052,0.04,1.019
2026/05/14 10:31:07.039,0.059,0.04,1.021
2026/05/14 10:31:07.060,0.066,0.041,1.01
2026/05/14 10:31:07.080,0.064,0.036,1.017
2026/05/14 10:31:07.100,0.064,0.04,1.02
2026/05/14 10:31:07.120,0.059,0.039,1.016
2026/05/14 10:31:07.140,0.057,0.042,1.015
2026/05/14 10:31:07.160,0.05,0.043,1.015
2026/05/14 10:31:07.181,0.051,0.05,1.014
2026/05/14 10:31:07.201,0.047,0.049,1.015
2026/05/14 10:31:07.221,0.047,0.048,1.015
2026/05/14 10:31:07.241,0.047,0.046,1.013
2026/05/14 10:31:07.261,0.049,0.046,1.012
2026/05/14 10:31:07.282,0.051,0.042,1.017
2026/05/14 10:31:07.302,0.056,0.046,1.016
2026/05/14 10:31:07.322,0.059,0.041,1.015
2026/05/14 10:31:07.342,0.064,0.042,1.013
2026/05/14 10:31:07.362,0.065,0.043,1.014
2026/05/14 10:31:07.383,0.063,0.043,1.014
2026/05/14 10:31:07.403,0.056,0.041,1.012
2026/05/14 10:31:07.423,0.051,0.04,1.013
2026/05/14 10:31:07.443,0.052,0.037,1.013
2026/05/14 10:31:07.463,0.049,0.043,1.012
2026/05/14 10:31:07.484,0.046,0.051,1.017
2026/05/14 10:31:07.504,0.046,0.045,1.017
2026/05/14 10:31:07.524,0.052,0.049,1.012
2026/05/14 10:31:07.544,0.051,0.043,1.012
2026/05/14 10:31:07.564,0.051,0.044,1.016
2026/05/14 10:31:07.585,0.056,0.042,1.012
2026/05/14 10:31:07.605,0.053,0.044,1.015
2026/05/14 10:31:07.625,0.061,0.047,1.015
2026/05/14 10:31:07.645,0.061,0.047,1.012
2026/05/14 10:31:07.665,0.062,0.044,1.019
2026/05/14 10:31:07.685,0.059,0.039,1.015
2026/05/14 10:31:07.706,0.053,0.043,1.016
2026/05/14 10:31:07.726,0.054,0.042,1.014
2026/05/14 10:31:07.746,0.05,0.051,1.017
2026/05/14 10:31:07.766,0.049,0.047,1.014
2026/05/14 10:31:07.786,0.051,0.044,1.011
2026/05/14 10:31:07.807,0.046,0.046,1.017
2026/05/14 10:31:07.827,0.05,0.046,1.013
2026/05/14 10:31:07.847,0.051,0.045,1.012
2026/05/14 10:31:07.867,0.053,0.04,1.012
2026/05/14 10:31:07.887,0.054,0.037,1.014
2026/05/14 10:31:07.908,0.059,0.042,1.015
2026/05/14 10:31:07.928,0.057,0.043,1.017
2026/05/14 10:31:07.948,0.058,0.042,1.02
2026/05/14 10:31:07.968,0.06,0.041,1.011
2026/05/14 10:31:07.988,0.051,0.04,1.016
2026/05/14 10:31:08.009,0.052,0.046,1.018
2026/05/14 10:31:08.029,0.053,0.042,1.01
2026/05/14 10:31:08.049,0.049,0.045,1.015
2026/05/14 10:31:08.069,0.05,0.047,1.01
2026/05/14 10:31:08.089,0.05,0.045,1.014
2026/05/14 10:31:08.110,0.051,0.042,1.013
2026/05/14 10:31:08.130,0.053,0.042,1.011
2026/05/14 10:31:08.150,0.052,0.041,1.014
2026/05/14 10:31:08.170,0.056,0.043,1.012
2026/05/14 10:31:08.190,0.06,0.039,1.015
2026/05/14 10:31:08.210,0.059,0.044,1.015
2026/05/14 10:31:08.231,0.057,0.044,1.02
2026/05/14 10:31:08.251,0.057,0.041,1.006
2026/05/14 10:31:08.271,0.055,0.041,1.016
2026/05/14 10:31:08.291,0.055,0.044,1.013
2026/05/14 10:31:08.311,0.051,0.046,1.02
2026/05/14 10:31:08.332,0.047,0.043,1.016
2026/05/14 10:31:08.352,0.049,0.043,1.013
2026/05/14 10:31:08.372,0.051,0.044,1.016
2026/05/14 10:31:08.392,0.057,0.044,1.015
2026/05/14 10:31:08.412,0.053,0.045,1.012
2026/05/14 10:31:08.433,0.054,0.044,1.015
2026/05/14 10:31:08.453,0.054,0.04,1.012
2026/05/14 10:31:08.473,0.056,0.041,1.019
2026/05/14 10:31:08.493,0.059,0.044,1.01
2026/05/14 10:31:08.513,0.056,0.045,1.014
2026/05/14 10:31:08.534,0.057,0.043,1.011
2026/05/14 10:31:08.554,0.055,0.035,1.013
2026/05/14 10:31:08.574,0.054,0.047,1.015
2026/05/14 10:31:08.594,0.055,0.044,1.016
2026/05/14 10:31:08.614,0.054,0.045,1.011
2026/05/14 10:31:08.635,0.054,0.046,1.012
2026/05/14 10:31:08.655,0.051,0.041,1.016
2026/05/14 10:31:08.675,0.053,0.039,1.018
2026/05/14 10:31:08.695,0.052,0.044,1.015
2026/05/14 10:31:08.715,0.058,0.043,1.012
2026/05/14 10:31:08.735,0.056,0.036,1.01
2026/05/14 10:31:08.756,0.054,0.039,1.013
2026/05/14 10:31:08.776,0.056,0.041,1.021
2026/05/14 10:31:08.796,0.054,0.044,1.014
2026/05/14 10:31:08.816,0.056,0.042,1.014
2026/05/14 10:31:08.836,0.055,0.04,1.014
2026/05/14 10:31:08.857,0.053,0.04,1.015
2026/05/14 10:31:08.877,0.051,0.047,1.013
2026/05/14 10:31:08.897,0.051,0.042,1.014
2026/05/14 10:31:08.917,0.051,0.048,1.014
2026/05/14 10:31:08.937,0.053,0.045,1.017
2026/05/14 10:31:08.958,0.054,0.043,1.016
2026/05/14 10:31:08.978,0.054,0.045,1.015
2026/05/14 10:31:08.998,0.051,0.043,1.011
2026/05/14 10:31:09.018,0.055,0.044,1.017
2026/05/14 10:31:09.038,0.054,0.043,1.017
2026/05/14 10:31:09.059,0.056,0.04,1.015
2026/05/14 10:31:09.079,0.057,0.044,1.013
2026/05/14 10:31:09.099,0.056,0.044,1.014
2026/05/14 10:31:09.119,0.059,0.042,1.014
2026/05/14 10:31:09.139,0.055,0.039,1.017
2026/05/14 10:31:09.159,0.055,0.045,1.013
2026/05/14 10:31:09.180,0.055,0.045,1.012
2026/05/14 10:31:09.200,0.053,0.04,1.02
2026/05/14 10:31:09.220,0.05,0.046,1.011
2026/05/14 10:31:09.240,0.051,0.045,1.016
2026/05/14 10:31:09.260,0.054,0.044,1.015
2026/05/14 10:31:09.281,0.055,0.043,1.016
2026/05/14 10:31:09.301,0.053,0.044,1.014
2026/05/14 10:31:09.321,0.059,0.039,1.013
2026/05/14 10:31:09.341,0.056,0.044,1.013
2026/05/14 10:31:09.361,0.057,0.042,1.017
2026/05/14 10:31:09.382,0.055,0.041,1.011
2026/05/14 10:31:09.402,0.052,0.045,1.014
2026/05/14 10:31:09.422,0.052,0.042,1.014
2026/05/14 10:31:09.442,0.057,0.039,1.019
2026/05/14 10:31:09.462,0.055,0.044,1.016
2026/05/14 10:31:09.483,0.054,0.042,1.015
2026/05/14 10:31:09.503,0.052,0.042,1.018
2026/05/14 10:31:09.523,0.052,0.046,1.014
2026/05/14 10:31:09.543,0.051,0.042,1.015
2026/05/14 10:31:09.563,0.052,0.045,1.014
2026/05/14 10:31:09.584,0.053,0.039,1.011
2026/05/14 10:31:09.604,0.055,0.044,1.012
2026/05/14 10:31:09.624,0.051,0.044,1.016
2026/05/14 10:31:09.644,0.054,0.041,1.013
2026/05/14 10:31:09.664,0.053,0.043,1.012
2026/05/14 10:31:09.684,0.053,0.044,1.012
2026/05/14 10:31:09.705,0.057,0.047,1.016
2026/05/14 10:31:09.725,0.05,0.042,1.016
2026/05/14 10:31:09.745,0.051,0.043,1.017
2026/05/14 10:31:09.765,0.05,0.042,1.016
2026/05/14 10:31:09.785,0.055,0.042,1.011
2026/05/14 10:31:09.806,0.055,0.042,1.011
2026/05/14 10:31:09.826,0.053,0.045,1.017
2026/05/14 10:31:09.846,0.056,0.041,1.013
2026/05/14 10:31:09.866,0.055,0.046,1.011
2026/05/14 10:31:09.886,0.055,0.045,1.013
2026/05/14 10:31:09.907,0.053,0.043,1.011
2026/05/14 10:31:09.927,0.058,0.043,1.017
2026/05/14 10:31:09.947,0.056,0.045,1.016
2026/05/14 10:31:09.967,0.053,0.043,1.014
2026/05/14 10:31:09.987,0.058,0.044,1.018
2026/05/14 10:31:10.008,0.055,0.041,1.011
2026/05/14 10:31:10.028,0.052,0.042,1.013
2026/05/14 10:31:10.048,0.056,0.043,1.015
2026/05/14 10:31:10.068,0.052,0.044,1.012
2026/05/14 10:31:10.088,0.056,0.047,1.01
2026/05/14 10:31:10.108,0.056,0.04,1.011
2026/05/14 10:31:10.129,0.054,0.046,1.013
2026/05/14 10:31:10.149,0.053,0.041,1.013
2026/05/14 10:31:10.169,0.05,0.041,1.013
2026/05/14 10:31:10.189,0.052,0.045,1.02
2026/05/14 10:31:10.209,0.057,0.042,1.013
2026/05/14 10:31:10.230,0.05,0.04,1.011
2026/05/14 10:31:10.250,0.054,0.043,1.011
2026/05/14 10:31:10.270,0.055,0.043,1.011
2026/05/14 10:31:10.290,0.055,0.043,1.016
2026/05/14 10:31:10.310,0.052,0.044,1.013
2026/05/14 10:31:10.331,0.054,0.044,1.015
2026/05/14 10:31:10.351,0.054,0.045,1.011
2026/05/14 10:31:10.371,0.054,0.045,1.012
2026/05/14 10:31:10.391,0.054,0.041,1.016
2026/05/14 10:31:10.411,0.051,0.045,1.011
2026/05/14 10:31:10.432,0.053,0.046,1.015
2026/05/14 10:31:10.452,0.052,0.047,1.017
2026/05/14 10:31:10.472,0.053,0.038,1.012
2026/05/14 10:31:10.492,0.054,0.041,1.012
2026/05/14 10:31:10.512,0.054,0.045,1.015
2026/05/14 10:31:10.533,0.051,0.041,1.016
2026/05/14 10:31:10.553,0.054,0.04,1.014
2026/05/14 10:31:10.573,0.057,0.04,1.015
2026/05/14 10:31:10.593,0.054,0.044,1.016
2026/05/14 10:31:10.613,0.056,0.045,1.014
2026/05/14 10:31:10.633,0.053,0.045,1.013
2026/05/14 10:31:10.654,0.056,0.044,1.012
2026/05/14 10:31:10.674,0.054,0.043,1.015
2026/05/14 10:31:10.694,0.056,0.043,1.016
2026/05/14 10:31:10.714,0.051,0.047,1.012
2026/05/14 10:31:10.734,0.053,0.045,1.015
2026/05/14 10:31:10.755,0.052,0.043,1.017
2026/05/14 10:31:10.775,0.055,0.041,1.014
2026/05/14 10:31:10.795,0.056,0.047,1.016
2026/05/14 10:31:10.815,0.054,0.042,1.016
2026/05/14 10:31:10.835,0.054,0.04,1.011
2026/05/14 10:31:10.856,0.056,0.047,1.013
2026/05/14 10:31:10.876,0.055,0.046,1.012
2026/05/14 10:31:10.896,0.053,0.042,1.012
2026/05/14 10:31:10.916,0.056,0.044,1.013
2026/05/14 10:31:10.936,0.057,0.043,1.012
2026/05/14 10:31:10.957,0.053,0.042,1.014
2026/05/14 10:31:10.977,0.054,0.045,1.013
2026/05/14 10:31:10.997,0.056,0.046,1.017
2026/05/14 10:31:11.017,0.054,0.04,1.013
2026/05/14 10:31:11.037,0.054,0.041,1.015
2026/05/14 10:31:11.057,0.056,0.047,1.012
2026/05/14 10:31:11.078,0.054,0.044,1.014
2026/05/14 10:31:11.098,0.054,0.04,1.015
2026/05/14 10:31:11.118,0.054,0.046,1.012
2026/05/14 10:31:11.138,0.054,0.047,1.015
2026/05/14 10:31:11.158,0.053,0.042,1.018
2026/05/14 10:31:11.179,0.056,0.037,1.015
2026/05/14 10:31:11.199,0.055,0.043,1.012
2026/05/14 10:31:11.219,0.054,0.04,1.015
2026/05/14 10:31:11.239,0.055,0.04,1.012
2026/05/14 10:31:11.259,0.054,0.044,1.014
2026/05/14 10:31:11.280,0.049,0.044,1.011
2026/05/14 10:31:11.300,0.054,0.042,1.013
2026/05/14 10:31:11.320,0.055,0.044,1.013
2026/05/14 10:31:11.340,0.053,0.046,1.014
2026/05/14 10:31:11.360,0.056,0.044,1.016
2026/05/14 10:31:11.381,0.057,0.045,1.021
2026/05/14 10:31:11.401,0.05,0.04,1.014
2026/05/14 10:31:11.421,0.055,0.043,1.014
2026/05/14 10:31:11.441,0.053,0.044,1.011
2026/05/14 10:31:11.461,0.051,0.041,1.016
2026/05/14 10:31:11.481,0.053,0.044,1.016
2026/05/14 10:31:11.502,0.052,0.042,1.013
2026/05/14 10:31:11.522,0.055,0.046,1.016
2026/05/14 10:31:11.542,0.056,0.04,1.015
2026/05/14 10:31:11.562,0.054,0.041,1.016
2026/05/14 10:31:11.582,0.055,0.042,1.014
2026/05/14 10:31:11.603,0.055,0.043,1.015
2026/05/14 10:31:11.623,0.057,0.041,1.018
2026/05/14 10:31:11.643,0.055,0.045,1.013
2026/05/14 10:31:11.663,0.055,0.043,1.015
2026/05/14 10:31:11.683,0.056,0.043,1.016
2026/05/14 10:31:11.704,0.052,0.043,1.018
2026/05/14 10:31:11.724,0.052,0.046,1.014
2026/05/14 10:31:11.744,0.052,0.038,1.018
2026/05/14 10:31:11.764,0.054,0.043,1.012
2026/05/14 10:31:11.784,0.053,0.042,1.013
2026/05/14 10:31:11.805,0.054,0.043,1.014
2026/05/14 10:31:11.825,0.053,0.04,1.017
2026/05/14 10:31:11.845,0.054,0.043,1.016
2026/05/14 10:31:11.865,0.054,0.043,1.014
2026/05/14 10:31:11.885,0.053,0.047,1.014
2026/05/14 10:31:11.905,0.051,0.043,1.015
2026/05/14 10:31:11.926,0.058,0.041,1.011
2026/05/14 10:31:11.946,0.053,0.041,1.017
2026/05/14 10:31:11.966,0.052,0.045,1.015
2026/05/14 10:31:11.986,0.053,0.042,1.017
2026/05/14 10:31:12.006,0.055,0.045,1.017
2026/05/14 10:31:12.027,0.053,0.047,1.014
2026/05/14 10:31:12.047,0.054,0.043,1.014
2026/05/14 10:31:12.067,0.055,0.042,1.014
2026/05/14 10:31:12.087,0.054,0.04,1.017
2026/05/14 10:31:12.107,0.055,0.043,1.015
2026/05/14 10:31:12.128,0.054,0.045,1.014
2026/05/14 10:31:12.148,0.055,0.042,1.016
2026/05/14 10:31:12.168,0.055,0.048,1.011
2026/05/14 10:31:12.188,0.052,0.046,1.015
2026/05/14 10:31:12.208,0.055,0.042,1.016
2026/05/14 10:31:12.229,0.054,0.043,1.016
2026/05/14 10:31:12.249,0.055,0.045,1.015
2026/05/14 10:31:12.269,0.052,0.042,1.013
2026/05/14 10:31:12.289,0.054,0.042,1.012
2026/05/14 10:31:12.309,0.054,0.047,1.017
2026/05/14 10:31:12.329,0.054,0.041,1.012
2026/05/14 10:31:12.350,0.053,0.042,1.017
2026/05/14 10:31:12.370,0.055,0.042,1.017
2026/05/14 10:31:12.390,0.056,0.042,1.013
2026/05/14 10:31:12.410,0.055,0.041,1.014
2026/05/14 10:31:12.430,0.055,0.042,1.013
2026/05/14 10:31:12.451,0.054,0.041,1.012
2026/05/14 10:31:12.471,0.053,0.044,1.013
2026/05/14 10:31:12.491,0.055,0.042,1.014
2026/05/14 10:31:12.511,0.057,0.042,1.011
2026/05/14 10:31:12.531,0.053,0.044,1.017
2026/05/14 10:31:12.552,0.051,0.042,1.011
2026/05/14 10:31:12.572,0.055,0.042,1.015
2026/05/14 10:31:12.592,0.053,0.045,1.014
2026/05/14 10:31:12.612,0.058,0.043,1.013
2026/05/14 10:31:12.632,0.054,0.042,1.016
2026/05/14 10:31:12.653,0.054,0.046,1.012
2026/05/14 10:31:12.673,0.055,0.046,1.017
2026/05/14 10:31:12.693,0.055,0.044,1.012
2026/05/14 10:31:12.713,0.053,0.042,1.01
2026/05/14 10:31:12.733,0.054,0.046,1.018
2026/05/14 10:31:12.753,0.053,0.04,1.019
2026/05/14 10:31:12.774,0.052,0.044,1.016
2026/05/14 10:31:12.794,0.049,0.042,1.013
2026/05/14 10:31:12.814,0.051,0.041,1.017
2026/05/14 10:31:12.834,0.054,0.041,1.015
2026/05/14 10:31:12.854,0.054,0.047,1.015
2026/05/14 10:31:12.875,0.053,0.044,1.017
2026/05/14 10:31:12.895,0.053,0.042,1.013
2026/05/14 10:31:12.915,0.056,0.041,1.013
2026/05/14 10:31:12.935,0.055,0.044,1.013
2026/05/14 10:31:12.955,0.058,0.042,1.016
2026/05/14 10:31:12.976,0.056,0.047,1.018
2026/05/14 10:31:12.996,0.054,0.044,1.014
2026/05/14 10:31:13.016,0.054,0.041,1.012
2026/05/14 10:31:13.036,0.054,0.041,1.013
2026/05/14 10:31:13.056,0.055,0.045,1.016
2026/05/14 10:31:13.077,0.052,0.047,1.015
2026/05/14 10:31:13.097,0.056,0.042,1.016
2026/05/14 10:31:13.117,0.054,0.039,1.014
2026/05/14 10:31:13.137,0.053,0.039,1.01
2026/05/14 10:31:13.157,0.055,0.042,1.014
2026/05/14 10:31:13.177,0.053,0.042,1.011
2026/05/14 10:31:13.198,0.056,0.041,1.013
2026/05/14 10:31:13.218,0.057,0.044,1.015
2026/05/14 10:31:13.238,0.055,0.04,1.015
2026/05/14 10:31:13.258,0.053,0.041,1.016
2026/05/14 10:31:13.278,0.055,0.044,1.015
2026/05/14 10:31:13.299,0.053,0.043,1.012
2026/05/14 10:31:13.319,0.056,0.044,1.018
2026/05/14 10:31:13.339,0.055,0.046,1.014
2026/05/14 10:31:13.359,0.055,0.039,1.016
2026/05/14 10:31:13.379,0.053,0.04,1.015
2026/05/14 10:31:13.400,0.054,0.041,1.014
2026/05/14 10:31:13.420,0.054,0.045,1.016
2026/05/14 10:31:13.440,0.053,0.042,1.016
2026/05/14 10:31:13.460,0.053,0.043,1.017
2026/05/14 10:31:13.480,0.053,0.046,1.015
2026/05/14 10:31:13.501,0.056,0.044,1.016
2026/05/14 10:31:13.521,0.055,0.044,1.015
2026/05/14 10:31:13.541,0.054,0.042,1.014
2026/05/14 10:31:13.561,0.051,0.04,1.014
2026/05/14 10:31:13.581,0.055,0.041,1.01
2026/05/14 10:31:13.601,0.055,0.041,1.015
2026/05/14 10:31:13.622,0.055,0.044,1.015
2026/05/14 10:31:13.642,0.053,0.047,1.013
2026/05/14 10:31:13.662,0.057,0.046,1.016
2026/05/14 10:31:13.682,0.051,0.042,1.017
2026/05/14 10:31:13.702,0.052,0.041,1.016
2026/05/14 10:31:13.723,0.057,0.041,1.017
2026/05/14 10:31:13.743,0.053,0.042,1.014
2026/05/14 10:31:13.763,0.054,0.042,1.012
2026/05/14 10:31:13.783,0.054,0.046,1.018
2026/05/14 10:31:13.803,0.051,0.043,1.014
2026/05/14 10:31:13.824,0.055,0.045,1.013
2026/05/14 10:31:13.844,0.053,0.04,1.019
2026/05/14 10:31:13.864,0.054,0.044,1.017
2026/05/14 10:31:13.884,0.056,0.045,1.014
2026/05/14 10:31:13.904,0.054,0.044,1.013
2026/05/14 10:31:13.925,0.056,0.044,1.015
2026/05/14 10:31:13.945,0.054,0.046,1.015
2026/05/14 10:31:13.965,0.055,0.043,1.012
2026/05/14 10:31:13.985,0.057,0.045,1.01
2026/05/14 10:31:14.005,0.054,0.048,1.013
2026/05/14 10:31:14.026,0.055,0.041,1.016
2026/05/14 10:31:14.046,0.058,0.045,1.018
2026/05/14 10:31:14.066,0.055,0.044,1.014
2026/05/14 10:31:14.086,0.055,0.042,1.015
2026/05/14 10:31:14.106,0.055,0.041,1.017
2026/05/14 10:31:14.126,0.052,0.043,1.017
2026/05/14 10:31:14.147,0.057,0.044,1.013
2026/05/14 10:31:14.167,0.056,0.041,1.015
2026/05/14 10:31:14.187,0.059,0.047,1.013
2026/05/14 10:31:14.207,0.055,0.043,1.014
2026/05/14 10:31:14.227,0.057,0.041,1.021
2026/05/14 10:31:14.248,0.055,0.044,1.015
2026/05/14 10:31:14.268,0.054,0.043,1.011
2026/05/14 10:31:14.288,0.052,0.041,1.011
2026/05/14 10:31:14.308,0.051,0.044,1.017
2026/05/14 10:31:14.328,0.055,0.042,1.011
2026/05/14 10:31:14.349,0.054,0.043,1.016
2026/05/14 10:31:14.369,0.055,0.046,1.016
2026/05/14 10:31:14.389,0.055,0.046,1.015
2026/05/14 10:31:14.409,0.054,0.042,1.011
2026/05/14 10:31:14.429,0.056,0.043,1.014
2026/05/14 10:31:14.450,0.052,0.045,1.016
2026/05/14 10:31:14.470,0.055,0.047,1.011
2026/05/14 10:31:14.490,0.054,0.047,1.013
2026/05/14 10:31:14.510,0.052,0.043,1.011
2026/05/14 10:31:14.530,0.056,0.045,1.011
2026/05/14 10:31:14.551,0.056,0.041,1.016
2026/05/14 10:31:14.571,0.056,0.04,1.013
2026/05/14 10:31:14.591,0.056,0.043,1.014
2026/05/14 10:31:14.611,0.056,0.044,1.016
2026/05/14 10:31:14.631,0.05,0.044,1.012
2026/05/14 10:31:14.652,0.054,0.039,1.014
2026/05/14 10:31:14.672,0.058,0.045,1.018
2026/05/14 10:31:14.692,0.052,0.046,1.016
2026/05/14 10:31:14.712,0.056,0.043,1.015
2026/05/14 10:31:14.732,0.057,0.044,1.02
2026/05/14 10:31:14.752,0.053,0.043,1.018
2026/05/14 10:31:14.773,0.055,0.047,1.014
2026/05/14 10:31:14.793,0.052,0.043,1.016
2026/05/14 10:31:14.813,0.058,0.043,1.015
2026/05/14 10:31:14.833,0.055,0.041,1.017
2026/05/14 10:31:14.853,0.054,0.042,1.015
2026/05/14 10:31:14.874,0.055,0.043,1.013
2026/05/14 10:31:14.894,0.056,0.041,1.018
2026/05/14 10:31:14.914,0.053,0.046,1.014
2026/05/14 10:31:14.934,0.055,0.043,1.014
2026/05/14 10:31:14.954,0.052,0.046,1.018
2026/05/14 10:31:14.975,0.056,0.04,1.014
2026/05/14 10:31:14.995,0.05,0.045,1.013
2026/05/14 10:31:15.015,0.054,0.039,1.016
2026/05/14 10:31:15.035,0.054,0.042,1.014
2026/05/14 10:31:15.055,0.053,0.043,1.016
2026/05/14 10:31:15.076,0.053,0.041,1.012
2026/05/14 10:31:15.096,0.054,0.039,1.016
2026/05/14 10:31:15.116,0.054,0.043,1.016
2026/05/14 10:31:15.136,0.056,0.042,1.016
2026/05/14 10:31:15.156,0.052,0.038,1.018
2026/05/14 10:31:15.177,0.054,0.042,1.015
2026/05/14 10:31:15.197,0.055,0.04,1.009
2026/05/14 10:31:15.217,0.054,0.044,1.015
2026/05/14 10:31:15.237,0.058,0.041,1.016
2026/05/14 10:31:15.257,0.054,0.04,1.015
2026/05/14 10:31:15.277,0.054,0.044,1.012
2026/05/14 10:31:15.298,0.052,0.042,1.015
2026/05/14 10:31:15.318,0.054,0.049,1.013
2026/05/14 10:31:15.338,0.054,0.044,1.012
2026/05/14 10:31:15.358,0.054,0.045,1.015
2026/05/14 10:31:15.378,0.054,0.045,1.013
2026/05/14 10:31:15.399,0.053,0.04,1.017
2026/05/14 10:31:15.419,0.055,0.044,1.014
2026/05/14 10:31:15.439,0.054,0.042,1.015
2026/05/14 10:31:15.459,0.056,0.044,1.016
2026/05/14 10:31:15.479,0.052,0.04,1.013
2026/05/14 10:31:15.500,0.052,0.039,1.013
2026/05/14 10:31:15.520,0.053,0.045,1.014
2026/05/14 10:31:15.540,0.051,0.041,1.016
2026/05/14 10:31:15.560,0.057,0.043,1.013
2026/05/14 10:31:15.580,0.054,0.044,1.015
2026/05/14 10:31:15.601,0.053,0.042,1.017
2026/05/14 10:31:15.621,0.052,0.042,1.015
2026/05/14 10:31:15.641,0.057,0.045,1.016
2026/05/14 10:31:15.661,0.055,0.047,1.014
2026/05/14 10:31:15.681,0.052,0.042,1.013
2026/05/14 10:31:15.702,0.053,0.043,1.015
2026/05/14 10:31:15.722,0.051,0.045,1.015
2026/05/14 10:31:15.742,0.055,0.042,1.013
2026/05/14 10:31:15.762,0.055,0.044,1.014
2026/05/14 10:31:15.782,0.052,0.042,1.011
2026/05/14 10:31:15.802,0.055,0.041,1.018
2026/05/14 10:31:15.823,0.058,0.044,1.013
2026/05/14 10:31:15.843,0.057,0.043,1.016
2026/05/14 10:31:15.863,0.054,0.04,1.017
2026/05/14 10:31:15.883,0.055,0.043,1.013
2026/05/14 10:31:15.903,0.053,0.042,1.013
2026/05/14 10:31:15.924,0.06,0.04,1.015
2026/05/14 10:31:15.944,0.052,0.038,1.014
2026/05/14 10:31:15.964,0.055,0.039,1.015
2026/05/14 10:31:15.984,0.057,0.044,1.015
2026/05/14 10:31:16.004,0.058,0.045,1.014
2026/05/14 10:31:16.025,0.054,0.04,1.02
2026/05/14 10:31:16.045,0.055,0.041,1.013
2026/05/14 10:31:16.065,0.054,0.044,1.016
2026/05/14 10:31:16.085,0.054,0.042,1.017
2026/05/14 10:31:16.105,0.052,0.044,1.011
2026/05/14 10:31:16.126,0.054,0.045,1.016
2026/05/14 10:31:16.146,0.053,0.044,1.014
2026/05/14 10:31:16.166,0.053,0.046,1.015
2026/05/14 10:31:16.186,0.057,0.046,1.013
2026/05/14 10:31:16.206,0.053,0.043,1.013
2026/05/14 10:31:16.227,0.052,0.046,1.015
2026/05/14 10:31:16.247,0.053,0.046,1.016
2026/05/14 10:31:16.267,0.053,0.04,1.015
2026/05/14 10:31:16.287,0.056,0.041,1.013
2026/05/14 10:31:16.307,0.053,0.046,1.014
2026/05/14 10:31:16.327,0.053,0.047,1.015
2026/05/14 10:31:16.348,0.055,0.044,1.016
2026/05/14 10:31:16.368,0.052,0.044,1.013
2026/05/14 10:31:16.388,0.055,0.046,1.015
2026/05/14 10:31:16.408,0.055,0.043,1.015
2026/05/14 10:31:16.428,0.055,0.044,1.018
2026/05/14 10:31:16.449,0.053,0.042,1.015
2026/05/14 10:31:16.469,0.052,0.047,1.013
2026/05/14 10:31:16.489,0.053,0.045,1.017
2026/05/14 10:31:16.509,0.052,0.045,1.017
2026/05/14 10:31:16.529,0.053,0.042,1.013
2026/05/14 10:31:16.550,0.057,0.043,1.013
2026/05/14 10:31:16.570,0.053,0.042,1.013
2026/05/14 10:31:16.590,0.055,0.044,1.018
2026/05/14 10:31:16.610,0.06,0.044,1.015
2026/05/14 10:31:16.630,0.052,0.044,1.015
2026/05/14 10:31:16.651,0.051,0.042,1.018
2026/05/14 10:31:16.671,0.059,0.042,1.016
2026/05/14 10:31:16.691,0.056,0.041,1.014
2026/05/14 10:31:16.711,0.054,0.042,1.014
2026/05/14 10:31:16.731,0.054,0.047,1.016
2026/05/14 10:31:16.752,0.056,0.042,1.018
2026/05/14 10:31:16.772,0.055,0.042,1.014
2026/05/14 10:31:16.792,0.05,0.049,1.015
2026/05/14 10:31:16.812,0.053,0.042,1.015
2026/05/14 10:31:16.832,0.049,0.043,1.014
2026/05/14 10:31:16.852,0.048,0.046,1.013
2026/05/14 10:31:16.873,0.056,0.044,1.013
2026/05/14 10:31:16.893,0.051,0.043,1.015
2026/05/14 10:31:16.913,0.054,0.043,1.017
2026/05/14 10:31:16.933,0.052,0.042,1.018
2026/05/14 10:31:16.953,0.057,0.044,1.014
2026/05/14 10:31:16.974,0.053,0.039,1.014
2026/05/14 10:31:16.994,0.05,0.044,1.016
2026/05/14 10:31:17.014,0.054,0.043,1.012
2026/05/14 10:31:17.034,0.056,0.041,1.02
2026/05/14 10:31:17.054,0.054,0.044,1.012
2026/05/14 10:31:17.075,0.057,0.042,1.014
2026/05/14 10:31:17.095,0.049,0.044,1.014
2026/05/14 10:31:17.115,0.054,0.042,1.016
2026/05/14 10:31:17.135,0.052,0.042,1.019
2026/05/14 10:31:17.155,0.053,0.046,1.013
2026/05/14 10:31:17.176,0.055,0.044,1.015
2026/05/14 10:31:17.196,0.051,0.046,1.016
2026/05/14 10:31:17.216,0.054,0.047,1.015
2026/05/14 10:31:17.236,0.054,0.043,1.016
2026/05/14 10:31:17.256,0.053,0.042,1.015
2026/05/14 10:31:17.277,0.054,0.047,1.014
2026/05/14 10:31:17.297,0.05,0.044,1.011
2026/05/14 10:31:17.317,0.055,0.044,1.014
2026/05/14 10:31:17.337,0.053,0.042,1.013
2026/05/14 10:31:17.357,0.055,0.046,1.017
2026/05/14 10:31:17.377,0.055,0.045,1.015
2026/05/14 10:31:17.398,0.052,0.044,1.013
2026/05/14 10:31:17.418,0.056,0.045,1.016
2026/05/14 10:31:17.438,0.053,0.044,1.018
2026/05/14 10:31:17.458,0.053,0.044,1.016
2026/05/14 10:31:17.478,0.056,0.043,1.017
2026/05/14 10:31:17.499,0.056,0.044,1.018
2026/05/14 10:31:17.519,0.052,0.044,1.014
2026/05/14 10:31:17.539,0.055,0.041,1.013
2026/05/14 10:31:17.559,0.055,0.044,1.016
2026/05/14 10:31:17.579,0.055,0.043,1.013
2026/05/14 10:31:17.600,0.055,0.043,1.017
2026/05/14 10:31:17.620,0.054,0.045,1.016
2026/05/14 10:31:17.640,0.053,0.043,1.014
2026/05/14 10:31:17.660,0.058,0.045,1.015
2026/05/14 10:31:17.680,0.057,0.041,1.018
2026/05/14 10:31:17.701,0.053,0.043,1.019
2026/05/14 10:31:17.721,0.056,0.042,1.017
2026/05/14 10:31:17.741,0.055,0.041,1.013
2026/05/14 10:31:17.761,0.054,0.047,1.012
2026/05/14 10:31:17.781,0.052,0.045,1.016
2026/05/14 10:31:17.802,0.054,0.043,1.014
2026/05/14 10:31:17.822,0.053,0.041,1.018
2026/05/14 10:31:17.842,0.056,0.042,1.013
2026/05/14 10:31:17.862,0.054,0.043,1.016
2026/05/14 10:31:17.882,0.054,0.045,1.014
2026/05/14 10:31:17.902,0.054,0.041,1.015
2026/05/14 10:31:17.923,0.055,0.043,1.017
2026/05/14 10:31:17.943,0.055,0.046,1.013
2026/05/14 10:31:17.963,0.056,0.044,1.014
2026/05/14 10:31:17.983,0.053,0.045,1.014
2026/05/14 10:31:18.003,0.054,0.045,1.015
2026/05/14 10:31:18.024,0.054,0.044,1.013
2026/05/14 10:31:18.044,0.054,0.043,1.014
2026/05/14 10:31:18.064,0.055,0.042,1.014
2026/05/14 10:31:18.084,0.053,0.042,1.015
2026/05/14 10:31:18.104,0.055,0.04,1.017
2026/05/14 10:31:18.125,0.059,0.046,1.013
2026/05/14 10:31:18.145,0.056,0.043,1.014
2026/05/14 10:31:18.165,0.055,0.046,1.017
2026/05/14 10:31:18.185,0.054,0.043,1.012
2026/05/14 10:31:18.205,0.055,0.045,1.016
2026/05/14 10:31:18.226,0.054,0.045,1.014
2026/05/14 10:31:18.246,0.053,0.042,1.017
2026/05/14 10:31:18.266,0.052,0.044,1.015
2026/05/14 10:31:18.286,0.054,0.043,1.014
2026/05/14 10:31:18.306,0.055,0.042,1.011
2026/05/14 10:31:18.327,0.054,0.045,1.014
2026/05/14 10:31:18.347,0.053,0.043,1.017
2026/05/14 10:31:18.367,0.054,0.046,1.011
2026/05/14 10:31:18.387,0.055,0.045,1.018
2026/05/14 10:31:18.407,0.052,0.043,1.016
2026/05/14 10:31:18.427,0.056,0.043,1.015
2026/05/14 10:31:18.448,0.052,0.044,1.014
2026/05/14 10:31:18.468,0.052,0.044,1.014
2026/05/14 10:31:18.488,0.056,0.043,1.015
2026/05/14 10:31:18.508,0.057,0.039,1.012
2026/05/14 10:31:18.528,0.052,0.043,1.014
2026/05/14 10:31:18.549,0.054,0.042,1.015
2026/05/14 10:31:18.569,0.055,0.04,1.016
2026/05/14 10:31:18.589,0.053,0.043,1.016
2026/05/14 10:31:18.609,0.054,0.043,1.012
2026/05/14 10:31:18.629,0.056,0.043,1.011
2026/05/14 10:31:18.650,0.057,0.043,1.012
2026/05/14 10:31:18.670,0.056,0.044,1.015
2026/05/14 10:31:18.690,0.052,0.047,1.017
2026/05/14 10:31:18.710,0.055,0.039,1.012
2026/05/14 10:31:18.730,0.054,0.044,1.018
2026/05/14 10:31:18.751,0.054,0.045,1.017
2026/05/14 10:31:18.771,0.053,0.042,1.016
2026/05/14 10:31:18.791,0.054,0.044,1.012
2026/05/14 10:31:18.811,0.059,0.04,1.013
2026/05/14 10:31:18.831,0.053,0.047,1.016
2026/05/14 10:31:18.852,0.056,0.043,1.016
2026/05/14 10:31:18.872,0.055,0.043,1.018
2026/05/14 10:31:18.892,0.055,0.039,1.016
2026/05/14 10:31:18.912,0.056,0.046,1.013
2026/05/14 10:31:18.932,0.05,0.042,1.011
2026/05/14 10:31:18.952,0.055,0.044,1.016
2026/05/14 10:31:18.973,0.055,0.044,1.015
2026/05/14 10:31:18.993,0.052,0.043,1.012
2026/05/14 10:31:19.013,0.052,0.04,1.013
2026/05/14 10:31:19.033,0.056,0.043,1.013
2026/05/14 10:31:19.053,0.055,0.04,1.014
2026/05/14 10:31:19.074,0.054,0.042,1.015
2026/05/14 10:31:19.094,0.051,0.04,1.014
2026/05/14 10:31:19.114,0.055,0.042,1.017
2026/05/14 10:31:19.134,0.06,0.046,1.014
2026/05/14 10:31:19.154,0.053,0.04,1.015
2026/05/14 10:31:19.175,0.059,0.046,1.015
2026/05/14 10:31:19.195,0.055,0.046,1.015
2026/05/14 10:31:19.215,0.054,0.04,1.014
2026/05/14 10:31:19.235,0.055,0.046,1.014
2026/05/14 10:31:19.255,0.055,0.039,1.013
2026/05/14 10:31:19.276,0.054,0.045,1.011
2026/05/14 10:31:19.296,0.056,0.042,1.016
2026/05/14 10:31:19.316,0.056,0.043,1.012
2026/05/14 10:31:19.336,0.049,0.045,1.011
2026/05/14 10:31:19.356,0.053,0.041,1.016
2026/05/14 10:31:19.376,0.057,0.044,1.011
2026/05/14 10:31:19.397,0.055,0.043,1.017
2026/05/14 10:31:19.417,0.055,0.045,1.019
2026/05/14 10:31:19.437,0.054,0.043,1.014
2026/05/14 10:31:19.457,0.055,0.039,1.014
2026/05/14 10:31:19.477,0.058,0.044,1.014
2026/05/14 10:31:19.498,0.055,0.038,1.015
2026/05/14 10:31:19.518,0.052,0.049,1.014
2026/05/14 10:31:19.538,0.055,0.043,1.016
2026/05/14 10:31:19.558,0.055,0.042,1.013
2026/05/14 10:31:19.578,0.056,0.043,1.013
2026/05/14 10:31:19.599,0.053,0.04,1.016
2026/05/14 10:31:19.619,0.055,0.043,1.017
2026/05/14 10:31:19.639,0.051,0.041,1.011
2026/05/14 10:31:19.659,0.051,0.044,1.016
2026/05/14 10:31:19.679,0.056,0.04,1.012
2026/05/14 10:31:19.700,0.057,0.043,1.009
2026/05/14 10:31:19.720,0.055,0.045,1.016
2026/05/14 10:31:19.740,0.053,0.043,1.011
2026/05/14 10:31:19.760,0.055,0.046,1.015
2026/05/14 10:31:19.780,0.054,0.044,1.014
2026/05/14 10:31:19.801,0.052,0.042,1.016
2026/05/14 10:31:19.821,0.057,0.046,1.014
2026/05/14 10:31:19.841,0.052,0.045,1.013
2026/05/14 10:31:19.861,0.056,0.043,1.013
2026/05/14 10:31:19.881,0.054,0.038,1.017
2026/05/14 10:31:19.901,0.054,0.042,1.017
2026/05/14 10:31:19.922,0.05,0.041,1.014
2026/05/14 10:31:19.942,0.054,0.047,1.017
2026/05/14 10:31:19.962,0.053,0.039,1.017
2026/05/14 10:31:19.982,0.06,0.047,1.017
2026/05/14 10:31:20.002,0.053,0.04,1.012
2026/05/14 10:31:20.023,0.055,0.046,1.015
2026/05/14 10:31:20.043,0.052,0.046,1.014
2026/05/14 10:31:20.063,0.055,0.045,1.016
2026/05/14 10:31:20.083,0.059,0.046,1.017
2026/05/14 10:31:20.103,0.055,0.043,1.016
2026/05/14 10:31:20.124,0.055,0.041,1.016
2026/05/14 10:31:20.144,0.053,0.045,1.014
2026/05/14 10:31:20.164,0.052,0.041,1.012
2026/05/14 10:31:20.184,0.054,0.049,1.015
2026/05/14 10:31:20.204,0.053,0.041,1.011
2026/05/14 10:31:20.225,0.05,0.043,1.016
2026/05/14 10:31:20.245,0.058,0.042,1.013
2026/05/14 10:31:20.265,0.052,0.046,1.015
2026/05/14 10:31:20.285,0.058,0.04,1.017
2026/05/14 10:31:20.305,0.056,0.045,1.015
2026/05/14 10:31:20.326,0.056,0.044,1.016
2026/05/14 10:31:20.346,0.053,0.045,1.015
2026/05/14 10:31:20.366,0.056,0.046,1.016
2026/05/14 10:31:20.386,0.051,0.048,1.017
2026/05/14 10:31:20.406,0.053,0.045,1.017
2026/05/14 10:31:20.426,0.051,0.045,1.017
2026/05/14 10:31:20.447,0.05,0.037,1.014
2026/05/14 10:31:20.467,0.056,0.048,1.009
2026/05/14 10:31:20.487,0.054,0.043,1.014
2026/05/14 10:31:20.507,0.058,0.043,1.016
2026/05/14 10:31:20.527,0.055,0.045,1.012
2026/05/14 10:31:20.548,0.052,0.041,1.022
2026/05/14 10:31:20.568,0.054,0.045,1.014
2026/05/14 10:31:20.588,0.055,0.045,1.014
2026/05/14 10:31:20.608,0.053,0.045,1.015
2026/05/14 10:31:20.628,0.058,0.047,1.015
2026/05/14 10:31:20.649,0.052,0.039,1.016
2026/05/14 10:31:20.669,0.054,0.045,1.012
2026/05/14 10:31:20.689,0.052,0.04,1.013
2026/05/14 10:31:20.709,0.054,0.045,1.014
2026/05/14 10:31:20.729,0.054,0.041,1.012
2026/05/14 10:31:20.750,0.057,0.043,1.014
2026/05/14 10:31:20.770,0.052,0.044,1.013
2026/05/14 10:31:20.790,0.054,0.042,1.016
2026/05/14 10:31:20.810,0.055,0.042,1.015
2026/05/14 10:31:20.830,0.054,0.044,1.011
2026/05/14 10:31:20.850,0.054,0.043,1.018
2026/05/14 10:31:20.871,0.052,0.044,1.013
2026/05/14 10:31:20.891,0.058,0.039,1.013
2026/05/14 10:31:20.911,0.052,0.043,1.015
2026/05/14 10:31:20.931,0.051,0.042,1.015
2026/05/14 10:31:20.951,0.054,0.043,1.015
2026/05/14 10:31:20.972,0.057,0.045,1.014
2026/05/14 10:31:20.992,0.058,0.045,1.014
2026/05/14 10:31:21.012,0.053,0.045,1.015
2026/05/14 10:31:21.032,0.054,0.044,1.016
2026/05/14 10:31:21.052,0.054,0.044,1.019
2026/05/14 10:31:21.073,0.052,0.044,1.018
2026/05/14 10:31:21.093,0.057,0.044,1.012
2026/05/14 10:31:21.113,0.056,0.045,1.015
2026/05/14 10:31:21.133,0.053,0.042,1.017
2026/05/14 10:31:21.153,0.056,0.042,1.014
2026/05/14 10:31:21.174,0.055,0.045,1.014
2026/05/14 10:31:21.194,0.055,0.048,1.011
2026/05/14 10:31:21.214,0.053,0.046,1.016
2026/05/14 10:31:21.234,0.051,0.041,1.016
2026/05/14 10:31:21.254,0.053,0.045,1.017
2026/05/14 10:31:21.275,0.055,0.038,1.013
2026/05/14 10:31:21.295,0.053,0.041,1.013
2026/05/14 10:31:21.315,0.055,0.041,1.018
2026/05/14 10:31:21.335,0.055,0.045,1.018
2026/05/14 10:31:21.355,0.056,0.04,1.015
2026/05/14 10:31:21.375,0.052,0.043,1.017
2026/05/14 10:31:21.396,0.051,0.041,1.013
2026/05/14 10:31:21.416,0.055,0.05,1.013
2026/05/14 10:31:21.436,0.053,0.04,1.014
2026/05/14 10:31:21.456,0.052,0.041,1.015
2026/05/14 10:31:21.476,0.051,0.047,1.016
2026/05/14 10:31:21.497,0.056,0.044,1.014
2026/05/14 10:31:21.517,0.055,0.044,1.017
2026/05/14 10:31:21.537,0.052,0.048,1.016
2026/05/14 10:31:21.557,0.053,0.044,1.016
2026/05/14 10:31:21.577,0.054,0.042,1.015
2026/05/14 10:31:21.598,0.055,0.043,1.014
2026/05/14 10:31:21.618,0.054,0.046,1.014
2026/05/14 10:31:21.638,0.055,0.044,1.013
2026/05/14 10:31:21.658,0.054,0.04,1.014
2026/05/14 10:31:21.678,0.054,0.043,1.013
2026/05/14 10:31:21.699,0.055,0.043,1.017
2026/05/14 10:31:21.719,0.052,0.045,1.014
2026/05/14 10:31:21.739,0.054,0.042,1.013
2026/05/14 10:31:21.759,0.05,0.048,1.012
2026/05/14 10:31:21.779,0.054,0.045,1.013
2026/05/14 10:31:21.800,0.051,0.043,1.014
2026/05/14 10:31:21.820,0.055,0.045,1.012
2026/05/14 10:31:21.840,0.058,0.042,1.013
2026/05/14 10:31:21.860,0.053,0.048,1.014
2026/05/14 10:31:21.880,0.055,0.041,1.016
2026/05/14 10:31:21.900,0.053,0.041,1.015
2026/05/14 10:31:21.921,0.052,0.038,1.016
2026/05/14 10:31:21.941,0.055,0.044,1.016
2026/05/14 10:31:21.961,0.056,0.043,1.016
2026/05/14 10:31:21.981,0.054,0.043,1.013
2026/05/14 10:31:22.001,0.055,0.04,1.011
2026/05/14 10:31:22.022,0.05,0.042,1.016
2026/05/14 10:31:22.042,0.055,0.046,1.012
2026/05/14 10:31:22.062,0.053,0.044,1.015
2026/05/14 10:31:22.082,0.055,0.041,1.016
2026/05/14 10:31:22.102,0.055,0.044,1.013
2026/05/14 10:31:22.123,0.056,0.04,1.017
2026/05/14 10:31:22.143,0.054,0.043,1.014
2026/05/14 10:31:22.163,0.053,0.043,1.016
2026/05/14 10:31:22.183,0.055,0.041,1.014
2026/05/14 10:31:22.203,0.051,0.043,1.016
2026/05/14 10:31:22.224,0.056,0.046,1.011
2026/05/14 10:31:22.244,0.054,0.045,1.009
2026/05/14 10:31:22.264,0.054,0.041,1.018
2026/05/14 10:31:22.284,0.053,0.041,1.013
2026/05/14 10:31:22.304,0.054,0.039,1.016
2026/05/14 10:31:22.325,0.051,0.046,1.016
2026/05/14 10:31:22.345,0.052,0.041,1.011
2026/05/14 10:31:22.365,0.052,0.046,1.014
2026/05/14 10:31:22.385,0.056,0.045,1.018
2026/05/14 10:31:22.405,0.052,0.04,1.015
2026/05/14 10:31:22.425,0.055,0.042,1.018
2026/05/14 10:31:22.446,0.056,0.043,1.015
2026/05/14 10:31:22.466,0.055,0.048,1.015
2026/05/14 10:31:22.486,0.053,0.045,1.015
2026/05/14 10:31:22.506,0.055,0.039,1.013
2026/05/14 10:31:22.526,0.053,0.043,1.012
2026/05/14 10:31:22.547,0.054,0.047,1.015
2026/05/14 10:31:22.567,0.053,0.042,1.015
2026/05/14 10:31:22.587,0.05,0.046,1.01
2026/05/14 10:31:22.607,0.052,0.042,1.015
2026/05/14 10:31:22.627,0.05,0.047,1.012
2026/05/14 10:31:22.648,0.053,0.041,1.02
2026/05/14 10:31:22.668,0.055,0.046,1.011
2026/05/14 10:31:22.688,0.057,0.043,1.015
2026/05/14 10:31:22.708,0.051,0.042,1.016
2026/05/14 10:31:22.728,0.054,0.044,1.013
2026/05/14 10:31:22.749,0.054,0.044,1.014
2026/05/14 10:31:22.769,0.052,0.044,1.014
2026/05/14 10:31:22.789,0.053,0.045,1.018
2026/05/14 10:31:22.809,0.057,0.041,1.019
2026/05/14 10:31:22.829,0.051,0.04,1.013
2026/05/14 10:31:22.850,0.053,0.046,1.018
2026/05/14 10:31:22.870,0.056,0.043,1.012
2026/05/14 10:31:22.890,0.051,0.043,1.014
2026/05/14 10:31:22.910,0.052,0.043,1.014
2026/05/14 10:31:22.930,0.052,0.044,1.017
2026/05/14 10:31:22.950,0.053,0.042,1.014
2026/05/14 10:31:22.971,0.054,0.044,1.01
2026/05/14 10:31:22.991,0.058,0.043,1.016
2026/05/14 10:31:23.011,0.053,0.045,1.011
2026/05/14 10:31:23.031,0.052,0.043,1.017
2026/05/14 10:31:23.051,0.057,0.045,1.016
2026/05/14 10:31:23.072,0.055,0.043,1.017
2026/05/14 10:31:23.092,0.056,0.045,1.013
2026/05/14 10:31:23.112,0.054,0.045,1.013
2026/05/14 10:31:23.132,0.057,0.045,1.015
2026/05/14 10:31:23.152,0.053,0.042,1.015
2026/05/14 10:31:23.173,0.051,0.045,1.013
2026/05/14 10:31:23.193,0.052,0.042,1.018
2026/05/14 10:31:23.213,0.056,0.043,1.015
2026/05/14 10:31:23.233,0.054,0.043,1.014
2026/05/14 10:31:23.253,0.056,0.042,1.014
2026/05/14 10:31:23.274,0.055,0.039,1.016
2026/05/14 10:31:23.294,0.055,0.044,1.012
2026/05/14 10:31:23.314,0.056,0.04,1.014
2026/05/14 10:31:23.334,0.053,0.043,1.01
2026/05/14 10:31:23.354,0.059,0.045,1.013
2026/05/14 10:31:23.375,0.055,0.047,1.011
2026/05/14 10:31:23.395,0.053,0.043,1.016
2026/05/14 10:31:23.415,0.055,0.041,1.011
2026/05/14 10:31:23.435,0.054,0.042,1.013
2026/05/14 10:31:23.455,0.053,0.042,1.012
2026/05/14 10:31:23.475,0.052,0.043,1.013
2026/05/14 10:31:23.496,0.06,0.043,1.014
2026/05/14 10:31:23.516,0.054,0.047,1.013
2026/05/14 10:31:23.536,0.057,0.041,1.014
2026/05/14 10:31:23.556,0.054,0.043,1.016
2026/05/14 10:31:23.576,0.056,0.041,1.019
2026/05/14 10:31:23.597,0.051,0.045,1.013
2026/05/14 10:31:23.617,0.058,0.043,1.017
2026/05/14 10:31:23.637,0.057,0.042,1.011
2026/05/14 10:31:23.657,0.056,0.044,1.015
2026/05/14 10:31:23.677,0.058,0.041,1.015
2026/05/14 10:31:23.698,0.056,0.043,1.014
2026/05/14 10:31:23.718,0.053,0.042,1.018
2026/05/14 10:31:23.738,0.055,0.045,1.015
2026/05/14 10:31:23.758,0.053,0.046,1.013
2026/05/14 10:31:23.778,0.057,0.044,1.016
2026/05/14 10:31:23.799,0.056,0.04,1.018
2026/05/14 10:31:23.819,0.055,0.042,1.015
2026/05/14 10:31:23.839,0.051,0.043,1.011
2026/05/14 10:31:23.859,0.058,0.046,1.014
2026/05/14 10:31:23.879,0.052,0.042,1.018
2026/05/14 10:31:23.900,0.054,0.04,1.012
2026/05/14 10:31:23.920,0.055,0.045,1.015
2026/05/14 10:31:23.940,0.056,0.041,1.014
2026/05/14 10:31:23.960,0.053,0.042,1.018
2026/05/14 10:31:23.980,0.055,0.045,1.013
2026/05/14 10:31:24.001,0.057,0.04,1.014
2026/05/14 10:31:24.021,0.054,0.046,1.018
2026/05/14 10:31:24.041,0.053,0.043,1.016
2026/05/14 10:31:24.061,0.052,0.04,1.015
2026/05/14 10:31:24.081,0.056,0.04,1.012
2026/05/14 10:31:24.101,0.051,0.042,1.017
2026/05/14 10:31:24.122,0.058,0.044,1.014
2026/05/14 10:31:24.142,0.057,0.042,1.015
2026/05/14 10:31:24.162,0.053,0.042,1.014
2026/05/14 10:31:24.182,0.056,0.043,1.017
2026/05/14 10:31:24.202,0.055,0.044,1.013
2026/05/14 10:31:24.223,0.054,0.044,1.014
2026/05/14 10:31:24.243,0.055,0.05,1.014
2026/05/14 10:31:24.263,0.052,0.044,1.019
2026/05/14 10:31:24.283,0.055,0.041,1.015
2026/05/14 10:31:24.303,0.056,0.042,1.017
2026/05/14 10:31:24.324,0.056,0.043,1.014
2026/05/14 10:31:24.344,0.052,0.044,1.015
2026/05/14 10:31:24.364,0.052,0.043,1.018
2026/05/14 10:31:24.384,0.053,0.043,1.017
2026/05/14 10:31:24.404,0.055,0.044,1.013
2026/05/14 10:31:24.425,0.053,0.043,1.014
2026/05/14 10:31:24.445,0.057,0.043,1.013
2026/05/14 10:31:24.465,0.051,0.042,1.013
2026/05/14 10:31:24.485,0.055,0.044,1.016
2026/05/14 10:31:24.505,0.054,0.043,1.014
2026/05/14 10:31:24.526,0.057,0.043,1.017
2026/05/14 10:31:24.546,0.051,0.046,1.012
2026/05/14 10:31:24.566,0.057,0.046,1.016
2026/05/14 10:31:24.586,0.055,0.046,1.013
2026/05/14 10:31:24.606,0.055,0.046,1.013
2026/05/14 10:31:24.626,0.051,0.045,1.015
2026/05/14 10:31:24.647,0.053,0.042,1.012
2026/05/14 10:31:24.667,0.051,0.042,1.016
2026/05/14 10:31:24.687,0.055,0.04,1.015
2026/05/14 10:31:24.707,0.051,0.041,1.017
2026/05/14 10:31:24.727,0.057,0.041,1.016
2026/05/14 10:31:24.748,0.056,0.043,1.013
2026/05/14 10:31:24.768,0.056,0.043,1.014
2026/05/14 10:31:24.788,0.057,0.044,1.017
2026/05/14 10:31:24.808,0.057,0.039,1.019
2026/05/14 10:31:24.828,0.055,0.044,1.013
2026/05/14 10:31:24.849,0.054,0.041,1.013
2026/05/14 10:31:24.869,0.052,0.042,1.018
2026/05/14 10:31:24.889,0.052,0.046,1.016
2026/05/14 10:31:24.909,0.055,0.048,1.011
2026/05/14 10:31:24.929,0.052,0.041,1.012
2026/05/14 10:31:24.950,0.056,0.041,1.012
2026/05/14 10:31:24.970,0.055,0.041,1.015
2026/05/14 10:31:24.990,0.052,0.045,1.013
2026/05/14 10:31:25.010,0.049,0.039,1.015
2026/05/14 10:31:25.030,0.052,0.044,1.013
2026/05/14 10:31:25.051,0.049,0.042,1.018
2026/05/14 10:31:25.071,0.05,0.042,1.01
2026/05/14 10:31:25.091,0.054,0.041,1.011
2026/05/14 10:31:25.111,0.055,0.044,1.016
2026/05/14 10:31:25.131,0.053,0.042,1.013
2026/05/14 10:31:25.151,0.054,0.046,1.018
2026/05/14 10:31:25.172,0.05,0.044,1.015
2026/05/14 10:31:25.192,0.056,0.044,1.018
2026/05/14 10:31:25.212,0.054,0.043,1.012
2026/05/14 10:31:25.232,0.057,0.043,1.015
2026/05/14 10:31:25.252,0.054,0.041,1.017
2026/05/14 10:31:25.273,0.054,0.043,1.012
2026/05/14 10:31:25.293,0.053,0.047,1.018
2026/05/14 10:31:25.313,0.06,0.04,1.016
2026/05/14 10:31:25.333,0.051,0.044,1.018
2026/05/14 10:31:25.353,0.054,0.044,1.013
2026/05/14 10:31:25.374,0.053,0.045,1.018
2026/05/14 10:31:25.394,0.055,0.044,1.013
2026/05/14 10:31:25.414,0.056,0.043,1.011
2026/05/14 10:31:25.434,0.055,0.043,1.014
2026/05/14 10:31:25.454,0.052,0.043,1.015
2026/05/14 10:31:25.475,0.055,0.044,1.013
2026/05/14 10:31:25.495,0.056,0.039,1.014
2026/05/14 10:31:25.515,0.055,0.044,1.014
2026/05/14 10:31:25.535,0.055,0.044,1.016
2026/05/14 10:31:25.555,0.053,0.045,1.015
2026/05/14 10:31:25.576,0.051,0.046,1.013
2026/05/14 10:31:25.596,0.053,0.042,1.012
2026/05/14 10:31:25.616,0.059,0.041,1.016
2026/05/14 10:31:25.636,0.056,0.042,1.014
2026/05/14 10:31:25.656,0.058,0.04,1.013
2026/05/14 10:31:25.676,0.053,0.044,1.013
2026/05/14 10:31:25.697,0.055,0.043,1.011
2026/05/14 10:31:25.717,0.052,0.041,1.016
2026/05/14 10:31:25.737,0.058,0.047,1.016
2026/05/14 10:31:25.757,0.054,0.045,1.015
2026/05/14 10:31:25.777,0.055,0.044,1.015
2026/05/14 10:31:25.798,0.053,0.04,1.016
2026/05/14 10:31:25.818,0.051,0.043,1.013
2026/05/14 10:31:25.838,0.048,0.043,1.014
2026/05/14 10:31:25.858,0.053,0.045,1.016
2026/05/14 10:31:25.878,0.053,0.043,1.011
2026/05/14 10:31:25.899,0.053,0.045,1.012
2026/05/14 10:31:25.919,0.055,0.043,1.012
2026/05/14 10:31:25.939,0.053,0.045,1.015
2026/05/14 10:31:25.959,0.053,0.044,1.014
2026/05/14 10:31:25.979,0.054,0.043,1.014
2026/05/14 10:31:26.000,0.054,0.042,1.015
2026/05/14 10:31:26.020,0.053,0.044,1.009
2026/05/14 10:31:26.040,0.052,0.043,1.017
2026/05/14 10:31:26.060,0.055,0.043,1.015
2026/05/14 10:31:26.080,0.056,0.045,1.017
2026/05/14 10:31:26.100,0.05,0.044,1.013
2026/05/14 10:31:26.121,0.055,0.046,1.015
2026/05/14 10:31:26.141,0.052,0.042,1.015
2026/05/14 10:31:26.161,0.054,0.042,1.015
2026/05/14 10:31:26.181,0.053,0.041,1.017
2026/05/14 10:31:26.201,0.052,0.042,1.014
2026/05/14 10:31:26.222,0.053,0.044,1.017
2026/05/14 10:31:26.242,0.051,0.045,1.016
2026/05/14 10:31:26.262,0.053,0.043,1.013
2026/05/14 10:31:26.282,0.05,0.042,1.011
2026/05/14 10:31:26.302,0.054,0.043,1.016
2026/05/14 10:31:26.323,0.055,0.042,1.015
2026/05/14 10:31:26.343,0.058,0.045,1.016
2026/05/14 10:31:26.363,0.055,0.042,1.015
2026/05/14 10:31:26.383,0.056,0.042,1.013
2026/05/14 10:31:26.403,0.059,0.04,1.016
2026/05/14 10:31:26.424,0.054,0.042,1.015
2026/05/14 10:31:26.444,0.053,0.043,1.015
2026/05/14 10:31:26.464,0.053,0.041,1.014
2026/05/14 10:31:26.484,0.054,0.042,1.016
2026/05/14 10:31:26.504,0.055,0.04,1.013
2026/05/14 10:31:26.524,0.051,0.044,1.018
2026/05/14 10:31:26.545,0.052,0.044,1.01
2026/05/14 10:31:26.565,0.059,0.041,1.013
2026/05/14 10:31:26.585,0.058,0.042,1.015
2026/05/14 10:31:26.605,0.058,0.041,1.016
2026/05/14 10:31:26.625,0.053,0.044,1.014
2026/05/14 10:31:26.646,0.055,0.04,1.016
2026/05/14 10:31:26.666,0.05,0.043,1.017
2026/05/14 10:31:26.686,0.053,0.043,1.016
2026/05/14 10:31:26.706,0.052,0.042,1.012
2026/05/14 10:31:26.726,0.055,0.046,1.018
2026/05/14 10:31:26.747,0.057,0.047,1.017
2026/05/14 10:31:26.767,0.055,0.042,1.016
2026/05/14 10:31:26.787,0.051,0.044,1.011
2026/05/14 10:31:26.807,0.05,0.043,1.011
2026/05/14 10:31:26.827,0.056,0.039,1.018
2026/05/14 10:31:26.848,0.054,0.042,1.015
2026/05/14 10:31:26.868,0.053,0.041,1.013
2026/05/14 10:31:26.888,0.055,0.042,1.015
2026/05/14 10:31:26.908,0.052,0.043,1.018
2026/05/14 10:31:26.928,0.056,0.046,1.014
2026/05/14 10:31:26.948,0.053,0.042,1.012
2026/05/14 10:31:26.969,0.055,0.043,1.011
2026/05/14 10:31:26.989,0.051,0.044,1.016
2026/05/14 10:31:27.009,0.057,0.041,1.013
2026/05/14 10:31:27.029,0.054,0.043,1.016
2026/05/14 10:31:27.049,0.055,0.043,1.014
2026/05/14 10:31:27.070,0.051,0.045,1.013
2026/05/14 10:31:27.090,0.055,0.044,1.016
2026/05/14 10:31:27.110,0.055,0.042,1.02
2026/05/14 10:31:27.130,0.052,0.042,1.012
2026/05/14 10:31:27.150,0.05,0.044,1.016
2026/05/14 10:31:27.171,0.054,0.042,1.016
2026/05/14 10:31:27.191,0.056,0.044,1.013
2026/05/14 10:31:27.211,0.056,0.043,1.016
2026/05/14 10:31:27.231,0.051,0.042,1.017
2026/05/14 10:31:27.251,0.053,0.041,1.013
2026/05/14 10:31:27.272,0.057,0.043,1.015
2026/05/14 10:31:27.292,0.056,0.043,1.017
2026/05/14 10:31:27.312,0.053,0.042,1.014
2026/05/14 10:31:27.332,0.056,0.042,1.015
2026/05/14 10:31:27.352,0.055,0.042,1.017
2026/05/14 10:31:27.372,0.054,0.044,1.015
2026/05/14 10:31:27.393,0.052,0.044,1.016
2026/05/14 10:31:27.413,0.052,0.043,1.017
2026/05/14 10:31:27.433,0.057,0.04,1.011
2026/05/14 10:31:27.453,0.051,0.044,1.014
2026/05/14 10:31:27.473,0.054,0.046,1.016
2026/05/14 10:31:27.494,0.053,0.045,1.013
2026/05/14 10:31:27.514,0.057,0.041,1.014
2026/05/14 10:31:27.534,0.056,0.045,1.013
2026/05/14 10:31:27.554,0.052,0.043,1.016
2026/05/14 10:31:27.574,0.055,0.04,1.015
2026/05/14 10:31:27.595,0.055,0.044,1.012
2026/05/14 10:31:27.615,0.055,0.042,1.014
2026/05/14 10:31:27.635,0.052,0.04,1.015
2026/05/14 10:31:27.655,0.055,0.044,1.016
2026/05/14 10:31:27.675,0.055,0.047,1.013
2026/05/14 10:31:27.696,0.053,0.044,1.015
2026/05/14 10:31:27.716,0.055,0.044,1.012
2026/05/14 10:31:27.736,0.057,0.045,1.012
2026/05/14 10:31:27.756,0.054,0.043,1.012
2026/05/14 10:31:27.776,0.06,0.039,1.019
2026/05/14 10:31:27.797,0.055,0.045,1.013
2026/05/14 10:31:27.817,0.055,0.042,1.015
2026/05/14 10:31:27.837,0.055,0.044,1.014
2026/05/14 10:31:27.857,0.054,0.046,1.015
2026/05/14 10:31:27.877,0.056,0.045,1.014
2026/05/14 10:31:27.897,0.053,0.041,1.014
2026/05/14 10:31:27.918,0.052,0.048,1.01
2026/05/14 10:31:27.938,0.055,0.043,1.014
2026/05/14 10:31:27.958,0.057,0.044,1.017
2026/05/14 10:31:27.978,0.053,0.039,1.015
2026/05/14 10:31:27.998,0.056,0.039,1.009
2026/05/14 10:31:28.019,0.051,0.04,1.01
2026/05/14 10:31:28.039,0.055,0.038,1.015
2026/05/14 10:31:28.059,0.055,0.042,1.016
2026/05/14 10:31:28.079,0.051,0.047,1.012
2026/05/14 10:31:28.099,0.056,0.044,1.014
2026/05/14 10:31:28.120,0.051,0.041,1.015
2026/05/14 10:31:28.140,0.057,0.047,1.015
2026/05/14 10:31:28.160,0.055,0.041,1.016
2026/05/14 10:31:28.180,0.053,0.04,1.014
2026/05/14 10:31:28.200,0.053,0.042,1.016
2026/05/14 10:31:28.221,0.051,0.043,1.009
2026/05/14 10:31:28.241,0.052,0.045,1.016
2026/05/14 10:31:28.261,0.053,0.039,1.013
2026/05/14 10:31:28.281,0.055,0.043,1.013
2026/05/14 10:31:28.301,0.058,0.042,1.014
2026/05/14 10:31:28.321,0.051,0.046,1.014
2026/05/14 10:31:28.342,0.053,0.045,1.018
2026/05/14 10:31:28.362,0.054,0.039,1.011
2026/05/14 10:31:28.382,0.054,0.046,1.013
2026/05/14 10:31:28.402,0.055,0.042,1.016
2026/05/14 10:31:28.422,0.051,0.045,1.015
2026/05/14 10:31:28.443,0.058,0.045,1.014
2026/05/14 10:31:28.463,0.057,0.045,1.011
2026/05/14 10:31:28.483,0.054,0.047,1.018
2026/05/14 10:31:28.503,0.053,0.045,1.012
2026/05/14 10:31:28.523,0.055,0.042,1.014
2026/05/14 10:31:28.544,0.054,0.042,1.015
2026/05/14 10:31:28.564,0.054,0.044,1.014
2026/05/14 10:31:28.584,0.051,0.044,1.013
2026/05/14 10:31:28.604,0.053,0.044,1.014
2026/05/14 10:31:28.624,0.053,0.044,1.013
2026/05/14 10:31:28.645,0.054,0.042,1.016
2026/05/14 10:31:28.665,0.056,0.043,1.015
2026/05/14 10:31:28.685,0.054,0.042,1.015
2026/05/14 10:31:28.705,0.054,0.046,1.014
2026/05/14 10:31:28.725,0.055,0.043,1.014
2026/05/14 10:31:28.745,0.054,0.043,1.015
2026/05/14 10:31:28.766,0.054,0.044,1.015
2026/05/14 10:31:28.786,0.052,0.043,1.012
2026/05/14 10:31:28.806,0.054,0.046,1.015
2026/05/14 10:31:28.826,0.059,0.041,1.019
2026/05/14 10:31:28.846,0.051,0.044,1.009
2026/05/14 10:31:28.867,0.053,0.041,1.016
2026/05/14 10:31:28.887,0.054,0.044,1.015
2026/05/14 10:31:28.907,0.055,0.041,1.016
2026/05/14 10:31:28.927,0.054,0.044,1.019
2026/05/14 10:31:28.947,0.056,0.045,1.02
2026/05/14 10:31:28.968,0.051,0.044,1.018
2026/05/14 10:31:28.988,0.052,0.041,1.011
2026/05/14 10:31:29.008,0.052,0.044,1.01
2026/05/14 10:31:29.028,0.053,0.047,1.013
2026/05/14 10:31:29.048,0.055,0.042,1.014
2026/05/14 10:31:29.069,0.056,0.043,1.017
2026/05/14 10:31:29.089,0.055,0.044,1.018
2026/05/14 10:31:29.109,0.056,0.042,1.011
2026/05/14 10:31:29.129,0.052,0.044,1.01
2026/05/14 10:31:29.149,0.054,0.045,1.016
2026/05/14 10:31:29.169,0.055,0.038,1.018
2026/05/14 10:31:29.190,0.052,0.046,1.012
2026/05/14 10:31:29.210,0.057,0.042,1.013
2026/05/14 10:31:29.230,0.054,0.041,1.016
2026/05/14 10:31:29.250,0.061,0.045,1.016
2026/05/14 10:31:29.270,0.055,0.044,1.019
2026/05/14 10:31:29.291,0.053,0.042,1.012
2026/05/14 10:31:29.311,0.056,0.045,1.012
2026/05/14 10:31:29.331,0.056,0.044,1.013
2026/05/14 10:31:29.351,0.055,0.048,1.015
2026/05/14 10:31:29.371,0.052,0.04,1.015
2026/05/14 10:31:29.392,0.054,0.042,1.012
2026/05/14 10:31:29.412,0.053,0.046,1.014
2026/05/14 10:31:29.432,0.054,0.044,1.016
2026/05/14 10:31:29.452,0.054,0.045,1.02
2026/05/14 10:31:29.472,0.055,0.042,1.015
2026/05/14 10:31:29.493,0.054,0.042,1.018
2026/05/14 10:31:29.513,0.055,0.043,1.018
2026/05/14 10:31:29.533,0.056,0.042,1.014
2026/05/14 10:31:29.553,0.054,0.041,1.016
2026/05/14 10:31:29.573,0.054,0.041,1.014
2026/05/14 10:31:29.593,0.052,0.041,1.013
2026/05/14 10:31:29.614,0.056,0.041,1.017
2026/05/14 10:31:29.634,0.053,0.042,1.013
2026/05/14 10:31:29.654,0.057,0.037,1.014
2026/05/14 10:31:29.674,0.054,0.045,1.014
2026/05/14 10:31:29.694,0.057,0.042,1.013
2026/05/14 10:31:29.715,0.057,0.043,1.013
2026/05/14 10:31:29.735,0.052,0.041,1.013
2026/05/14 10:31:29.755,0.055,0.043,1.014
2026/05/14 10:31:29.775,0.056,0.043,1.009
2026/05/14 10:31:29.795,0.054,0.044,1.011
2026/05/14 10:31:29.816,0.055,0.044,1.013
2026/05/14 10:31:29.836,0.055,0.044,1.016
2026/05/14 10:31:29.856,0.053,0.04,1.016
2026/05/14 10:31:29.876,0.055,0.047,1.013
2026/05/14 10:31:29.896,0.058,0.039,1.019
2026/05/14 10:31:29.917,0.053,0.04,1.009
2026/05/14 10:31:29.937,0.051,0.049,1.013
2026/05/14 10:31:29.957,0.055,0.046,1.014
2026/05/14 10:31:29.977,0.057,0.044,1.016
2026/05/14 10:31:29.997,0.056,0.043,1.015
2026/05/14 10:31:30.017,0.055,0.041,1.015
2026/05/14 10:31:30.038,0.051,0.045,1.01
2026/05/14 10:31:30.058,0.054,0.04,1.015
2026/05/14 10:31:30.078,0.055,0.047,1.011
2026/05/14 10:31:30.098,0.055,0.043,1.015
