Timestamp,ACC X,ACC Y,ACC Z
2026/05/14 10:29:38.447,-0.018,0.024,1.0
2026/05/14 10:29:38.466,-0.028,0.019,0.991
2026/05/14 10:29:38.486,-0.02,0.024,0.996
2026/05/14 10:29:38.505,-0.012,0.022,1.005
2026/05/14 10:29:38.524,-0.012,0.019,1.009
2026/05/14 10:29:38.543,-0.01,0.027,1.011
2026/05/14 10:29:38.562,-0.014,0.021,1.006
2026/05/14 10:29:38.582,-0.013,0.021,1.002
2026/05/14 10:29:38.601,-0.011,0.022,1.006
2026/05/14 10:29:38.620,-0.011,0.022,1.008
2026/05/14 10:29:38.639,-0.012,0.022,1.003
2026/05/14 10:29:38.659,-0.013,0.019,0.995
2026/05/14 10:29:38.678,-0.009,0.023,1.008
2026/05/14 10:29:38.697,-0.012,0.02,1.015
2026/05/14 10:29:38.716,-0.014,0.025,1.01
2026/05/14 10:29:38.736,-0.013,0.025,1.014
2026/05/14 10:29:38.755,-0.018,0.021,1.007
2026/05/14 10:29:38.774,-0.014,0.023,1.008
2026/05/14 10:29:38.793,-0.018,0.019,1.0
2026/05/14 10:29:38.812,-0.018,0.023,1.0
2026/05/14 10:29:38.832,-0.009,0.021,1.002
2026/05/14 10:29:38.851,-0.012,0.02,1.01
2026/05/14 10:29:38.870,-0.018,0.021,1.001
2026/05/14 10:29:38.889,-0.012,0.013,1.0
2026/05/14 10:29:38.909,-0.014,0.021,1.004
2026/05/14 10:29:38.928,-0.01,0.022,1.01
2026/05/14 10:29:38.947,-0.014,0.023,0.998
2026/05/14 10:29:38.966,-0.019,0.019,0.998
2026/05/14 10:29:38.986,-0.015,0.024,1.0
2026/05/14 10:29:39.005,-0.014,0.027,1.012
2026/05/14 10:29:39.024,-0.015,0.025,1.002
2026/05/14 10:29:39.043,-0.014,0.025,1.005
2026/05/14 10:29:39.062,-0.012,0.022,1.006
2026/05/14 10:29:39.082,-0.016,0.021,1.003
2026/05/14 10:29:39.101,-0.015,0.021,1.004
2026/05/14 10:29:39.120,-0.014,0.019,1.008
2026/05/14 10:29:39.139,-0.012,0.02,1.007
2026/05/14 10:29:39.159,-0.014,0.021,1.003
2026/05/14 10:29:39.178,-0.011,0.022,1.003
2026/05/14 10:29:39.197,-0.014,0.02,1.009
2026/05/14 10:29:39.216,-0.014,0.018,1.002
2026/05/14 10:29:39.236,-0.009,0.018,1.003
2026/05/14 10:29:39.255,-0.012,0.02,1.004
2026/05/14 10:29:39.274,-0.016,0.016,1.005
2026/05/14 10:29:39.293,-0.018,0.027,1.004
2026/05/14 10:29:39.312,-0.014,0.019,1.002
2026/05/14 10:29:39.332,-0.014,0.019,1.007
2026/05/14 10:29:39.351,-0.016,0.022,1.006
2026/05/14 10:29:39.370,-0.018,0.021,1.005
2026/05/14 10:29:39.389,-0.015,0.02,1.008
2026/05/14 10:29:39.409,-0.011,0.022,1.005
2026/05/14 10:29:39.428,-0.012,0.019,1.006
2026/05/14 10:29:39.447,-0.017,0.024,1.004
2026/05/14 10:29:39.466,-0.012,0.018,1.001
2026/05/14 10:29:39.486,-0.015,0.024,1.007
2026/05/14 10:29:39.505,-0.01,0.02,1.01
2026/05/14 10:29:39.524,-0.013,0.026,1.005
2026/05/14 10:29:39.543,-0.015,0.021,1.004
2026/05/14 10:29:39.562,-0.017,0.022,1.003
2026/05/14 10:29:39.582,-0.015,0.021,1.001
2026/05/14 10:29:39.601,-0.013,0.022,1.004
2026/05/14 10:29:39.620,-0.016,0.023,1.001
2026/05/14 10:29:39.639,-0.016,0.023,1.009
2026/05/14 10:29:39.659,-0.016,0.021,1.007
2026/05/14 10:29:39.678,-0.015,0.019,1.005
2026/05/14 10:29:39.697,-0.018,0.021,1.006
2026/05/14 10:29:39.716,-0.016,0.021,1.005
2026/05/14 10:29:39.736,-0.01,0.017,1.004
2026/05/14 10:29:39.755,-0.01,0.017,1.002
2026/05/14 10:29:39.774,-0.011,0.022,1.006
2026/05/14 10:29:39.793,-0.016,0.019,1.007
2026/05/14 10:29:39.812,-0.017,0.019,1.004
2026/05/14 10:29:39.832,-0.012,0.018,1.005
2026/05/14 10:29:39.851,-0.016,0.021,1.001
2026/05/14 10:29:39.870,-0.014,0.023,1.007
2026/05/14 10:29:39.889,-0.013,0.02,1.009
2026/05/14 10:29:39.909,-0.014,0.018,1.005
2026/05/14 10:29:39.928,-0.013,0.022,1.007
2026/05/14 10:29:39.947,-0.014,0.021,1.002
2026/05/14 10:29:39.966,-0.014,0.021,1.005
2026/05/14 10:29:39.986,-0.013,0.018,1.004
2026/05/14 10:29:40.005,-0.015,0.022,1.002
2026/05/14 10:29:40.024,-0.012,0.02,1.004
2026/05/14 10:29:40.043,-0.014,0.021,1.003
2026/05/14 10:29:40.062,-0.014,0.018,1.003
2026/05/14 10:29:40.082,-0.013,0.023,1.007
2026/05/14 10:29:40.101,-0.014,0.018,1.004
2026/05/14 10:29:40.120,-0.015,0.021,1.004
2026/05/14 10:29:40.139,-0.015,0.021,1.004
2026/05/14 10:29:40.159,-0.015,0.016,1.007
2026/05/14 10:29:40.178,-0.016,0.018,1.006
2026/05/14 10:29:40.197,-0.013,0.021,1.002
2026/05/14 10:29:40.216,-0.014,0.02,1.003
2026/05/14 10:29:40.236,-0.01,0.022,1.006
2026/05/14 10:29:40.255,-0.014,0.023,1.004
2026/05/14 10:29:40.274,-0.012,0.02,1.004
2026/05/14 10:29:40.293,-0.011,0.022,1.005
2026/05/14 10:29:40.312,-0.016,0.02,1.008
2026/05/14 10:29:40.332,-0.017,0.019,1.006
2026/05/14 10:29:40.351,-0.012,0.018,1.005
2026/05/14 10:29:40.370,-0.012,0.019,1.004
2026/05/14 10:29:40.389,-0.015,0.021,1.005
2026/05/14 10:29:40.409,-0.011,0.022,1.005
2026/05/14 10:29:40.428,-0.016,0.022,1.005
2026/05/14 10:29:40.447,-0.012,0.024,1.005
2026/05/14 10:29:40.466,-0.016,0.023,1.005
2026/05/14 10:29:40.486,-0.012,0.023,1.006
2026/05/14 10:29:40.505,-0.013,0.023,1.004
2026/05/14 10:29:40.524,-0.014,0.019,1.006
2026/05/14 10:29:40.543,-0.013,0.019,1.004
2026/05/14 10:29:40.562,-0.014,0.022,1.006
2026/05/14 10:29:40.582,-0.016,0.018,1.008
2026/05/14 10:29:40.601,-0.014,0.021,1.002
2026/05/14 10:29:40.620,-0.013,0.02,1.007
2026/05/14 10:29:40.639,-0.013,0.022,1.005
2026/05/14 10:29:40.659,-0.015,0.023,1.003
2026/05/14 10:29:40.678,-0.015,0.021,1.004
2026/05/14 10:29:40.697,-0.014,0.026,1.007
2026/05/14 10:29:40.716,-0.016,0.018,1.004
2026/05/14 10:29:40.736,-0.013,0.022,1.004
2026/05/14 10:29:40.755,-0.015,0.019,1.006
2026/05/14 10:29:40.774,-0.016,0.024,1.002
2026/05/14 10:29:40.793,-0.018,0.023,1.005
2026/05/14 10:29:40.812,-0.012,0.023,1.006
2026/05/14 10:29:40.832,-0.017,0.015,1.006
2026/05/14 10:29:40.852,-0.015,0.023,1.005
2026/05/14 10:29:40.872,-0.016,0.022,1.004
2026/05/14 10:29:40.893,-0.012,0.021,1.004
2026/05/14 10:29:40.913,-0.016,0.023,1.004
2026/05/14 10:29:40.933,-0.014,0.023,1.005
2026/05/14 10:29:40.953,-0.015,0.021,1.004
2026/05/14 10:29:40.974,-0.018,0.02,1.006
2026/05/14 10:29:40.994,-0.017,0.021,1.01
2026/05/14 10:29:41.014,-0.017,0.02,1.004
2026/05/14 10:29:41.035,-0.014,0.018,1.003
2026/05/14 10:29:41.055,-0.016,0.022,1.002
2026/05/14 10:29:41.075,-0.017,0.02,1.007
2026/05/14 10:29:41.096,-0.014,0.023,1.006
2026/05/14 10:29:41.116,-0.013,0.016,1.004
2026/05/14 10:29:41.136,-0.015,0.022,1.002
2026/05/14 10:29:41.156,-0.016,0.022,1.005
2026/05/14 10:29:41.177,-0.011,0.02,1.005
2026/05/14 10:29:41.197,-0.017,0.021,1.007
2026/05/14 10:29:41.217,-0.016,0.02,1.002
2026/05/14 10:29:41.238,-0.016,0.021,1.005
2026/05/14 10:29:41.258,-0.012,0.021,1.004
2026/05/14 10:29:41.278,-0.016,0.022,1.004
2026/05/14 10:29:41.298,-0.016,0.023,1.0
2026/05/14 10:29:41.319,-0.016,0.022,1.003
2026/05/14 10:29:41.339,-0.014,0.023,1.001
2026/05/14 10:29:41.359,-0.016,0.02,1.008
2026/05/14 10:29:41.380,-0.011,0.024,1.008
2026/05/14 10:29:41.400,-0.018,0.021,1.005
2026/05/14 10:29:41.420,-0.016,0.022,1.002
2026/05/14 10:29:41.440,-0.014,0.025,1.006
2026/05/14 10:29:41.461,-0.015,0.023,1.003
2026/05/14 10:29:41.481,-0.011,0.018,1.005
2026/05/14 10:29:41.501,-0.019,0.019,1.008
2026/05/14 10:29:41.522,-0.015,0.021,1.004
2026/05/14 10:29:41.542,-0.014,0.022,1.006
2026/05/14 10:29:41.562,-0.016,0.019,1.004
2026/05/14 10:29:41.582,-0.015,0.022,1.001
2026/05/14 10:29:41.603,-0.014,0.025,1.005
2026/05/14 10:29:41.623,-0.017,0.022,1.008
2026/05/14 10:29:41.643,-0.015,0.024,1.008
2026/05/14 10:29:41.664,-0.012,0.022,1.006
2026/05/14 10:29:41.684,-0.016,0.022,1.004
2026/05/14 10:29:41.704,-0.016,0.019,1.003
2026/05/14 10:29:41.725,-0.012,0.017,1.006
2026/05/14 10:29:41.745,-0.017,0.018,1.008
2026/05/14 10:29:41.765,-0.012,0.02,1.006
2026/05/14 10:29:41.785,-0.016,0.022,1.008
2026/05/14 10:29:41.806,-0.014,0.019,1.005
2026/05/14 10:29:41.826,-0.013,0.027,1.006
2026/05/14 10:29:41.846,-0.016,0.02,1.008
2026/05/14 10:29:41.867,-0.011,0.024,1.003
2026/05/14 10:29:41.887,-0.015,0.026,1.005
2026/05/14 10:29:41.907,-0.016,0.02,1.006
2026/05/14 10:29:41.927,-0.011,0.021,1.004
2026/05/14 10:29:41.948,-0.011,0.023,1.005
2026/05/14 10:29:41.968,-0.018,0.022,1.006
2026/05/14 10:29:41.988,-0.014,0.022,1.004
2026/05/14 10:29:42.009,-0.014,0.023,1.004
2026/05/14 10:29:42.029,-0.018,0.02,1.005
2026/05/14 10:29:42.049,-0.014,0.024,1.005
2026/05/14 10:29:42.069,-0.015,0.019,1.001
2026/05/14 10:29:42.090,-0.013,0.022,1.003
2026/05/14 10:29:42.110,-0.014,0.017,1.005
2026/05/14 10:29:42.130,-0.014,0.018,1.007
2026/05/14 10:29:42.151,-0.013,0.016,1.006
2026/05/14 10:29:42.171,-0.016,0.02,1.007
2026/05/14 10:29:42.191,-0.013,0.024,1.006
2026/05/14 10:29:42.211,-0.015,0.023,1.006
2026/05/14 10:29:42.232,-0.014,0.02,1.004
2026/05/14 10:29:42.252,-0.018,0.022,1.005
2026/05/14 10:29:42.272,-0.014,0.021,1.0
2026/05/14 10:29:42.293,-0.012,0.022,1.008
2026/05/14 10:29:42.313,-0.015,0.023,1.006
2026/05/14 10:29:42.333,-0.014,0.019,1.005
2026/05/14 10:29:42.354,-0.013,0.021,1.007
2026/05/14 10:29:42.374,-0.017,0.019,1.006
2026/05/14 10:29:42.394,-0.016,0.021,1.003
2026/05/14 10:29:42.414,-0.019,0.019,1.004
2026/05/14 10:29:42.435,-0.013,0.022,1.01
2026/05/14 10:29:42.455,-0.013,0.016,1.003
2026/05/14 10:29:42.475,-0.014,0.024,1.005
2026/05/14 10:29:42.496,-0.014,0.019,1.007
2026/05/14 10:29:42.516,-0.018,0.022,1.002
2026/05/14 10:29:42.536,-0.013,0.018,1.004
2026/05/14 10:29:42.556,-0.015,0.02,1.004
2026/05/14 10:29:42.577,-0.013,0.017,1.005
2026/05/14 10:29:42.597,-0.018,0.025,1.004
2026/05/14 10:29:42.617,-0.02,0.022,1.007
2026/05/14 10:29:42.638,-0.014,0.022,1.005
2026/05/14 10:29:42.658,-0.012,0.022,1.003
2026/05/14 10:29:42.678,-0.014,0.021,1.001
2026/05/14 10:29:42.698,-0.014,0.022,1.002
2026/05/14 10:29:42.719,-0.016,0.019,1.004
2026/05/14 10:29:42.739,-0.016,0.021,1.003
2026/05/14 10:29:42.759,-0.015,0.02,0.999
2026/05/14 10:29:42.780,-0.016,0.022,1.008
2026/05/14 10:29:42.800,-0.018,0.022,1.005
2026/05/14 10:29:42.820,-0.017,0.02,1.0
2026/05/14 10:29:42.840,-0.012,0.022,1.006
2026/05/14 10:29:42.861,-0.014,0.02,1.008
2026/05/14 10:29:42.881,-0.015,0.02,1.005
2026/05/14 10:29:42.901,-0.016,0.021,1.005
2026/05/14 10:29:42.922,-0.015,0.022,1.006
2026/05/14 10:29:42.942,-0.013,0.021,1.003
2026/05/14 10:29:42.962,-0.014,0.02,1.006
2026/05/14 10:29:42.983,-0.016,0.02,0.999
2026/05/14 10:29:43.003,-0.016,0.021,1.005
2026/05/14 10:29:43.023,-0.01,0.016,1.006
2026/05/14 10:29:43.043,-0.017,0.022,1.006
2026/05/14 10:29:43.064,-0.018,0.025,1.005
2026/05/14 10:29:43.084,-0.016,0.021,1.004
2026/05/14 10:29:43.104,-0.015,0.022,1.005
2026/05/14 10:29:43.125,-0.012,0.021,1.002
2026/05/14 10:29:43.145,-0.014,0.022,1.006
2026/05/14 10:29:43.165,-0.017,0.022,1.002
2026/05/14 10:29:43.185,-0.015,0.021,1.005
2026/05/14 10:29:43.206,-0.015,0.024,1.003
2026/05/14 10:29:43.226,-0.017,0.022,1.005
2026/05/14 10:29:43.246,-0.011,0.024,1.006
2026/05/14 10:29:43.267,-0.015,0.024,1.007
2026/05/14 10:29:43.287,-0.014,0.021,1.007
2026/05/14 10:29:43.307,-0.014,0.02,1.006
2026/05/14 10:29:43.327,-0.02,0.023,1.009
2026/05/14 10:29:43.348,-0.013,0.026,1.008
2026/05/14 10:29:43.368,-0.013,0.018,1.004
2026/05/14 10:29:43.388,-0.017,0.023,1.006
2026/05/14 10:29:43.409,-0.014,0.023,1.007
2026/05/14 10:29:43.429,-0.015,0.019,1.006
2026/05/14 10:29:43.449,-0.015,0.017,1.008
2026/05/14 10:29:43.470,-0.013,0.02,1.005
2026/05/14 10:29:43.490,-0.012,0.021,1.001
2026/05/14 10:29:43.510,-0.02,0.023,1.004
2026/05/14 10:29:43.530,-0.016,0.022,1.005
2026/05/14 10:29:43.551,-0.013,0.026,1.002
2026/05/14 10:29:43.571,-0.016,0.018,1.003
2026/05/14 10:29:43.591,-0.013,0.024,1.004
2026/05/14 10:29:43.612,-0.016,0.02,1.005
2026/05/14 10:29:43.632,-0.016,0.018,1.003
2026/05/14 10:29:43.652,-0.013,0.021,1.006
2026/05/14 10:29:43.672,-0.015,0.022,1.004
2026/05/14 10:29:43.693,-0.015,0.027,1.001
2026/05/14 10:29:43.713,-0.014,0.022,1.006
2026/05/14 10:29:43.733,-0.016,0.02,1.006
2026/05/14 10:29:43.754,-0.013,0.017,1.004
2026/05/14 10:29:43.774,-0.015,0.023,1.002
2026/05/14 10:29:43.794,-0.016,0.025,1.008
2026/05/14 10:29:43.814,-0.016,0.024,1.006
2026/05/14 10:29:43.835,-0.013,0.017,1.005
2026/05/14 10:29:43.855,-0.014,0.019,1.006
2026/05/14 10:29:43.875,-0.015,0.017,1.006
2026/05/14 10:29:43.896,-0.013,0.022,1.007
2026/05/14 10:29:43.916,-0.015,0.018,1.004
2026/05/14 10:29:43.936,-0.015,0.021,1.006
2026/05/14 10:29:43.957,-0.016,0.021,1.005
2026/05/14 10:29:43.977,-0.017,0.021,1.005
2026/05/14 10:29:43.997,-0.014,0.019,1.001
2026/05/14 10:29:44.017,-0.017,0.019,1.008
2026/05/14 10:29:44.038,-0.017,0.021,1.002
2026/05/14 10:29:44.058,-0.012,0.021,1.003
2026/05/14 10:29:44.078,-0.015,0.021,1.004
2026/05/14 10:29:44.099,-0.014,0.019,1.006
2026/05/14 10:29:44.119,-0.014,0.02,1.006
2026/05/14 10:29:44.139,-0.01,0.021,1.004
2026/05/14 10:29:44.159,-0.015,0.023,1.004
2026/05/14 10:29:44.180,-0.013,0.023,1.005
2026/05/14 10:29:44.200,-0.018,0.026,1.005
2026/05/14 10:29:44.220,-0.016,0.019,1.002
2026/05/14 10:29:44.241,-0.017,0.02,1.002
2026/05/14 10:29:44.261,-0.012,0.021,1.002
2026/05/14 10:29:44.281,-0.016,0.023,1.008
2026/05/14 10:29:44.302,-0.018,0.021,1.004
2026/05/14 10:29:44.322,-0.016,0.022,1.005
2026/05/14 10:29:44.342,-0.012,0.021,1.003
2026/05/14 10:29:44.362,-0.015,0.019,1.003
2026/05/14 10:29:44.383,-0.018,0.019,1.004
2026/05/14 10:29:44.403,-0.014,0.02,1.007
2026/05/14 10:29:44.423,-0.016,0.026,1.001
2026/05/14 10:29:44.444,-0.015,0.021,1.005
2026/05/14 10:29:44.464,-0.012,0.018,1.007
2026/05/14 10:29:44.484,-0.017,0.021,1.006
2026/05/14 10:29:44.504,-0.016,0.021,1.006
2026/05/14 10:29:44.525,-0.02,0.026,1.004
2026/05/14 10:29:44.545,-0.014,0.021,1.004
2026/05/14 10:29:44.565,-0.015,0.022,1.004
2026/05/14 10:29:44.586,-0.017,0.021,1.005
2026/05/14 10:29:44.606,-0.016,0.019,1.005
2026/05/14 10:29:44.626,-0.015,0.023,1.004
2026/05/14 10:29:44.647,-0.016,0.023,1.002
2026/05/14 10:29:44.667,-0.016,0.019,1.004
2026/05/14 10:29:44.687,-0.013,0.023,1.005
2026/05/14 10:29:44.707,-0.015,0.019,1.008
2026/05/14 10:29:44.728,-0.012,0.021,1.005
2026/05/14 10:29:44.748,-0.017,0.02,1.002
2026/05/14 10:29:44.768,-0.017,0.02,1.004
2026/05/14 10:29:44.789,-0.015,0.017,1.003
2026/05/14 10:29:44.809,-0.014,0.018,1.006
2026/05/14 10:29:44.829,-0.018,0.023,1.006
2026/05/14 10:29:44.849,-0.018,0.023,1.002
2026/05/14 10:29:44.870,-0.017,0.021,1.004
2026/05/14 10:29:44.890,-0.01,0.023,1.008
2026/05/14 10:29:44.910,-0.014,0.018,1.004
2026/05/14 10:29:44.931,-0.019,0.018,1.002
2026/05/14 10:29:44.951,-0.014,0.021,1.004
2026/05/14 10:29:44.971,-0.014,0.018,0.999
2026/05/14 10:29:44.991,-0.016,0.021,0.999
2026/05/14 10:29:45.012,-0.014,0.021,1.008
2026/05/14 10:29:45.032,-0.013,0.021,1.004
2026/05/14 10:29:45.052,-0.012,0.019,1.006
2026/05/14 10:29:45.073,-0.02,0.023,1.001
2026/05/14 10:29:45.093,-0.012,0.024,1.006
2026/05/14 10:29:45.113,-0.017,0.019,1.004
2026/05/14 10:29:45.134,-0.013,0.022,1.004
2026/05/14 10:29:45.154,-0.013,0.021,1.003
2026/05/14 10:29:45.174,-0.014,0.024,1.003
2026/05/14 10:29:45.194,-0.012,0.019,1.01
2026/05/14 10:29:45.215,-0.018,0.024,1.0
2026/05/14 10:29:45.235,-0.015,0.023,1.007
2026/05/14 10:29:45.255,-0.016,0.017,1.007
2026/05/14 10:29:45.276,-0.016,0.022,1.008
2026/05/14 10:29:45.296,-0.014,0.021,1.005
2026/05/14 10:29:45.316,-0.015,0.023,1.004
2026/05/14 10:29:45.336,-0.014,0.018,1.003
2026/05/14 10:29:45.357,-0.01,0.022,1.011
2026/05/14 10:29:45.377,-0.015,0.018,1.005
2026/05/14 10:29:45.397,-0.015,0.019,1.005
2026/05/14 10:29:45.418,-0.019,0.024,1.01
2026/05/14 10:29:45.438,-0.015,0.019,1.008
2026/05/14 10:29:45.458,-0.014,0.024,1.005
2026/05/14 10:29:45.479,-0.016,0.019,1.006
2026/05/14 10:29:45.499,-0.014,0.02,1.002
2026/05/14 10:29:45.519,-0.013,0.022,1.007
2026/05/14 10:29:45.539,-0.018,0.021,1.004
2026/05/14 10:29:45.560,-0.015,0.025,1.005
2026/05/14 10:29:45.580,-0.016,0.021,1.004
2026/05/14 10:29:45.600,-0.01,0.017,1.005
2026/05/14 10:29:45.621,-0.015,0.02,1.005
2026/05/14 10:29:45.641,-0.017,0.021,1.008
2026/05/14 10:29:45.661,-0.014,0.017,1.005
2026/05/14 10:29:45.681,-0.014,0.02,1.007
2026/05/14 10:29:45.702,-0.017,0.017,1.006
2026/05/14 10:29:45.722,-0.016,0.02,1.005
2026/05/14 10:29:45.742,-0.015,0.02,1.006
2026/05/14 10:29:45.763,-0.01,0.019,1.006
2026/05/14 10:29:45.783,-0.016,0.017,1.005
2026/05/14 10:29:45.803,-0.013,0.019,1.007
2026/05/14 10:29:45.823,-0.012,0.021,1.003
2026/05/14 10:29:45.844,-0.016,0.019,1.006
2026/05/14 10:29:45.864,-0.012,0.019,1.005
2026/05/14 10:29:45.884,-0.017,0.016,1.006
2026/05/14 10:29:45.905,-0.015,0.022,1.009
2026/05/14 10:29:45.925,-0.015,0.021,1.005
2026/05/14 10:29:45.945,-0.014,0.021,1.006
2026/05/14 10:29:45.966,-0.013,0.021,1.006
2026/05/14 10:29:45.986,-0.012,0.019,1.004
2026/05/14 10:29:46.006,-0.011,0.024,1.007
2026/05/14 10:29:46.026,-0.014,0.022,1.008
2026/05/14 10:29:46.047,-0.017,0.018,1.004
2026/05/14 10:29:46.067,-0.018,0.022,1.006
2026/05/14 10:29:46.087,-0.013,0.025,1.006
2026/05/14 10:29:46.108,-0.013,0.022,1.001
2026/05/14 10:29:46.128,-0.015,0.018,1.006
2026/05/14 10:29:46.148,-0.014,0.023,1.003
2026/05/14 10:29:46.168,-0.017,0.021,1.004
2026/05/14 10:29:46.189,-0.014,0.023,1.005
2026/05/14 10:29:46.209,-0.015,0.025,1.001
2026/05/14 10:29:46.229,-0.013,0.024,1.002
2026/05/14 10:29:46.250,-0.015,0.019,1.003
2026/05/14 10:29:46.270,-0.019,0.023,1.007
2026/05/14 10:29:46.290,-0.012,0.023,1.005
2026/05/14 10:29:46.311,-0.014,0.02,1.002
2026/05/14 10:29:46.331,-0.014,0.021,1.008
2026/05/14 10:29:46.351,-0.013,0.019,1.004
2026/05/14 10:29:46.371,-0.015,0.019,1.004
2026/05/14 10:29:46.392,-0.01,0.022,1.006
2026/05/14 10:29:46.412,-0.016,0.022,1.004
2026/05/14 10:29:46.432,-0.012,0.021,1.004
2026/05/14 10:29:46.453,-0.019,0.021,1.001
2026/05/14 10:29:46.473,-0.014,0.023,1.005
2026/05/14 10:29:46.493,-0.014,0.024,1.002
2026/05/14 10:29:46.513,-0.015,0.02,1.001
2026/05/14 10:29:46.534,-0.016,0.021,1.002
2026/05/14 10:29:46.554,-0.014,0.022,1.004
2026/05/14 10:29:46.574,-0.015,0.023,1.006
2026/05/14 10:29:46.595,-0.014,0.021,1.003
2026/05/14 10:29:46.615,-0.015,0.024,1.004
2026/05/14 10:29:46.635,-0.015,0.018,1.007
2026/05/14 10:29:46.655,-0.015,0.02,1.009
2026/05/14 10:29:46.676,-0.014,0.02,1.006
2026/05/14 10:29:46.696,-0.012,0.022,1.005
2026/05/14 10:29:46.716,-0.014,0.02,1.007
2026/05/14 10:29:46.737,-0.015,0.019,1.006
2026/05/14 10:29:46.757,-0.015,0.018,1.005
2026/05/14 10:29:46.777,-0.014,0.021,1.003
2026/05/14 10:29:46.798,-0.012,0.022,1.004
2026/05/14 10:29:46.818,-0.015,0.021,1.003
2026/05/14 10:29:46.838,-0.015,0.02,1.006
2026/05/14 10:29:46.858,-0.012,0.025,1.007
2026/05/14 10:29:46.879,-0.016,0.02,1.006
2026/05/14 10:29:46.899,-0.016,0.023,1.003
2026/05/14 10:29:46.919,-0.015,0.019,1.003
2026/05/14 10:29:46.940,-0.015,0.017,1.002
2026/05/14 10:29:46.960,-0.014,0.02,1.004
2026/05/14 10:29:46.980,-0.015,0.021,1.004
2026/05/14 10:29:47.000,-0.014,0.021,1.007
2026/05/14 10:29:47.021,-0.015,0.021,1.001
2026/05/14 10:29:47.041,-0.012,0.021,1.004
2026/05/14 10:29:47.061,-0.014,0.018,1.006
2026/05/14 10:29:47.082,-0.013,0.02,1.003
2026/05/14 10:29:47.102,-0.015,0.021,1.001
2026/05/14 10:29:47.122,-0.012,0.023,1.006
2026/05/14 10:29:47.142,-0.007,0.02,1.003
2026/05/14 10:29:47.163,-0.018,0.021,1.006
2026/05/14 10:29:47.183,-0.014,0.021,1.006
2026/05/14 10:29:47.203,-0.018,0.024,1.005
2026/05/14 10:29:47.224,-0.015,0.019,1.005
2026/05/14 10:29:47.244,-0.016,0.021,1.006
2026/05/14 10:29:47.264,-0.012,0.018,1.006
2026/05/14 10:29:47.285,-0.012,0.023,1.005
2026/05/14 10:29:47.305,-0.017,0.018,1.001
2026/05/14 10:29:47.325,-0.018,0.02,1.001
2026/05/14 10:29:47.345,-0.013,0.017,1.002
2026/05/14 10:29:47.366,-0.012,0.02,1.006
2026/05/14 10:29:47.386,-0.01,0.021,1.002
2026/05/14 10:29:47.406,-0.013,0.014,1.004
2026/05/14 10:29:47.427,-0.015,0.026,1.004
2026/05/14 10:29:47.447,-0.016,0.021,1.005
2026/05/14 10:29:47.467,-0.013,0.023,1.006
2026/05/14 10:29:47.487,-0.012,0.024,1.004
2026/05/14 10:29:47.508,-0.014,0.021,1.004
2026/05/14 10:29:47.528,-0.016,0.024,1.005
2026/05/14 10:29:47.548,-0.012,0.019,1.003
2026/05/14 10:29:47.569,-0.016,0.022,1.002
2026/05/14 10:29:47.589,-0.014,0.02,1.004
2026/05/14 10:29:47.609,-0.013,0.021,1.008
2026/05/14 10:29:47.629,-0.014,0.022,1.005
2026/05/14 10:29:47.650,-0.012,0.019,1.005
2026/05/14 10:29:47.670,-0.012,0.02,1.002
2026/05/14 10:29:47.690,-0.015,0.021,1.003
2026/05/14 10:29:47.711,-0.014,0.021,1.005
2026/05/14 10:29:47.731,-0.012,0.023,1.006
2026/05/14 10:29:47.751,-0.014,0.019,1.006
2026/05/14 10:29:47.771,-0.012,0.024,1.001
2026/05/14 10:29:47.792,-0.014,0.026,1.004
2026/05/14 10:29:47.812,-0.013,0.022,1.004
2026/05/14 10:29:47.832,-0.012,0.023,1.004
2026/05/14 10:29:47.853,-0.014,0.019,1.004
2026/05/14 10:29:47.873,-0.012,0.021,1.005
2026/05/14 10:29:47.893,-0.014,0.025,1.005
2026/05/14 10:29:47.914,-0.011,0.022,1.003
2026/05/14 10:29:47.934,-0.013,0.019,1.004
2026/05/14 10:29:47.954,-0.012,0.021,1.006
2026/05/14 10:29:47.974,-0.016,0.019,1.001
2026/05/14 10:29:47.995,-0.013,0.019,1.002
2026/05/14 10:29:48.015,-0.016,0.021,1.005
2026/05/14 10:29:48.035,-0.017,0.018,1.005
2026/05/14 10:29:48.056,-0.013,0.018,1.003
2026/05/14 10:29:48.076,-0.015,0.023,1.005
2026/05/14 10:29:48.096,-0.013,0.025,1.004
2026/05/14 10:29:48.116,-0.013,0.023,1.003
2026/05/14 10:29:48.137,-0.01,0.023,1.004
2026/05/14 10:29:48.157,-0.015,0.023,1.003
2026/05/14 10:29:48.177,-0.015,0.021,1.008
2026/05/14 10:29:48.198,-0.013,0.021,1.004
2026/05/14 10:29:48.218,-0.012,0.022,1.004
2026/05/14 10:29:48.238,-0.012,0.02,1.003
2026/05/14 10:29:48.258,-0.016,0.019,1.004
2026/05/14 10:29:48.279,-0.018,0.022,1.007
2026/05/14 10:29:48.299,-0.015,0.02,1.003
2026/05/14 10:29:48.319,-0.01,0.021,1.008
2026/05/14 10:29:48.340,-0.014,0.021,1.001
2026/05/14 10:29:48.360,-0.015,0.018,1.002
2026/05/14 10:29:48.380,-0.013,0.021,1.001
2026/05/14 10:29:48.401,-0.014,0.021,1.004
2026/05/14 10:29:48.421,-0.016,0.02,1.004
2026/05/14 10:29:48.441,-0.012,0.021,1.003
2026/05/14 10:29:48.461,-0.011,0.028,1.005
2026/05/14 10:29:48.482,-0.013,0.02,1.008
2026/05/14 10:29:48.502,-0.013,0.021,1.004
2026/05/14 10:29:48.522,-0.014,0.022,1.003
2026/05/14 10:29:48.543,-0.013,0.019,1.006
2026/05/14 10:29:48.563,-0.016,0.021,1.004
2026/05/14 10:29:48.583,-0.015,0.021,1.009
2026/05/14 10:29:48.603,-0.013,0.022,1.006
2026/05/14 10:29:48.624,-0.012,0.02,1.001
2026/05/14 10:29:48.644,-0.016,0.018,1.007
2026/05/14 10:29:48.664,-0.013,0.022,1.006
2026/05/14 10:29:48.685,-0.017,0.024,1.004
2026/05/14 10:29:48.705,-0.013,0.024,1.0
2026/05/14 10:29:48.725,-0.013,0.02,1.003
2026/05/14 10:29:48.745,-0.012,0.021,1.006
2026/05/14 10:29:48.766,-0.015,0.017,1.004
2026/05/14 10:29:48.786,-0.017,0.022,1.0
2026/05/14 10:29:48.806,-0.017,0.022,1.007
2026/05/14 10:29:48.827,-0.013,0.024,1.0
2026/05/14 10:29:48.847,-0.014,0.023,1.009
2026/05/14 10:29:48.867,-0.015,0.021,1.006
2026/05/14 10:29:48.887,-0.012,0.018,1.004
2026/05/14 10:29:48.908,-0.018,0.022,1.004
2026/05/14 10:29:48.928,-0.014,0.021,1.004
2026/05/14 10:29:48.948,-0.014,0.021,1.003
2026/05/14 10:29:48.969,-0.016,0.02,1.007
2026/05/14 10:29:48.989,-0.016,0.023,1.006
2026/05/14 10:29:49.009,-0.015,0.021,1.002
2026/05/14 10:29:49.030,-0.014,0.02,1.002
2026/05/14 10:29:49.050,-0.021,0.019,0.999
2026/05/14 10:29:49.070,-0.013,0.022,1.003
2026/05/14 10:29:49.090,-0.015,0.018,1.006
2026/05/14 10:29:49.111,-0.013,0.02,1.003
2026/05/14 10:29:49.131,-0.014,0.02,1.003
2026/05/14 10:29:49.151,-0.014,0.019,1.001
2026/05/14 10:29:49.172,-0.012,0.019,1.004
2026/05/14 10:29:49.192,-0.015,0.02,1.003
2026/05/14 10:29:49.212,-0.016,0.023,1.002
2026/05/14 10:29:49.232,-0.011,0.026,1.002
2026/05/14 10:29:49.253,-0.013,0.021,0.999
2026/05/14 10:29:49.273,-0.016,0.024,1.005
2026/05/14 10:29:49.293,-0.015,0.024,1.001
2026/05/14 10:29:49.314,-0.016,0.022,1.002
2026/05/14 10:29:49.334,-0.013,0.02,1.006
2026/05/14 10:29:49.354,-0.012,0.02,1.003
2026/05/14 10:29:49.374,-0.014,0.018,1.004
2026/05/14 10:29:49.395,-0.015,0.022,1.004
2026/05/14 10:29:49.415,-0.017,0.023,1.002
2026/05/14 10:29:49.435,-0.015,0.019,1.004
2026/05/14 10:29:49.456,-0.013,0.021,1.003
2026/05/14 10:29:49.476,-0.014,0.024,1.004
2026/05/14 10:29:49.496,-0.014,0.021,1.008
2026/05/14 10:29:49.517,-0.014,0.023,1.006
2026/05/14 10:29:49.537,-0.014,0.018,1.005
2026/05/14 10:29:49.557,-0.011,0.021,1.003
2026/05/14 10:29:49.577,-0.017,0.026,1.003
2026/05/14 10:29:49.598,-0.013,0.025,1.001
2026/05/14 10:29:49.618,-0.012,0.023,1.004
2026/05/14 10:29:49.638,-0.011,0.017,1.003
2026/05/14 10:29:49.659,-0.014,0.02,1.006
2026/05/14 10:29:49.679,-0.012,0.021,1.006
2026/05/14 10:29:49.699,-0.015,0.02,1.004
2026/05/14 10:29:49.719,-0.013,0.018,1.004
2026/05/14 10:29:49.740,-0.015,0.018,1.006
2026/05/14 10:29:49.760,-0.013,0.022,1.003
2026/05/14 10:29:49.780,-0.016,0.021,1.003
2026/05/14 10:29:49.801,-0.016,0.02,1.005
2026/05/14 10:29:49.821,-0.017,0.023,1.002
2026/05/14 10:29:49.841,-0.012,0.018,1.007
2026/05/14 10:29:49.861,-0.01,0.021,1.006
2026/05/14 10:29:49.882,-0.014,0.022,1.003
2026/05/14 10:29:49.902,-0.012,0.025,1.003
2026/05/14 10:29:49.922,-0.012,0.022,1.006
2026/05/14 10:29:49.943,-0.019,0.02,1.005
2026/05/14 10:29:49.963,-0.011,0.018,1.004
2026/05/14 10:29:49.983,-0.016,0.02,1.004
2026/05/14 10:29:50.003,-0.011,0.022,1.003
2026/05/14 10:29:50.024,-0.018,0.019,1.007
2026/05/14 10:29:50.044,-0.017,0.018,1.002
2026/05/14 10:29:50.064,-0.013,0.023,1.003
2026/05/14 10:29:50.085,-0.016,0.021,1.003
2026/05/14 10:29:50.105,-0.015,0.02,1.006
2026/05/14 10:29:50.125,-0.014,0.021,1.004
2026/05/14 10:29:50.146,-0.013,0.024,1.003
2026/05/14 10:29:50.166,-0.015,0.019,1.003
2026/05/14 10:29:50.186,-0.015,0.02,1.003
2026/05/14 10:29:50.206,-0.01,0.021,1.007
2026/05/14 10:29:50.227,-0.012,0.021,1.0
2026/05/14 10:29:50.247,-0.021,0.023,1.006
2026/05/14 10:29:50.267,-0.016,0.024,1.004
2026/05/14 10:29:50.288,-0.016,0.02,1.006
2026/05/14 10:29:50.308,-0.014,0.022,1.004
2026/05/14 10:29:50.328,-0.012,0.023,1.005
2026/05/14 10:29:50.348,-0.011,0.019,1.003
2026/05/14 10:29:50.369,-0.013,0.021,1.003
2026/05/14 10:29:50.389,-0.013,0.021,1.002
2026/05/14 10:29:50.409,-0.013,0.021,1.008
2026/05/14 10:29:50.430,-0.015,0.018,1.006
2026/05/14 10:29:50.450,-0.017,0.022,1.007
2026/05/14 10:29:50.470,-0.012,0.018,1.004
2026/05/14 10:29:50.490,-0.015,0.026,1.004
2026/05/14 10:29:50.511,-0.016,0.018,0.999
2026/05/14 10:29:50.531,-0.014,0.018,1.004
2026/05/14 10:29:50.551,-0.008,0.02,1.008
2026/05/14 10:29:50.572,-0.016,0.017,1.002
2026/05/14 10:29:50.592,-0.018,0.018,1.001
2026/05/14 10:29:50.612,-0.016,0.02,1.001
2026/05/14 10:29:50.633,-0.015,0.022,1.001
2026/05/14 10:29:50.653,-0.014,0.02,1.005
2026/05/14 10:29:50.673,-0.015,0.02,1.004
2026/05/14 10:29:50.693,-0.016,0.018,1.006
2026/05/14 10:29:50.714,-0.015,0.022,1.004
2026/05/14 10:29:50.734,-0.014,0.025,1.009
2026/05/14 10:29:50.754,-0.01,0.023,1.008
2026/05/14 10:29:50.775,-0.018,0.02,1.004
2026/05/14 10:29:50.795,-0.013,0.021,1.007
2026/05/14 10:29:50.815,-0.014,0.024,1.006
2026/05/14 10:29:50.835,-0.018,0.022,1.002
2026/05/14 10:29:50.856,-0.014,0.024,1.007
2026/05/14 10:29:50.876,-0.016,0.018,1.005
2026/05/14 10:29:50.896,-0.015,0.022,1.004
2026/05/14 10:29:50.917,-0.013,0.022,1.005
2026/05/14 10:29:50.937,-0.014,0.024,1.002
2026/05/14 10:29:50.957,-0.013,0.019,1.005
2026/05/14 10:29:50.977,-0.013,0.02,1.002
2026/05/14 10:29:50.998,-0.015,0.02,1.004
2026/05/14 10:29:51.018,-0.013,0.022,1.004
2026/05/14 10:29:51.038,-0.01,0.023,1.004
2026/05/14 10:29:51.059,-0.015,0.02,1.004
2026/05/14 10:29:51.079,-0.012,0.02,1.009
2026/05/14 10:29:51.099,-0.013,0.019,1.003
2026/05/14 10:29:51.119,-0.014,0.025,1.001
2026/05/14 10:29:51.140,-0.019,0.022,1.007
2026/05/14 10:29:51.160,-0.015,0.022,1.004
2026/05/14 10:29:51.180,-0.015,0.021,1.004
2026/05/14 10:29:51.201,-0.014,0.021,1.003
2026/05/14 10:29:51.221,-0.013,0.02,1.004
2026/05/14 10:29:51.241,-0.017,0.02,1.001
2026/05/14 10:29:51.262,-0.015,0.02,1.005
2026/05/14 10:29:51.282,-0.015,0.021,1.003
2026/05/14 10:29:51.302,-0.013,0.022,0.997
2026/05/14 10:29:51.322,-0.013,0.02,1.003
2026/05/14 10:29:51.343,-0.018,0.02,1.002
2026/05/14 10:29:51.363,-0.013,0.022,1.006
2026/05/14 10:29:51.383,-0.014,0.018,1.003
2026/05/14 10:29:51.404,-0.015,0.02,1.005
2026/05/14 10:29:51.424,-0.015,0.02,1.005
2026/05/14 10:29:51.444,-0.014,0.024,1.005
2026/05/14 10:29:51.464,-0.009,0.02,1.005
2026/05/14 10:29:51.485,-0.013,0.019,1.004
2026/05/14 10:29:51.505,-0.014,0.025,1.004
2026/05/14 10:29:51.525,-0.015,0.02,1.006
2026/05/14 10:29:51.546,-0.012,0.021,1.006
2026/05/14 10:29:51.566,-0.015,0.018,1.0
2026/05/14 10:29:51.586,-0.02,0.023,1.004
2026/05/14 10:29:51.606,-0.014,0.02,1.003
2026/05/14 10:29:51.627,-0.012,0.018,1.005
2026/05/14 10:29:51.647,-0.013,0.022,1.002
2026/05/14 10:29:51.667,-0.015,0.02,1.003
2026/05/14 10:29:51.688,-0.017,0.022,1.002
2026/05/14 10:29:51.708,-0.013,0.021,1.004
2026/05/14 10:29:51.728,-0.013,0.021,1.005
2026/05/14 10:29:51.748,-0.014,0.019,1.002
2026/05/14 10:29:51.769,-0.017,0.021,1.005
2026/05/14 10:29:51.789,-0.014,0.02,1.005
2026/05/14 10:29:51.809,-0.014,0.024,1.006
2026/05/14 10:29:51.830,-0.015,0.02,1.004
2026/05/14 10:29:51.850,-0.017,0.022,1.005
2026/05/14 10:29:51.870,-0.016,0.021,1.006
2026/05/14 10:29:51.891,-0.014,0.018,1.004
2026/05/14 10:29:51.911,-0.013,0.02,1.002
2026/05/14 10:29:51.931,-0.018,0.025,1.005
2026/05/14 10:29:51.951,-0.015,0.022,1.007
2026/05/14 10:29:51.972,-0.015,0.02,1.003
2026/05/14 10:29:51.992,-0.015,0.02,1.006
2026/05/14 10:29:52.012,-0.014,0.025,1.004
2026/05/14 10:29:52.033,-0.015,0.018,1.006
2026/05/14 10:29:52.053,-0.015,0.018,1.0
2026/05/14 10:29:52.073,-0.037,0.032,1.01
2026/05/14 10:29:52.093,-0.066,0.03,0.941
2026/05/14 10:29:52.114,-0.023,0.017,1.037
2026/05/14 10:29:52.134,-0.066,0.015,0.907
2026/05/14 10:29:52.154,0.071,-0.074,0.945
2026/05/14 10:29:52.175,-0.048,0.002,1.049
2026/05/14 10:29:52.195,0.028,0.053,0.975
2026/05/14 10:29:52.215,-0.019,-0.012,1.028
2026/05/14 10:29:52.235,-0.019,0.021,1.006
2026/05/14 10:29:52.256,0.014,0.045,0.976
2026/05/14 10:29:52.276,0.001,0.015,1.019
2026/05/14 10:29:52.296,-0.027,0.037,0.991
2026/05/14 10:29:52.317,-0.042,0.041,1.005
2026/05/14 10:29:52.337,-0.042,0.021,1.01
2026/05/14 10:29:52.357,-0.046,0.036,1.0
2026/05/14 10:29:52.378,-0.028,0.015,1.001
2026/05/14 10:29:52.398,-0.011,0.019,1.001
2026/05/14 10:29:52.418,-0.008,0.02,1.008
2026/05/14 10:29:52.438,-0.007,0.026,1.001
2026/05/14 10:29:52.459,-0.012,0.024,1.012
2026/05/14 10:29:52.479,-0.007,0.02,0.998
2026/05/14 10:29:52.499,0.001,0.015,1.007
2026/05/14 10:29:52.520,0.003,0.005,1.007
2026/05/14 10:29:52.540,-0.002,0.006,1.007
2026/05/14 10:29:52.560,-0.018,0.009,1.002
2026/05/14 10:29:52.580,-0.021,0.028,1.002
2026/05/14 10:29:52.601,-0.025,0.032,1.011
2026/05/14 10:29:52.621,-0.023,0.034,1.001
2026/05/14 10:29:52.641,-0.018,0.032,1.002
2026/05/14 10:29:52.662,-0.017,0.031,1.009
2026/05/14 10:29:52.682,-0.025,0.028,1.002
2026/05/14 10:29:52.702,-0.03,0.021,1.004
2026/05/14 10:29:52.722,-0.027,0.016,1.003
2026/05/14 10:29:52.743,-0.012,0.018,1.005
2026/05/14 10:29:52.763,-0.009,0.012,1.005
2026/05/14 10:29:52.783,0.001,0.017,1.005
2026/05/14 10:29:52.804,0.004,0.021,1.01
2026/05/14 10:29:52.824,-0.006,0.022,1.004
2026/05/14 10:29:52.844,-0.011,0.019,1.005
2026/05/14 10:29:52.864,-0.011,0.018,1.005
2026/05/14 10:29:52.885,-0.014,0.017,1.007
2026/05/14 10:29:52.905,-0.012,0.02,1.004
2026/05/14 10:29:52.925,-0.022,0.02,1.006
2026/05/14 10:29:52.946,-0.027,0.028,1.0
2026/05/14 10:29:52.966,-0.021,0.032,1.004
2026/05/14 10:29:52.986,-0.022,0.031,1.0
2026/05/14 10:29:53.007,-0.021,0.03,1.005
2026/05/14 10:29:53.027,-0.014,0.023,1.001
2026/05/14 10:29:53.047,-0.012,0.023,1.001
2026/05/14 10:29:53.067,-0.014,0.015,1.001
2026/05/14 10:29:53.088,-0.013,0.015,1.003
2026/05/14 10:29:53.108,-0.008,0.015,1.006
2026/05/14 10:29:53.128,-0.003,0.018,1.002
2026/05/14 10:29:53.149,-0.004,0.019,1.005
2026/05/14 10:29:53.169,-0.005,0.018,1.004
2026/05/14 10:29:53.189,-0.008,0.022,1.006
2026/05/14 10:29:53.209,-0.014,0.025,1.006
2026/05/14 10:29:53.230,-0.02,0.02,1.003
2026/05/14 10:29:53.250,-0.023,0.016,1.0
2026/05/14 10:29:53.270,-0.018,0.023,1.002
2026/05/14 10:29:53.291,-0.022,0.026,1.002
2026/05/14 10:29:53.311,-0.02,0.026,1.002
2026/05/14 10:29:53.331,-0.024,0.024,1.004
2026/05/14 10:29:53.351,-0.017,0.025,1.005
2026/05/14 10:29:53.372,-0.015,0.022,1.004
2026/05/14 10:29:53.392,-0.011,0.017,1.003
2026/05/14 10:29:53.412,-0.01,0.018,1.004
2026/05/14 10:29:53.433,-0.01,0.014,1.002
2026/05/14 10:29:53.453,-0.01,0.014,1.004
2026/05/14 10:29:53.473,-0.007,0.017,1.003
2026/05/14 10:29:53.493,-0.017,0.019,1.006
2026/05/14 10:29:53.514,-0.011,0.022,0.999
2026/05/14 10:29:53.534,-0.015,0.023,1.004
2026/05/14 10:29:53.554,-0.017,0.023,1.002
2026/05/14 10:29:53.575,-0.02,0.021,1.002
2026/05/14 10:29:53.595,-0.021,0.029,1.003
2026/05/14 10:29:53.615,-0.025,0.023,1.0
2026/05/14 10:29:53.636,-0.023,0.023,1.003
2026/05/14 10:29:53.656,-0.017,0.024,1.001
2026/05/14 10:29:53.676,-0.013,0.026,1.002
2026/05/14 10:29:53.696,-0.012,0.023,1.006
2026/05/14 10:29:53.717,-0.012,0.023,1.004
2026/05/14 10:29:53.737,-0.011,0.02,1.006
2026/05/14 10:29:53.757,-0.006,0.016,1.006
2026/05/14 10:29:53.778,-0.012,0.018,1.004
2026/05/14 10:29:53.798,-0.008,0.018,1.004
2026/05/14 10:29:53.818,-0.015,0.018,1.006
2026/05/14 10:29:53.838,-0.011,0.018,1.003
2026/05/14 10:29:53.859,-0.012,0.022,1.002
2026/05/14 10:29:53.879,-0.017,0.025,1.003
2026/05/14 10:29:53.899,-0.018,0.023,1.004
2026/05/14 10:29:53.920,-0.019,0.027,1.002
2026/05/14 10:29:53.940,-0.022,0.023,1.003
2026/05/14 10:29:53.960,-0.015,0.023,1.006
2026/05/14 10:29:53.980,-0.017,0.019,1.001
2026/05/14 10:29:54.001,-0.012,0.018,1.004
2026/05/14 10:29:54.021,-0.016,0.017,1.003
2026/05/14 10:29:54.041,-0.013,0.019,1.006
2026/05/14 10:29:54.062,-0.009,0.019,1.005
2026/05/14 10:29:54.082,-0.01,0.019,1.001
2026/05/14 10:29:54.102,-0.014,0.016,1.006
2026/05/14 10:29:54.122,-0.014,0.02,1.005
2026/05/14 10:29:54.143,-0.013,0.02,1.005
2026/05/14 10:29:54.163,-0.016,0.021,1.003
2026/05/14 10:29:54.183,-0.016,0.022,1.002
2026/05/14 10:29:54.204,-0.019,0.025,1.004
2026/05/14 10:29:54.224,-0.017,0.023,1.003
2026/05/14 10:29:54.244,-0.019,0.029,1.001
2026/05/14 10:29:54.265,-0.017,0.023,1.001
2026/05/14 10:29:54.285,-0.014,0.018,1.002
2026/05/14 10:29:54.305,-0.015,0.021,1.004
2026/05/14 10:29:54.325,-0.012,0.023,1.004
2026/05/14 10:29:54.346,-0.017,0.018,1.006
2026/05/14 10:29:54.366,-0.013,0.019,1.005
2026/05/14 10:29:54.386,-0.008,0.019,1.003
2026/05/14 10:29:54.407,-0.012,0.016,1.004
2026/05/14 10:29:54.427,-0.013,0.021,1.006
2026/05/14 10:29:54.447,-0.017,0.023,1.004
2026/05/14 10:29:54.467,-0.027,0.018,0.965
2026/05/14 10:29:54.488,-0.015,0.016,0.978
2026/05/14 10:29:54.508,-0.031,0.017,1.069
2026/05/14 10:29:54.528,-0.041,0.027,0.994
2026/05/14 10:29:54.549,-0.012,0.028,0.968
2026/05/14 10:29:54.569,-0.003,0.037,1.014
2026/05/14 10:29:54.589,-0.003,0.024,0.999
2026/05/14 10:29:54.609,-0.009,0.028,1.001
2026/05/14 10:29:54.630,-0.008,0.01,0.998
2026/05/14 10:29:54.650,-0.014,0.012,1.015
2026/05/14 10:29:54.670,-0.028,0.005,1.004
2026/05/14 10:29:54.691,-0.027,0.008,0.995
2026/05/14 10:29:54.711,-0.008,0.014,1.008
2026/05/14 10:29:54.731,-0.007,0.02,1.003
2026/05/14 10:29:54.751,-0.005,0.032,1.005
2026/05/14 10:29:54.772,-0.004,0.037,1.007
2026/05/14 10:29:54.792,-0.017,0.033,1.002
2026/05/14 10:29:54.812,-0.016,0.027,1.017
2026/05/14 10:29:54.833,-0.032,0.019,0.989
2026/05/14 10:29:54.853,-0.024,0.003,1.01
2026/05/14 10:29:54.873,-0.029,0.008,1.002
2026/05/14 10:29:54.894,-0.025,0.013,1.002
2026/05/14 10:29:54.914,-0.023,0.024,0.988
2026/05/14 10:29:54.934,-0.002,0.036,1.006
2026/05/14 10:29:54.954,0.0,0.036,1.012
2026/05/14 10:29:54.975,-0.004,0.021,1.013
2026/05/14 10:29:54.995,-0.009,0.016,1.004
2026/05/14 10:29:55.015,-0.015,0.008,1.0
2026/05/14 10:29:55.036,-0.018,0.007,1.009
2026/05/14 10:29:55.056,-0.003,0.016,1.006
2026/05/14 10:29:55.076,-0.009,0.026,1.009
2026/05/14 10:29:55.096,0.027,0.041,1.065
2026/05/14 10:29:55.117,-0.034,0.025,0.972
2026/05/14 10:29:55.137,-0.019,0.036,0.99
2026/05/14 10:29:55.157,-0.015,0.028,1.006
2026/05/14 10:29:55.178,-0.025,0.028,1.015
2026/05/14 10:29:55.198,-0.029,0.019,0.998
2026/05/14 10:29:55.218,-0.019,0.016,0.999
2026/05/14 10:29:55.238,-0.018,0.016,1.011
2026/05/14 10:29:55.259,-0.008,0.013,1.005
2026/05/14 10:29:55.279,-0.009,0.025,1.005
2026/05/14 10:29:55.299,-0.009,0.027,1.006
2026/05/14 10:29:55.320,-0.004,0.027,1.007
2026/05/14 10:29:55.340,-0.006,0.017,1.009
2026/05/14 10:29:55.360,-0.01,0.013,1.002
2026/05/14 10:29:55.380,-0.005,0.013,1.006
2026/05/14 10:29:55.401,-0.022,0.016,1.006
2026/05/14 10:29:55.421,-0.018,0.027,1.001
2026/05/14 10:29:55.441,-0.02,0.027,0.996
2026/05/14 10:29:55.462,-0.018,0.033,1.008
2026/05/14 10:29:55.482,-0.016,0.031,1.003
2026/05/14 10:29:55.502,-0.051,0.008,0.904
2026/05/14 10:29:55.522,0.0,0.032,1.05
2026/05/14 10:29:55.543,-0.022,0.021,1.002
2026/05/14 10:29:55.563,-0.017,0.021,1.008
2026/05/14 10:29:55.583,-0.011,0.015,1.008
2026/05/14 10:29:55.604,-0.038,0.002,0.936
2026/05/14 10:29:55.624,-0.013,0.029,1.008
2026/05/14 10:29:55.644,-0.005,0.014,0.994
2026/05/14 10:29:55.665,-0.009,0.026,0.983
2026/05/14 10:29:55.685,0.035,0.034,1.103
2026/05/14 10:29:55.705,-0.013,0.02,1.01
2026/05/14 10:29:55.725,-0.019,0.011,0.985
2026/05/14 10:29:55.746,-0.017,0.015,0.996
2026/05/14 10:29:55.766,-0.02,0.021,1.019
2026/05/14 10:29:55.786,-0.022,0.029,1.011
2026/05/14 10:29:55.807,-0.024,0.028,0.999
2026/05/14 10:29:55.827,-0.022,0.034,1.003
2026/05/14 10:29:55.847,-0.012,0.032,1.009
2026/05/14 10:29:55.867,-0.014,0.021,1.006
2026/05/14 10:29:55.888,-0.015,0.021,1.009
2026/05/14 10:29:55.908,-0.018,0.014,1.006
2026/05/14 10:29:55.928,-0.017,0.011,1.004
2026/05/14 10:29:55.949,-0.012,0.015,1.008
2026/05/14 10:29:55.969,-0.005,0.016,1.005
2026/05/14 10:29:55.989,-0.007,0.02,1.009
2026/05/14 10:29:56.009,-0.01,0.022,1.006
2026/05/14 10:29:56.030,-0.013,0.025,1.004
2026/05/14 10:29:56.050,-0.019,0.027,1.007
2026/05/14 10:29:56.070,-0.018,0.022,1.004
2026/05/14 10:29:56.091,-0.02,0.019,1.004
2026/05/14 10:29:56.111,-0.02,0.023,1.003
2026/05/14 10:29:56.131,-0.02,0.022,1.003
2026/05/14 10:29:56.152,-0.023,0.021,1.002
2026/05/14 10:29:56.172,-0.02,0.024,1.006
2026/05/14 10:29:56.192,-0.013,0.027,1.002
2026/05/14 10:29:56.212,-0.008,0.021,1.005
2026/05/14 10:29:56.233,-0.011,0.021,1.007
2026/05/14 10:29:56.253,-0.008,0.017,1.002
2026/05/14 10:29:56.273,-0.013,0.013,1.006
2026/05/14 10:29:56.294,-0.011,0.018,1.002
2026/05/14 10:29:56.314,-0.013,0.02,1.002
2026/05/14 10:29:56.334,-0.009,0.02,1.004
2026/05/14 10:29:56.354,-0.012,0.024,1.003
2026/05/14 10:29:56.375,-0.015,0.029,1.005
2026/05/14 10:29:56.395,-0.017,0.026,1.006
2026/05/14 10:29:56.415,-0.018,0.025,1.005
2026/05/14 10:29:56.436,-0.021,0.027,1.001
2026/05/14 10:29:56.456,-0.017,0.022,1.002
2026/05/14 10:29:56.476,-0.017,0.023,0.998
2026/05/14 10:29:56.496,-0.017,0.024,1.006
2026/05/14 10:29:56.517,-0.014,0.02,1.004
2026/05/14 10:29:56.537,-0.015,0.024,1.003
2026/05/14 10:29:56.557,-0.009,0.018,1.006
2026/05/14 10:29:56.578,-0.01,0.018,1.005
2026/05/14 10:29:56.598,-0.007,0.017,1.005
2026/05/14 10:29:56.618,-0.011,0.017,1.006
2026/05/14 10:29:56.639,-0.014,0.017,1.001
2026/05/14 10:29:56.659,-0.017,0.016,1.001
2026/05/14 10:29:56.679,-0.016,0.02,1.003
2026/05/14 10:29:56.699,-0.02,0.022,1.005
2026/05/14 10:29:56.720,-0.016,0.025,1.007
2026/05/14 10:29:56.740,-0.018,0.027,0.999
2026/05/14 10:29:56.760,-0.02,0.024,1.004
2026/05/14 10:29:56.781,-0.017,0.022,1.003
2026/05/14 10:29:56.801,-0.017,0.019,1.003
2026/05/14 10:29:56.821,-0.017,0.022,1.004
2026/05/14 10:29:56.841,-0.014,0.019,1.006
2026/05/14 10:29:56.862,-0.012,0.02,1.005
2026/05/14 10:29:56.882,-0.011,0.019,1.006
2026/05/14 10:29:56.902,-0.01,0.016,1.009
2026/05/14 10:29:56.923,-0.011,0.016,1.003
2026/05/14 10:29:56.943,-0.012,0.021,1.003
2026/05/14 10:29:56.963,-0.013,0.017,1.002
2026/05/14 10:29:56.983,-0.017,0.024,1.003
2026/05/14 10:29:57.004,-0.018,0.02,1.007
2026/05/14 10:29:57.024,-0.018,0.023,1.005
2026/05/14 10:29:57.044,-0.015,0.021,1.003
2026/05/14 10:29:57.065,-0.016,0.021,1.004
2026/05/14 10:29:57.085,-0.016,0.023,1.006
2026/05/14 10:29:57.105,-0.017,0.023,1.005
2026/05/14 10:29:57.126,-0.018,0.022,1.005
2026/05/14 10:29:57.146,-0.013,0.019,1.006
2026/05/14 10:29:57.166,-0.01,0.017,1.007
2026/05/14 10:29:57.186,-0.011,0.017,1.001
2026/05/14 10:29:57.207,-0.01,0.02,1.005
2026/05/14 10:29:57.227,-0.013,0.018,1.005
2026/05/14 10:29:57.247,-0.012,0.019,1.005
2026/05/14 10:29:57.268,-0.011,0.021,1.004
2026/05/14 10:29:57.288,-0.014,0.025,1.006
2026/05/14 10:29:57.308,-0.012,0.025,1.002
2026/05/14 10:29:57.328,-0.015,0.021,1.004
2026/05/14 10:29:57.349,-0.016,0.023,1.002
2026/05/14 10:29:57.369,-0.02,0.023,1.005
2026/05/14 10:29:57.389,-0.015,0.021,1.004
2026/05/14 10:29:57.410,-0.017,0.023,1.004
2026/05/14 10:29:57.430,-0.014,0.021,1.003
2026/05/14 10:29:57.450,-0.018,0.021,1.005
2026/05/14 10:29:57.470,-0.015,0.023,1.006
2026/05/14 10:29:57.491,-0.014,0.02,1.003
2026/05/14 10:29:57.511,-0.01,0.014,1.009
2026/05/14 10:29:57.531,-0.016,0.02,1.003
2026/05/14 10:29:57.552,-0.009,0.018,1.006
2026/05/14 10:29:57.572,-0.015,0.021,1.002
2026/05/14 10:29:57.592,-0.016,0.026,1.001
2026/05/14 10:29:57.613,-0.014,0.021,1.007
2026/05/14 10:29:57.633,-0.016,0.022,1.002
2026/05/14 10:29:57.653,-0.015,0.023,1.005
2026/05/14 10:29:57.673,-0.015,0.017,0.998
2026/05/14 10:29:57.694,-0.011,0.054,1.071
2026/05/14 10:29:57.714,-0.024,0.019,0.973
2026/05/14 10:29:57.734,0.011,0.041,1.01
2026/05/14 10:29:57.755,-0.022,0.004,0.957
2026/05/14 10:29:57.775,-0.008,0.01,0.998
2026/05/14 10:29:57.795,-0.018,0.004,0.994
2026/05/14 10:29:57.815,-0.019,0.022,0.978
2026/05/14 10:29:57.836,0.005,0.023,1.022
2026/05/14 10:29:57.856,-0.036,0.022,1.003
2026/05/14 10:29:57.876,-0.005,0.021,1.018
2026/05/14 10:29:57.897,0.006,0.03,0.985
2026/05/14 10:29:57.917,-0.007,0.03,1.011
2026/05/14 10:29:57.937,-0.031,0.038,1.016
2026/05/14 10:29:57.957,-0.032,0.029,1.012
2026/05/14 10:29:57.978,-0.026,0.024,0.99
2026/05/14 10:29:57.998,-0.02,0.02,1.008
2026/05/14 10:29:58.018,-0.011,0.011,1.022
2026/05/14 10:29:58.039,-0.008,0.01,0.996
2026/05/14 10:29:58.059,-0.007,0.018,0.998
2026/05/14 10:29:58.079,-0.015,0.025,1.007
2026/05/14 10:29:58.100,-0.016,0.023,1.005
2026/05/14 10:29:58.120,-0.008,0.027,1.003
2026/05/14 10:29:58.140,-0.008,0.018,1.002
2026/05/14 10:29:58.160,-0.011,0.02,1.015
2026/05/14 10:29:58.181,-0.025,0.02,0.996
2026/05/14 10:29:58.201,-0.022,0.021,1.005
2026/05/14 10:29:58.221,-0.023,0.025,1.006
2026/05/14 10:29:58.242,-0.014,0.027,1.001
2026/05/14 10:29:58.262,-0.008,0.026,1.007
2026/05/14 10:29:58.282,-0.01,0.024,1.004
2026/05/14 10:29:58.302,-0.012,0.02,1.007
2026/05/14 10:29:58.323,-0.015,0.017,1.007
2026/05/14 10:29:58.343,-0.018,0.017,1.003
2026/05/14 10:29:58.363,-0.014,0.016,1.006
2026/05/14 10:29:58.384,-0.009,0.013,1.006
2026/05/14 10:29:58.404,-0.012,0.018,1.006
2026/05/14 10:29:58.424,-0.014,0.026,1.005
2026/05/14 10:29:58.444,-0.017,0.031,1.002
2026/05/14 10:29:58.465,-0.019,0.027,1.006
2026/05/14 10:29:58.485,-0.014,0.027,1.0
2026/05/14 10:29:58.505,-0.015,0.024,1.003
2026/05/14 10:29:58.526,-0.011,0.018,1.002
2026/05/14 10:29:58.546,-0.018,0.015,1.005
2026/05/14 10:29:58.566,-0.017,0.018,1.006
2026/05/14 10:29:58.587,-0.011,0.021,1.004
2026/05/14 10:29:58.607,-0.009,0.018,1.005
2026/05/14 10:29:58.627,-0.008,0.019,1.004
2026/05/14 10:29:58.647,-0.011,0.019,1.006
2026/05/14 10:29:58.668,-0.014,0.025,1.006
2026/05/14 10:29:58.688,-0.021,0.02,1.0
2026/05/14 10:29:58.708,-0.018,0.026,1.007
2026/05/14 10:29:58.729,-0.015,0.021,1.003
2026/05/14 10:29:58.749,-0.013,0.023,1.004
2026/05/14 10:29:58.769,-0.01,0.024,1.005
2026/05/14 10:29:58.789,-0.013,0.023,1.004
2026/05/14 10:29:58.810,-0.012,0.02,1.002
2026/05/14 10:29:58.830,-0.015,0.021,1.002
2026/05/14 10:29:58.850,-0.01,0.019,1.007
2026/05/14 10:29:58.871,-0.01,0.017,1.006
2026/05/14 10:29:58.891,-0.013,0.021,1.004
2026/05/14 10:29:58.911,-0.017,0.02,1.004
2026/05/14 10:29:58.931,-0.015,0.023,1.005
2026/05/14 10:29:58.952,-0.014,0.021,1.005
2026/05/14 10:29:58.972,-0.014,0.023,1.008
2026/05/14 10:29:58.992,-0.014,0.03,1.005
2026/05/14 10:29:59.013,-0.017,0.026,1.003
2026/05/14 10:29:59.033,-0.017,0.022,1.004
2026/05/14 10:29:59.053,-0.016,0.02,1.003
2026/05/14 10:29:59.073,-0.014,0.02,1.005
2026/05/14 10:29:59.094,-0.013,0.019,1.003
2026/05/14 10:29:59.114,-0.011,0.019,1.006
2026/05/14 10:29:59.134,-0.014,0.023,1.007
2026/05/14 10:29:59.155,-0.012,0.02,1.0
2026/05/14 10:29:59.175,-0.015,0.021,1.001
2026/05/14 10:29:59.195,-0.016,0.023,1.006
2026/05/14 10:29:59.216,-0.017,0.023,1.004
2026/05/14 10:29:59.236,-0.014,0.024,1.003
2026/05/14 10:29:59.256,-0.014,0.023,1.005
2026/05/14 10:29:59.276,-0.015,0.026,1.002
2026/05/14 10:29:59.297,-0.016,0.021,1.004
2026/05/14 10:29:59.317,-0.014,0.019,1.004
2026/05/14 10:29:59.337,-0.012,0.021,1.006
2026/05/14 10:29:59.358,-0.01,0.022,1.004
2026/05/14 10:29:59.378,-0.016,0.021,1.006
2026/05/14 10:29:59.398,-0.013,0.018,1.004
2026/05/14 10:29:59.418,-0.01,0.024,1.004
2026/05/14 10:29:59.439,-0.014,0.024,1.005
2026/05/14 10:29:59.459,-0.016,0.022,1.003
2026/05/14 10:29:59.479,-0.012,0.023,1.001
2026/05/14 10:29:59.500,-0.015,0.02,1.004
2026/05/14 10:29:59.520,-0.015,0.021,1.001
2026/05/14 10:29:59.540,-0.016,0.021,1.006
2026/05/14 10:29:59.560,-0.017,0.021,1.006
2026/05/14 10:29:59.581,-0.014,0.021,1.003
2026/05/14 10:29:59.601,-0.012,0.021,1.006
2026/05/14 10:29:59.621,-0.012,0.018,1.005
2026/05/14 10:29:59.642,-0.017,0.019,1.002
2026/05/14 10:29:59.662,-0.012,0.021,1.007
2026/05/14 10:29:59.682,-0.012,0.021,1.005
2026/05/14 10:29:59.703,-0.017,0.024,1.003
2026/05/14 10:29:59.723,-0.017,0.021,1.004
2026/05/14 10:29:59.743,-0.018,0.016,1.004
2026/05/14 10:29:59.763,-0.017,0.02,1.005
2026/05/14 10:29:59.784,-0.014,0.026,1.0
2026/05/14 10:29:59.804,-0.016,0.022,1.002
2026/05/14 10:29:59.824,-0.017,0.02,1.006
2026/05/14 10:29:59.845,-0.018,0.021,1.006
2026/05/14 10:29:59.865,-0.012,0.018,1.005
2026/05/14 10:29:59.885,-0.015,0.017,1.006
2026/05/14 10:29:59.905,-0.016,0.02,1.006
2026/05/14 10:29:59.926,-0.016,0.02,1.002
2026/05/14 10:29:59.946,-0.016,0.024,1.003
2026/05/14 10:29:59.966,-0.016,0.022,1.003
2026/05/14 10:29:59.987,-0.014,0.021,1.004
2026/05/14 10:30:00.007,-0.014,0.02,1.004
2026/05/14 10:30:00.027,-0.019,0.021,1.004
2026/05/14 10:30:00.047,-0.016,0.02,1.006
2026/05/14 10:30:00.068,-0.016,0.02,1.005
2026/05/14 10:30:00.088,-0.016,0.017,1.007
2026/05/14 10:30:00.108,-0.013,0.022,1.005
2026/05/14 10:30:00.129,-0.015,0.021,1.009
2026/05/14 10:30:00.149,-0.013,0.021,1.001
2026/05/14 10:30:00.169,-0.013,0.022,1.005
2026/05/14 10:30:00.190,-0.016,0.021,1.002
2026/05/14 10:30:00.210,-0.012,0.022,1.009
2026/05/14 10:30:00.230,-0.02,0.024,1.001
2026/05/14 10:30:00.250,-0.013,0.018,1.003
2026/05/14 10:30:00.271,-0.016,0.02,1.006
2026/05/14 10:30:00.291,0.023,0.015,1.097
2026/05/14 10:30:00.311,0.021,0.063,1.173
2026/05/14 10:30:00.332,-0.011,0.041,1.059
2026/05/14 10:30:00.352,-0.048,0.003,0.92
2026/05/14 10:30:00.372,-0.015,0.018,1.034
2026/05/14 10:30:00.392,-0.039,0.012,0.995
2026/05/14 10:30:00.413,-0.021,0.021,1.01
2026/05/14 10:30:00.433,-0.017,0.018,1.018
2026/05/14 10:30:00.453,-0.012,0.027,1.006
2026/05/14 10:30:00.474,-0.01,0.021,1.016
2026/05/14 10:30:00.494,-0.005,0.027,0.999
2026/05/14 10:30:00.514,-0.009,0.022,0.986
2026/05/14 10:30:00.534,-0.02,0.024,0.993
2026/05/14 10:30:00.555,-0.013,0.02,0.982
2026/05/14 10:30:00.575,0.009,0.025,1.023
2026/05/14 10:30:00.595,-0.003,0.019,1.022
2026/05/14 10:30:00.616,-0.039,0.019,0.987
2026/05/14 10:30:00.636,-0.018,0.029,1.005
2026/05/14 10:30:00.656,-0.042,0.011,1.023
2026/05/14 10:30:00.676,-0.008,0.018,1.047
2026/05/14 10:30:00.697,-0.055,0.007,0.945
2026/05/14 10:30:00.717,-0.023,0.016,0.998
2026/05/14 10:30:00.737,-0.015,0.019,1.028
2026/05/14 10:30:00.758,-0.016,0.019,1.011
2026/05/14 10:30:00.778,-0.021,0.015,0.991
2026/05/14 10:30:00.798,-0.022,0.02,0.987
2026/05/14 10:30:00.819,-0.013,0.024,0.999
2026/05/14 10:30:00.839,-0.013,0.032,1.005
2026/05/14 10:30:00.859,0.001,0.031,1.001
2026/05/14 10:30:00.879,-0.007,0.028,1.009
2026/05/14 10:30:00.900,-0.017,0.027,1.011
2026/05/14 10:30:00.920,-0.03,0.021,1.038
2026/05/14 10:30:00.940,-0.026,0.018,1.036
2026/05/14 10:30:00.961,-0.013,0.031,0.997
2026/05/14 10:30:00.981,-0.034,-0.078,0.426
2026/05/14 10:30:01.001,-0.071,-0.065,0.754
2026/05/14 10:30:01.021,-0.028,0.064,1.018
2026/05/14 10:30:01.042,-0.023,0.004,0.913
2026/05/14 10:30:01.062,0.016,0.028,0.991
2026/05/14 10:30:01.082,-0.008,0.038,0.955
2026/05/14 10:30:01.103,-0.059,-0.012,0.953
2026/05/14 10:30:01.123,-0.032,0.015,0.995
2026/05/14 10:30:01.143,-0.032,0.01,1.013
2026/05/14 10:30:01.163,-0.023,0.016,0.984
2026/05/14 10:30:01.184,-0.028,0.02,1.038
2026/05/14 10:30:01.204,-0.017,0.029,1.042
2026/05/14 10:30:01.224,-0.002,0.025,0.989
2026/05/14 10:30:01.245,0.006,0.031,0.996
2026/05/14 10:30:01.265,0.009,0.022,0.996
2026/05/14 10:30:01.285,-0.022,0.015,0.965
2026/05/14 10:30:01.305,-0.018,0.02,1.0
2026/05/14 10:30:01.326,-0.022,0.018,0.993
2026/05/14 10:30:01.346,-0.011,0.017,1.001
2026/05/14 10:30:01.366,-0.003,0.022,1.012
2026/05/14 10:30:01.387,-0.012,0.028,1.007
2026/05/14 10:30:01.407,-0.014,0.027,1.01
2026/05/14 10:30:01.427,-0.015,0.026,1.002
2026/05/14 10:30:01.448,-0.022,0.021,1.005
2026/05/14 10:30:01.468,-0.019,0.018,0.998
2026/05/14 10:30:01.488,-0.011,0.019,1.001
2026/05/14 10:30:01.508,-0.017,0.019,1.002
2026/05/14 10:30:01.529,-0.012,0.02,1.0
2026/05/14 10:30:01.549,-0.021,0.022,1.004
2026/05/14 10:30:01.569,-0.012,0.024,1.004
2026/05/14 10:30:01.590,-0.011,0.019,1.005
2026/05/14 10:30:01.610,-0.011,0.02,1.008
2026/05/14 10:30:01.630,-0.015,0.019,1.007
2026/05/14 10:30:01.650,-0.018,0.017,1.006
2026/05/14 10:30:01.671,-0.019,0.021,0.998
2026/05/14 10:30:01.691,-0.018,0.022,1.003
2026/05/14 10:30:01.711,-0.013,0.02,1.007
2026/05/14 10:30:01.732,-0.015,0.02,1.008
2026/05/14 10:30:01.752,-0.015,0.024,1.003
2026/05/14 10:30:01.772,-0.013,0.026,1.006
2026/05/14 10:30:01.792,-0.016,0.024,1.003
2026/05/14 10:30:01.813,-0.017,0.022,1.005
2026/05/14 10:30:01.833,-0.011,0.019,1.004
2026/05/14 10:30:01.853,-0.012,0.016,1.002
2026/05/14 10:30:01.874,-0.016,0.02,1.005
2026/05/14 10:30:01.894,-0.014,0.021,1.005
2026/05/14 10:30:01.914,-0.012,0.02,1.007
2026/05/14 10:30:01.934,-0.013,0.024,0.999
2026/05/14 10:30:01.955,-0.014,0.024,1.004
2026/05/14 10:30:01.975,-0.015,0.022,1.005
2026/05/14 10:30:01.995,-0.014,0.021,1.005
2026/05/14 10:30:02.016,-0.016,0.02,1.003
2026/05/14 10:30:02.036,-0.014,0.023,1.006
2026/05/14 10:30:02.056,-0.014,0.021,1.004
2026/05/14 10:30:02.077,-0.012,0.025,1.005
2026/05/14 10:30:02.097,-0.013,0.02,1.003
2026/05/14 10:30:02.117,-0.015,0.021,1.002
2026/05/14 10:30:02.137,-0.015,0.021,1.004
2026/05/14 10:30:02.158,-0.018,0.023,1.004
2026/05/14 10:30:02.178,-0.015,0.022,1.005
2026/05/14 10:30:02.198,-0.015,0.021,1.004
2026/05/14 10:30:02.219,-0.014,0.02,1.004
2026/05/14 10:30:02.239,-0.016,0.022,1.002
2026/05/14 10:30:02.259,-0.015,0.02,1.0
2026/05/14 10:30:02.279,-0.012,0.023,1.0
2026/05/14 10:30:02.300,-0.012,0.02,1.007
2026/05/14 10:30:02.320,-0.011,0.018,1.007
2026/05/14 10:30:02.340,-0.015,0.022,1.007
2026/05/14 10:30:02.361,-0.014,0.015,1.008
2026/05/14 10:30:02.381,-0.019,0.023,1.003
2026/05/14 10:30:02.401,-0.013,0.022,1.004
2026/05/14 10:30:02.421,-0.014,0.022,1.006
2026/05/14 10:30:02.442,-0.016,0.021,1.003
2026/05/14 10:30:02.462,-0.014,0.024,1.006
2026/05/14 10:30:02.482,-0.011,0.019,1.004
2026/05/14 10:30:02.503,-0.014,0.02,1.004
2026/05/14 10:30:02.523,-0.016,0.021,1.002
2026/05/14 10:30:02.543,-0.011,0.02,1.003
2026/05/14 10:30:02.563,-0.016,0.018,1.005
2026/05/14 10:30:02.584,-0.017,0.021,1.002
2026/05/14 10:30:02.604,-0.012,0.022,1.006
2026/05/14 10:30:02.624,-0.016,0.019,1.002
2026/05/14 10:30:02.645,-0.014,0.024,1.009
2026/05/14 10:30:02.665,-0.017,0.016,1.002
2026/05/14 10:30:02.685,-0.015,0.024,0.997
2026/05/14 10:30:02.706,-0.013,0.022,1.003
2026/05/14 10:30:02.726,-0.014,0.021,1.004
2026/05/14 10:30:02.746,-0.013,0.016,1.004
2026/05/14 10:30:02.766,-0.012,0.021,1.004
2026/05/14 10:30:02.787,-0.015,0.019,1.006
2026/05/14 10:30:02.807,-0.013,0.02,1.006
2026/05/14 10:30:02.827,-0.018,0.02,1.006
2026/05/14 10:30:02.848,-0.014,0.024,1.005
2026/05/14 10:30:02.868,-0.014,0.023,1.002
2026/05/14 10:30:02.888,-0.014,0.02,1.004
2026/05/14 10:30:02.908,-0.013,0.021,1.005
2026/05/14 10:30:02.929,-0.016,0.022,1.001
2026/05/14 10:30:02.949,-0.015,0.024,1.005
2026/05/14 10:30:02.969,-0.013,0.023,1.002
2026/05/14 10:30:02.990,-0.017,0.022,1.003
2026/05/14 10:30:03.010,-0.014,0.023,1.004
2026/05/14 10:30:03.030,-0.015,0.022,1.006
2026/05/14 10:30:03.050,-0.014,0.016,1.005
2026/05/14 10:30:03.071,-0.018,0.02,1.005
2026/05/14 10:30:03.091,-0.014,0.019,0.999
2026/05/14 10:30:03.111,-0.02,0.017,1.004
2026/05/14 10:30:03.132,-0.018,0.02,1.002
2026/05/14 10:30:03.152,-0.016,0.021,1.001
2026/05/14 10:30:03.172,-0.017,0.02,1.004
2026/05/14 10:30:03.192,-0.019,0.021,1.006
2026/05/14 10:30:03.213,-0.015,0.022,1.007
2026/05/14 10:30:03.233,-0.02,0.019,1.002
2026/05/14 10:30:03.253,-0.024,0.018,0.987
2026/05/14 10:30:03.274,-0.012,0.016,0.998
2026/05/14 10:30:03.294,-0.007,0.015,1.005
2026/05/14 10:30:03.314,-0.015,0.018,1.004
2026/05/14 10:30:03.334,-0.006,0.022,1.004
2026/05/14 10:30:03.355,-0.002,0.029,0.999
2026/05/14 10:30:03.375,0.0,0.039,1.009
2026/05/14 10:30:03.395,-0.011,0.038,1.006
2026/05/14 10:30:03.416,-0.027,0.027,1.0
2026/05/14 10:30:03.436,-0.024,0.023,0.993
2026/05/14 10:30:03.456,-0.018,0.012,1.004
2026/05/14 10:30:03.477,-0.012,0.013,1.002
2026/05/14 10:30:03.497,-0.007,0.017,1.004
2026/05/14 10:30:03.517,-0.007,0.024,1.001
2026/05/14 10:30:03.537,-0.012,0.028,1.007
2026/05/14 10:30:03.558,-0.011,0.03,1.006
2026/05/14 10:30:03.578,-0.015,0.022,1.003
2026/05/14 10:30:03.598,-0.015,0.019,1.002
2026/05/14 10:30:03.619,-0.015,0.016,1.004
2026/05/14 10:30:03.639,-0.018,0.016,1.001
2026/05/14 10:30:03.659,-0.023,0.02,1.004
2026/05/14 10:30:03.679,-0.017,0.026,1.009
2026/05/14 10:30:03.700,-0.014,0.026,1.002
2026/05/14 10:30:03.720,-0.012,0.023,1.008
2026/05/14 10:30:03.740,-0.007,0.022,1.005
2026/05/14 10:30:03.761,-0.011,0.018,0.998
2026/05/14 10:30:03.781,-0.016,0.019,1.001
2026/05/14 10:30:03.801,-0.015,0.023,1.011
2026/05/14 10:30:03.821,-0.024,0.018,1.001
2026/05/14 10:30:03.842,-0.014,0.018,1.007
2026/05/14 10:30:03.862,-0.016,0.02,1.001
2026/05/14 10:30:03.882,-0.014,0.024,1.011
2026/05/14 10:30:03.903,-0.016,0.027,1.006
2026/05/14 10:30:03.923,-0.015,0.023,1.008
2026/05/14 10:30:03.943,-0.015,0.025,1.003
2026/05/14 10:30:03.963,-0.015,0.02,1.004
2026/05/14 10:30:03.984,-0.012,0.019,1.006
2026/05/14 10:30:04.004,-0.013,0.017,1.002
2026/05/14 10:30:04.024,-0.015,0.019,0.999
2026/05/14 10:30:04.045,-0.018,0.019,1.0
2026/05/14 10:30:04.065,-0.014,0.023,1.004
2026/05/14 10:30:04.085,-0.014,0.022,1.003
2026/05/14 10:30:04.105,-0.015,0.027,1.0
2026/05/14 10:30:04.126,-0.011,0.021,1.006
2026/05/14 10:30:04.146,-0.017,0.02,1.003
2026/05/14 10:30:04.166,-0.014,0.018,1.006
2026/05/14 10:30:04.187,-0.016,0.018,1.006
2026/05/14 10:30:04.207,-0.018,0.018,1.003
2026/05/14 10:30:04.227,-0.014,0.019,1.003
2026/05/14 10:30:04.248,-0.012,0.019,1.007
2026/05/14 10:30:04.268,-0.014,0.021,1.005
2026/05/14 10:30:04.288,-0.014,0.019,1.0
2026/05/14 10:30:04.308,-0.014,0.022,1.007
2026/05/14 10:30:04.329,-0.017,0.02,1.006
2026/05/14 10:30:04.349,-0.015,0.02,1.003
2026/05/14 10:30:04.369,-0.015,0.02,1.002
2026/05/14 10:30:04.390,-0.013,0.023,1.008
2026/05/14 10:30:04.410,-0.015,0.024,1.008
2026/05/14 10:30:04.430,-0.015,0.023,1.006
2026/05/14 10:30:04.450,-0.012,0.022,1.006
2026/05/14 10:30:04.471,-0.012,0.021,1.003
2026/05/14 10:30:04.491,-0.014,0.021,1.004
2026/05/14 10:30:04.511,-0.014,0.02,1.004
2026/05/14 10:30:04.532,-0.017,0.023,1.002
2026/05/14 10:30:04.552,-0.015,0.023,1.001
2026/05/14 10:30:04.572,-0.016,0.025,1.001
2026/05/14 10:30:04.592,-0.012,0.024,1.002
2026/05/14 10:30:04.613,-0.013,0.02,1.004
2026/05/14 10:30:04.633,-0.012,0.024,1.004
2026/05/14 10:30:04.653,-0.014,0.019,1.005
2026/05/14 10:30:04.674,-0.016,0.02,1.005
2026/05/14 10:30:04.694,-0.016,0.02,1.005
2026/05/14 10:30:04.714,-0.016,0.022,1.002
2026/05/14 10:30:04.734,-0.015,0.022,1.002
2026/05/14 10:30:04.755,-0.013,0.02,1.001
2026/05/14 10:30:04.775,-0.012,0.023,1.008
2026/05/14 10:30:04.795,-0.014,0.022,1.004
2026/05/14 10:30:04.816,-0.015,0.019,1.004
2026/05/14 10:30:04.836,-0.016,0.018,1.008
2026/05/14 10:30:04.856,-0.018,0.02,1.005
2026/05/14 10:30:04.877,-0.015,0.02,1.006
2026/05/14 10:30:04.897,-0.015,0.025,1.006
2026/05/14 10:30:04.917,-0.009,0.02,1.006
2026/05/14 10:30:04.937,-0.014,0.021,0.998
2026/05/14 10:30:04.958,-0.018,0.02,1.003
2026/05/14 10:30:04.978,-0.014,0.021,1.002
2026/05/14 10:30:04.998,-0.017,0.02,1.001
2026/05/14 10:30:05.019,-0.011,0.022,1.002
2026/05/14 10:30:05.039,-0.015,0.021,1.002
2026/05/14 10:30:05.059,-0.012,0.021,1.003
2026/05/14 10:30:05.079,-0.015,0.02,1.005
2026/05/14 10:30:05.100,-0.013,0.023,1.004
2026/05/14 10:30:05.120,-0.013,0.021,1.007
2026/05/14 10:30:05.140,-0.017,0.026,1.003
2026/05/14 10:30:05.161,-0.012,0.026,1.003
2026/05/14 10:30:05.181,-0.016,0.024,1.005
2026/05/14 10:30:05.201,-0.013,0.019,1.004
2026/05/14 10:30:05.221,-0.016,0.023,1.003
2026/05/14 10:30:05.242,-0.013,0.022,1.003
2026/05/14 10:30:05.262,-0.013,0.019,1.002
2026/05/14 10:30:05.282,-0.014,0.024,1.006
2026/05/14 10:30:05.303,-0.012,0.019,1.001
2026/05/14 10:30:05.323,-0.014,0.024,1.001
2026/05/14 10:30:05.343,-0.014,0.024,1.003
2026/05/14 10:30:05.363,-0.014,0.02,1.007
2026/05/14 10:30:05.384,-0.013,0.023,1.005
2026/05/14 10:30:05.404,-0.013,0.019,1.001
2026/05/14 10:30:05.424,-0.015,0.024,1.006
2026/05/14 10:30:05.445,-0.015,0.018,1.006
2026/05/14 10:30:05.465,-0.011,0.022,1.006
2026/05/14 10:30:05.485,-0.013,0.019,1.003
2026/05/14 10:30:05.505,-0.017,0.02,1.005
2026/05/14 10:30:05.526,-0.014,0.018,1.003
2026/05/14 10:30:05.546,-0.015,0.018,1.006
2026/05/14 10:30:05.566,-0.012,0.023,1.003
2026/05/14 10:30:05.587,-0.019,0.026,1.003
2026/05/14 10:30:05.607,-0.015,0.019,1.004
2026/05/14 10:30:05.627,-0.014,0.022,1.003
2026/05/14 10:30:05.648,-0.016,0.026,1.003
2026/05/14 10:30:05.668,-0.015,0.022,1.003
2026/05/14 10:30:05.688,-0.015,0.023,1.005
2026/05/14 10:30:05.708,-0.015,0.023,1.003
2026/05/14 10:30:05.729,-0.013,0.021,1.004
2026/05/14 10:30:05.749,-0.018,0.02,1.003
2026/05/14 10:30:05.769,-0.012,0.023,1.007
2026/05/14 10:30:05.790,-0.013,0.022,1.009
2026/05/14 10:30:05.810,-0.013,0.019,1.001
2026/05/14 10:30:05.830,-0.012,0.022,1.002
2026/05/14 10:30:05.850,-0.015,0.023,1.005
2026/05/14 10:30:05.871,-0.015,0.021,1.003
2026/05/14 10:30:05.891,-0.012,0.022,1.007
2026/05/14 10:30:05.911,-0.013,0.02,1.001
2026/05/14 10:30:05.932,-0.014,0.019,1.003
2026/05/14 10:30:05.952,-0.016,0.024,1.004
2026/05/14 10:30:05.972,-0.016,0.023,1.005
2026/05/14 10:30:05.992,-0.014,0.02,1.004
2026/05/14 10:30:06.013,-0.017,0.019,1.002
2026/05/14 10:30:06.033,-0.014,0.026,1.006
2026/05/14 10:30:06.053,-0.014,0.022,1.004
2026/05/14 10:30:06.074,-0.021,0.019,0.993
2026/05/14 10:30:06.094,-0.014,0.021,1.003
2026/05/14 10:30:06.114,-0.016,0.025,1.002
2026/05/14 10:30:06.135,-0.021,0.014,0.989
2026/05/14 10:30:06.155,-0.022,0.01,0.985
2026/05/14 10:30:06.175,-0.029,0.015,0.991
2026/05/14 10:30:06.195,-0.013,0.022,1.007
2026/05/14 10:30:06.216,-0.013,0.023,1.007
2026/05/14 10:30:06.236,-0.02,0.025,0.991
2026/05/14 10:30:06.256,-0.013,0.018,1.008
2026/05/14 10:30:06.277,-0.006,0.023,1.005
2026/05/14 10:30:06.297,-0.026,0.021,0.998
2026/05/14 10:30:06.317,-0.017,0.017,0.998
2026/05/14 10:30:06.337,-0.022,0.014,0.994
2026/05/14 10:30:06.358,-0.019,0.017,1.005
2026/05/14 10:30:06.378,-0.01,0.024,1.006
2026/05/14 10:30:06.398,-0.013,0.02,1.006
2026/05/14 10:30:06.419,-0.018,0.031,1.001
2026/05/14 10:30:06.439,-0.02,0.019,1.002
2026/05/14 10:30:06.459,-0.01,0.019,1.003
2026/05/14 10:30:06.479,-0.013,0.017,1.001
2026/05/14 10:30:06.500,-0.011,0.019,1.011
2026/05/14 10:30:06.520,-0.019,0.016,0.997
2026/05/14 10:30:06.540,-0.02,0.018,1.004
2026/05/14 10:30:06.561,-0.015,0.017,1.008
2026/05/14 10:30:06.581,-0.017,0.022,1.0
2026/05/14 10:30:06.601,-0.018,0.019,1.004
2026/05/14 10:30:06.622,-0.017,0.024,1.008
2026/05/14 10:30:06.642,-0.01,0.024,1.015
2026/05/14 10:30:06.662,-0.023,0.018,0.993
2026/05/14 10:30:06.682,-0.023,0.013,1.0
2026/05/14 10:30:06.703,-0.023,0.016,0.994
2026/05/14 10:30:06.723,-0.013,0.023,1.006
2026/05/14 10:30:06.743,-0.014,0.02,1.0
2026/05/14 10:30:06.764,-0.016,0.022,1.007
2026/05/14 10:30:06.784,-0.019,0.018,0.999
2026/05/14 10:30:06.804,-0.018,0.026,0.998
2026/05/14 10:30:06.824,-0.014,0.023,1.006
2026/05/14 10:30:06.845,-0.017,0.022,1.001
2026/05/14 10:30:06.865,-0.013,0.022,1.007
2026/05/14 10:30:06.885,-0.008,0.022,1.009
2026/05/14 10:30:06.906,-0.017,0.019,1.002
2026/05/14 10:30:06.926,-0.012,0.02,1.002
2026/05/14 10:30:06.946,-0.016,0.022,1.003
2026/05/14 10:30:06.966,-0.014,0.024,1.006
2026/05/14 10:30:06.987,-0.014,0.022,1.005
2026/05/14 10:30:07.007,-0.016,0.022,1.006
2026/05/14 10:30:07.027,-0.014,0.019,1.006
2026/05/14 10:30:07.048,-0.016,0.023,1.005
2026/05/14 10:30:07.068,-0.014,0.025,1.002
2026/05/14 10:30:07.088,-0.014,0.025,1.006
2026/05/14 10:30:07.108,-0.013,0.026,1.001
2026/05/14 10:30:07.129,-0.013,0.022,1.004
2026/05/14 10:30:07.149,-0.015,0.022,1.004
2026/05/14 10:30:07.169,-0.014,0.02,1.005
2026/05/14 10:30:07.190,-0.016,0.023,1.001
2026/05/14 10:30:07.210,-0.014,0.022,1.004
2026/05/14 10:30:07.230,-0.015,0.021,1.007
2026/05/14 10:30:07.251,-0.011,0.02,1.005
2026/05/14 10:30:07.271,-0.014,0.019,1.001
2026/05/14 10:30:07.291,-0.016,0.023,1.004
2026/05/14 10:30:07.311,-0.013,0.02,1.004
2026/05/14 10:30:07.332,-0.015,0.021,1.004
2026/05/14 10:30:07.352,-0.014,0.02,1.004
2026/05/14 10:30:07.372,-0.011,0.021,1.004
2026/05/14 10:30:07.393,-0.018,0.018,1.005
2026/05/14 10:30:07.413,-0.017,0.022,1.006
2026/05/14 10:30:07.433,-0.015,0.019,1.007
2026/05/14 10:30:07.453,-0.016,0.025,1.003
2026/05/14 10:30:07.474,-0.016,0.019,1.0
2026/05/14 10:30:07.494,-0.017,0.02,1.004
2026/05/14 10:30:07.514,-0.013,0.018,1.006
2026/05/14 10:30:07.535,-0.013,0.023,1.007
2026/05/14 10:30:07.555,-0.015,0.022,1.001
2026/05/14 10:30:07.575,-0.017,0.021,1.003
2026/05/14 10:30:07.595,-0.016,0.022,1.004
2026/05/14 10:30:07.616,-0.016,0.023,0.998
2026/05/14 10:30:07.636,-0.016,0.024,1.004
2026/05/14 10:30:07.656,-0.014,0.023,1.002
2026/05/14 10:30:07.677,-0.012,0.023,1.004
2026/05/14 10:30:07.697,-0.016,0.019,1.005
2026/05/14 10:30:07.717,-0.017,0.018,1.005
2026/05/14 10:30:07.738,-0.014,0.022,1.002
2026/05/14 10:30:07.758,-0.012,0.019,1.003
2026/05/14 10:30:07.778,-0.021,0.021,1.001
2026/05/14 10:30:07.798,-0.017,0.02,1.0
2026/05/14 10:30:07.819,-0.018,0.023,1.002
2026/05/14 10:30:07.839,-0.009,0.021,1.005
2026/05/14 10:30:07.859,-0.014,0.02,1.004
2026/05/14 10:30:07.880,-0.015,0.018,1.006
2026/05/14 10:30:07.900,-0.014,0.021,1.004
2026/05/14 10:30:07.920,-0.016,0.02,1.002
2026/05/14 10:30:07.940,-0.014,0.022,1.006
2026/05/14 10:30:07.961,-0.018,0.023,1.002
2026/05/14 10:30:07.981,-0.015,0.021,1.002
2026/05/14 10:30:08.001,-0.015,0.025,1.004
2026/05/14 10:30:08.022,-0.015,0.019,1.0
2026/05/14 10:30:08.042,-0.017,0.024,1.005
2026/05/14 10:30:08.062,-0.015,0.021,1.002
2026/05/14 10:30:08.082,-0.011,0.02,1.001
2026/05/14 10:30:08.103,-0.01,0.023,1.0
2026/05/14 10:30:08.123,-0.011,0.02,1.007
2026/05/14 10:30:08.143,-0.01,0.06,1.051
2026/05/14 10:30:08.164,0.031,0.051,0.958
2026/05/14 10:30:08.184,0.027,-0.021,1.064
2026/05/14 10:30:08.204,0.024,0.001,0.986
2026/05/14 10:30:08.225,0.003,0.011,0.993
2026/05/14 10:30:08.245,-0.011,0.02,1.005
2026/05/14 10:30:08.265,-0.023,0.037,0.99
2026/05/14 10:30:08.285,-0.01,0.018,1.009
2026/05/14 10:30:08.306,-0.007,0.029,1.005
2026/05/14 10:30:08.326,0.0,0.019,1.022
2026/05/14 10:30:08.346,-0.024,0.025,1.001
2026/05/14 10:30:08.367,-0.035,0.026,1.01
2026/05/14 10:30:08.387,-0.034,0.031,1.0
2026/05/14 10:30:08.407,-0.022,0.022,1.0
2026/05/14 10:30:08.427,-0.011,0.021,1.002
2026/05/14 10:30:08.448,0.001,0.019,1.012
2026/05/14 10:30:08.468,-0.008,0.023,1.011
2026/05/14 10:30:08.488,-0.012,0.02,1.005
2026/05/14 10:30:08.509,-0.013,0.021,1.005
2026/05/14 10:30:08.529,-0.012,0.014,1.006
2026/05/14 10:30:08.549,-0.013,0.009,1.008
2026/05/14 10:30:08.569,-0.01,0.016,1.006
2026/05/14 10:30:08.590,-0.013,0.018,1.004
2026/05/14 10:30:08.610,-0.021,0.029,1.001
2026/05/14 10:30:08.630,-0.019,0.036,1.004
2026/05/14 10:30:08.651,-0.023,0.03,1.005
2026/05/14 10:30:08.671,-0.014,0.029,1.006
2026/05/14 10:30:08.691,-0.012,0.02,1.006
2026/05/14 10:30:08.712,-0.016,0.02,1.0
2026/05/14 10:30:08.732,-0.016,0.016,1.006
2026/05/14 10:30:08.752,-0.018,0.017,1.005
2026/05/14 10:30:08.772,-0.012,0.018,1.005
2026/05/14 10:30:08.793,-0.005,0.02,1.006
2026/05/14 10:30:08.813,-0.002,0.014,1.006
2026/05/14 10:30:08.833,-0.011,0.018,1.003
2026/05/14 10:30:08.854,-0.017,0.023,1.005
2026/05/14 10:30:08.874,-0.022,0.02,0.996
2026/05/14 10:30:08.894,-0.019,0.025,1.001
2026/05/14 10:30:08.914,-0.02,0.021,1.002
2026/05/14 10:30:08.935,-0.015,0.026,1.009
2026/05/14 10:30:08.955,-0.014,0.025,1.0
2026/05/14 10:30:08.975,-0.017,0.027,1.004
2026/05/14 10:30:08.996,-0.017,0.026,1.003
2026/05/14 10:30:09.016,-0.016,0.021,1.003
2026/05/14 10:30:09.036,-0.012,0.015,1.002
2026/05/14 10:30:09.057,-0.006,0.016,1.002
2026/05/14 10:30:09.077,-0.008,0.018,1.004
2026/05/14 10:30:09.097,-0.011,0.019,1.005
2026/05/14 10:30:09.117,-0.012,0.017,1.002
2026/05/14 10:30:09.138,-0.016,0.025,1.006
2026/05/14 10:30:09.158,-0.015,0.024,0.999
2026/05/14 10:30:09.178,-0.017,0.022,1.002
2026/05/14 10:30:09.199,-0.015,0.021,1.001
2026/05/14 10:30:09.219,-0.018,0.024,1.004
2026/05/14 10:30:09.239,-0.022,0.023,1.004
2026/05/14 10:30:09.259,-0.014,0.018,1.003
2026/05/14 10:30:09.280,-0.015,0.022,1.001
2026/05/14 10:30:09.300,-0.011,0.021,1.0
2026/05/14 10:30:09.320,-0.013,0.022,1.003
2026/05/14 10:30:09.341,-0.015,0.018,1.007
2026/05/14 10:30:09.361,-0.016,0.021,1.004
2026/05/14 10:30:09.381,-0.01,0.019,1.003
2026/05/14 10:30:09.401,-0.012,0.02,1.006
2026/05/14 10:30:09.422,-0.013,0.021,1.008
2026/05/14 10:30:09.442,-0.017,0.022,1.008
2026/05/14 10:30:09.462,-0.019,0.023,1.006
2026/05/14 10:30:09.483,-0.017,0.024,1.003
2026/05/14 10:30:09.503,-0.018,0.022,1.003
2026/05/14 10:30:09.523,-0.014,0.019,1.003
2026/05/14 10:30:09.544,-0.017,0.021,1.001
2026/05/14 10:30:09.564,-0.012,0.02,1.006
2026/05/14 10:30:09.584,-0.012,0.022,1.005
2026/05/14 10:30:09.604,-0.016,0.024,1.006
2026/05/14 10:30:09.625,-0.013,0.021,1.005
2026/05/14 10:30:09.645,-0.011,0.021,1.007
2026/05/14 10:30:09.665,-0.013,0.024,1.007
2026/05/14 10:30:09.686,-0.014,0.023,1.001
2026/05/14 10:30:09.706,-0.018,0.027,1.007
2026/05/14 10:30:09.726,-0.016,0.019,1.005
2026/05/14 10:30:09.746,-0.014,0.025,1.005
2026/05/14 10:30:09.767,-0.019,0.025,1.001
2026/05/14 10:30:09.787,-0.012,0.023,1.004
2026/05/14 10:30:09.807,-0.013,0.018,1.003
2026/05/14 10:30:09.828,-0.013,0.021,1.002
2026/05/14 10:30:09.848,-0.014,0.021,1.006
2026/05/14 10:30:09.868,-0.012,0.017,1.002
2026/05/14 10:30:09.889,-0.012,0.019,1.002
2026/05/14 10:30:09.909,-0.014,0.018,1.004
2026/05/14 10:30:09.929,-0.016,0.021,1.002
2026/05/14 10:30:09.949,-0.016,0.025,1.004
2026/05/14 10:30:09.970,-0.01,0.025,1.006
2026/05/14 10:30:09.990,-0.015,0.021,0.999
2026/05/14 10:30:10.010,-0.016,0.023,1.003
2026/05/14 10:30:10.031,-0.015,0.023,1.003
2026/05/14 10:30:10.051,-0.017,0.02,1.005
2026/05/14 10:30:10.071,-0.012,0.018,1.006
2026/05/14 10:30:10.091,-0.012,0.018,1.003
2026/05/14 10:30:10.112,-0.009,0.017,1.003
2026/05/14 10:30:10.132,-0.013,0.021,1.006
2026/05/14 10:30:10.152,-0.015,0.019,1.007
2026/05/14 10:30:10.173,-0.012,0.022,1.003
2026/05/14 10:30:10.193,-0.014,0.024,1.004
2026/05/14 10:30:10.213,-0.018,0.022,1.004
2026/05/14 10:30:10.233,-0.017,0.019,1.003
2026/05/14 10:30:10.254,-0.016,0.024,1.003
2026/05/14 10:30:10.274,-0.013,0.022,1.005
2026/05/14 10:30:10.294,-0.013,0.018,1.006
2026/05/14 10:30:10.315,-0.013,0.018,1.003
2026/05/14 10:30:10.335,-0.008,0.023,1.002
2026/05/14 10:30:10.355,-0.014,0.016,1.006
2026/05/14 10:30:10.376,-0.014,0.02,0.998
2026/05/14 10:30:10.396,-0.015,0.019,1.004
2026/05/14 10:30:10.416,-0.016,0.022,1.006
2026/05/14 10:30:10.436,-0.02,0.021,1.001
2026/05/14 10:30:10.457,-0.015,0.024,1.008
2026/05/14 10:30:10.477,-0.012,0.022,1.006
2026/05/14 10:30:10.497,-0.017,0.023,1.006
2026/05/14 10:30:10.518,-0.018,0.021,1.004
2026/05/14 10:30:10.538,-0.017,0.018,1.002
2026/05/14 10:30:10.558,-0.014,0.022,1.006
2026/05/14 10:30:10.578,-0.01,0.016,1.005
2026/05/14 10:30:10.599,-0.01,0.016,1.006
2026/05/14 10:30:10.619,-0.015,0.017,1.006
2026/05/14 10:30:10.639,-0.014,0.02,1.002
2026/05/14 10:30:10.660,-0.017,0.027,1.003
2026/05/14 10:30:10.680,-0.019,0.024,1.006
2026/05/14 10:30:10.700,-0.016,0.019,1.004
2026/05/14 10:30:10.720,-0.016,0.024,1.007
2026/05/14 10:30:10.741,-0.016,0.026,1.004
2026/05/14 10:30:10.761,-0.017,0.025,1.006
2026/05/14 10:30:10.781,-0.015,0.019,1.006
2026/05/14 10:30:10.802,-0.014,0.022,1.003
2026/05/14 10:30:10.822,-0.015,0.021,1.006
2026/05/14 10:30:10.842,-0.013,0.019,1.005
2026/05/14 10:30:10.863,-0.013,0.015,1.006
2026/05/14 10:30:10.883,-0.02,0.018,1.004
2026/05/14 10:30:10.903,-0.012,0.024,1.004
2026/05/14 10:30:10.923,-0.015,0.023,1.007
2026/05/14 10:30:10.944,-0.015,0.025,1.007
2026/05/14 10:30:10.964,-0.015,0.019,1.006
2026/05/14 10:30:10.984,-0.015,0.025,1.004
2026/05/14 10:30:11.005,-0.02,0.02,1.005
2026/05/14 10:30:11.025,-0.017,0.021,1.003
2026/05/14 10:30:11.045,-0.016,0.02,1.006
2026/05/14 10:30:11.065,-0.013,0.015,1.005
2026/05/14 10:30:11.086,-0.016,0.023,1.004
2026/05/14 10:30:11.106,-0.013,0.021,1.005
2026/05/14 10:30:11.126,-0.01,0.022,1.005
2026/05/14 10:30:11.147,-0.015,0.021,1.003
2026/05/14 10:30:11.167,-0.011,0.02,1.006
2026/05/14 10:30:11.187,-0.015,0.022,1.004
2026/05/14 10:30:11.207,-0.015,0.021,1.006
2026/05/14 10:30:11.228,-0.014,0.024,1.005
2026/05/14 10:30:11.248,-0.015,0.022,1.001
2026/05/14 10:30:11.268,-0.017,0.02,1.005
2026/05/14 10:30:11.289,-0.017,0.024,1.004
2026/05/14 10:30:11.309,-0.014,0.022,1.003
2026/05/14 10:30:11.329,-0.013,0.019,1.003
2026/05/14 10:30:11.350,-0.014,0.02,1.005
2026/05/14 10:30:11.370,-0.015,0.021,1.004
2026/05/14 10:30:11.390,-0.012,0.016,1.002
2026/05/14 10:30:11.410,-0.014,0.023,1.006
2026/05/14 10:30:11.431,-0.014,0.019,1.004
2026/05/14 10:30:11.451,-0.016,0.021,1.004
2026/05/14 10:30:11.471,-0.018,0.025,1.004
2026/05/14 10:30:11.492,-0.017,0.023,1.005
2026/05/14 10:30:11.512,-0.015,0.022,1.004
2026/05/14 10:30:11.532,-0.015,0.022,1.003
2026/05/14 10:30:11.552,-0.015,0.022,1.005
2026/05/14 10:30:11.573,-0.014,0.021,1.006
2026/05/14 10:30:11.593,-0.013,0.021,1.002
2026/05/14 10:30:11.613,-0.013,0.02,1.003
2026/05/14 10:30:11.634,-0.015,0.019,1.002
2026/05/14 10:30:11.654,-0.017,0.022,1.003
2026/05/14 10:30:11.674,-0.014,0.021,1.003
2026/05/14 10:30:11.694,-0.015,0.021,1.005
2026/05/14 10:30:11.715,-0.012,0.023,1.003
2026/05/14 10:30:11.735,-0.016,0.024,1.003
2026/05/14 10:30:11.755,-0.012,0.022,1.006
2026/05/14 10:30:11.776,-0.017,0.02,1.006
2026/05/14 10:30:11.796,-0.013,0.023,1.003
2026/05/14 10:30:11.816,-0.012,0.018,1.007
2026/05/14 10:30:11.837,-0.015,0.023,1.007
2026/05/14 10:30:11.857,-0.016,0.02,1.007
2026/05/14 10:30:11.877,-0.012,0.019,1.004
2026/05/14 10:30:11.897,-0.017,0.021,1.0
2026/05/14 10:30:11.918,-0.013,0.022,1.002
2026/05/14 10:30:11.938,-0.013,0.027,1.005
2026/05/14 10:30:11.958,-0.013,0.024,1.004
2026/05/14 10:30:11.979,-0.013,0.022,1.003
2026/05/14 10:30:11.999,-0.015,0.018,1.008
2026/05/14 10:30:12.019,-0.015,0.018,1.003
2026/05/14 10:30:12.039,-0.017,0.021,1.007
2026/05/14 10:30:12.060,-0.013,0.018,1.003
2026/05/14 10:30:12.080,-0.015,0.022,1.004
2026/05/14 10:30:12.100,-0.013,0.018,1.004
2026/05/14 10:30:12.121,-0.013,0.019,1.003
2026/05/14 10:30:12.141,-0.014,0.02,1.003
2026/05/14 10:30:12.161,-0.016,0.023,1.004
2026/05/14 10:30:12.181,-0.01,0.021,1.004
2026/05/14 10:30:12.202,-0.015,0.022,1.003
2026/05/14 10:30:12.222,-0.014,0.023,1.006
2026/05/14 10:30:12.242,-0.013,0.023,1.004
2026/05/14 10:30:12.263,-0.014,0.02,1.007
2026/05/14 10:30:12.283,-0.016,0.021,0.999
2026/05/14 10:30:12.303,-0.015,0.024,1.005
2026/05/14 10:30:12.324,-0.017,0.022,1.002
2026/05/14 10:30:12.344,-0.017,0.02,1.004
2026/05/14 10:30:12.364,-0.016,0.021,1.004
2026/05/14 10:30:12.384,-0.015,0.023,1.004
2026/05/14 10:30:12.405,-0.014,0.022,1.003
2026/05/14 10:30:12.425,-0.013,0.021,1.003
2026/05/14 10:30:12.445,-0.015,0.022,1.006
2026/05/14 10:30:12.466,-0.016,0.016,1.003
2026/05/14 10:30:12.486,-0.015,0.025,1.005
2026/05/14 10:30:12.506,-0.014,0.02,1.002
2026/05/14 10:30:12.526,-0.018,0.025,1.006
2026/05/14 10:30:12.547,-0.015,0.022,1.005
2026/05/14 10:30:12.567,-0.015,0.02,1.004
2026/05/14 10:30:12.587,-0.012,0.022,1.005
2026/05/14 10:30:12.608,-0.013,0.02,1.004
2026/05/14 10:30:12.628,-0.015,0.023,1.005
2026/05/14 10:30:12.648,-0.013,0.022,1.004
2026/05/14 10:30:12.668,-0.013,0.02,1.004
2026/05/14 10:30:12.689,-0.012,0.021,1.005
2026/05/14 10:30:12.709,-0.014,0.023,1.005
2026/05/14 10:30:12.729,-0.015,0.023,0.997
2026/05/14 10:30:12.750,-0.014,0.02,1.004
2026/05/14 10:30:12.770,-0.015,0.022,1.002
2026/05/14 10:30:12.790,-0.015,0.025,1.003
2026/05/14 10:30:12.811,-0.014,0.022,1.005
2026/05/14 10:30:12.831,-0.018,0.017,1.006
2026/05/14 10:30:12.851,-0.014,0.019,1.001
2026/05/14 10:30:12.871,-0.012,0.019,1.003
2026/05/14 10:30:12.892,-0.008,0.021,1.007
2026/05/14 10:30:12.912,-0.016,0.021,1.006
2026/05/14 10:30:12.932,-0.016,0.021,1.005
2026/05/14 10:30:12.953,-0.016,0.024,1.004
2026/05/14 10:30:12.973,-0.017,0.02,1.008
2026/05/14 10:30:12.993,-0.018,0.022,1.003
2026/05/14 10:30:13.013,-0.015,0.024,1.001
2026/05/14 10:30:13.034,-0.014,0.023,1.004
2026/05/14 10:30:13.054,-0.015,0.019,1.005
2026/05/14 10:30:13.074,-0.013,0.022,1.003
2026/05/14 10:30:13.095,-0.013,0.017,1.0
2026/05/14 10:30:13.115,-0.014,0.018,1.006
2026/05/14 10:30:13.135,-0.013,0.023,1.004
2026/05/14 10:30:13.155,-0.014,0.021,1.003
2026/05/14 10:30:13.176,-0.013,0.02,1.007
2026/05/14 10:30:13.196,-0.012,0.025,1.004
2026/05/14 10:30:13.216,-0.015,0.023,1.005
2026/05/14 10:30:13.237,-0.015,0.023,1.005
2026/05/14 10:30:13.257,-0.016,0.018,1.003
2026/05/14 10:30:13.277,-0.016,0.02,1.004
2026/05/14 10:30:13.298,-0.013,0.022,1.0
2026/05/14 10:30:13.318,-0.014,0.02,1.005
2026/05/14 10:30:13.338,-0.016,0.018,1.003
2026/05/14 10:30:13.358,-0.015,0.023,1.007
2026/05/14 10:30:13.379,-0.018,0.021,1.005
2026/05/14 10:30:13.399,-0.013,0.018,1.004
2026/05/14 10:30:13.419,-0.016,0.021,1.005
2026/05/14 10:30:13.440,-0.019,0.024,1.003
2026/05/14 10:30:13.460,-0.017,0.019,1.002
2026/05/14 10:30:13.480,-0.017,0.024,1.006
2026/05/14 10:30:13.500,-0.018,0.024,1.003
2026/05/14 10:30:13.521,-0.014,0.025,1.004
2026/05/14 10:30:13.541,-0.012,0.021,1.007
2026/05/14 10:30:13.561,-0.012,0.018,1.005
2026/05/14 10:30:13.582,-0.011,0.023,1.004
2026/05/14 10:30:13.602,-0.016,0.02,1.006
2026/05/14 10:30:13.622,-0.012,0.016,1.005
2026/05/14 10:30:13.642,-0.014,0.023,1.004
2026/05/14 10:30:13.663,-0.013,0.021,1.004
2026/05/14 10:30:13.683,-0.012,0.024,1.004
2026/05/14 10:30:13.703,-0.015,0.024,1.007
2026/05/14 10:30:13.724,-0.014,0.023,1.002
2026/05/14 10:30:13.744,-0.016,0.022,1.004
2026/05/14 10:30:13.764,-0.016,0.021,1.003
2026/05/14 10:30:13.785,-0.013,0.022,1.007
2026/05/14 10:30:13.805,-0.014,0.016,1.007
2026/05/14 10:30:13.825,-0.013,0.022,1.004
2026/05/14 10:30:13.845,-0.013,0.022,1.005
2026/05/14 10:30:13.866,-0.013,0.022,1.002
2026/05/14 10:30:13.886,-0.011,0.02,1.005
2026/05/14 10:30:13.906,-0.011,0.021,1.003
2026/05/14 10:30:13.927,-0.013,0.019,1.008
2026/05/14 10:30:13.947,-0.014,0.025,1.003
2026/05/14 10:30:13.967,-0.015,0.018,1.004
2026/05/14 10:30:13.987,-0.012,0.021,1.002
2026/05/14 10:30:14.008,-0.015,0.018,1.006
2026/05/14 10:30:14.028,-0.013,0.02,1.007
2026/05/14 10:30:14.048,-0.016,0.02,1.007
2026/05/14 10:30:14.069,-0.015,0.022,1.004
2026/05/14 10:30:14.089,-0.015,0.019,1.004
2026/05/14 10:30:14.109,-0.016,0.017,1.004
2026/05/14 10:30:14.129,-0.015,0.023,1.003
2026/05/14 10:30:14.150,-0.012,0.022,1.003
2026/05/14 10:30:14.170,-0.016,0.021,1.002
2026/05/14 10:30:14.190,-0.016,0.02,1.004
2026/05/14 10:30:14.211,-0.015,0.021,1.001
2026/05/14 10:30:14.231,-0.015,0.016,1.005
2026/05/14 10:30:14.251,-0.016,0.017,1.006
2026/05/14 10:30:14.272,-0.013,0.02,1.003
2026/05/14 10:30:14.292,-0.013,0.021,1.002
2026/05/14 10:30:14.312,-0.014,0.024,1.005
2026/05/14 10:30:14.332,-0.014,0.022,1.004
2026/05/14 10:30:14.353,-0.013,0.018,1.002
2026/05/14 10:30:14.373,-0.013,0.021,1.002
2026/05/14 10:30:14.393,-0.016,0.021,1.004
2026/05/14 10:30:14.414,-0.015,0.021,1.005
2026/05/14 10:30:14.434,-0.017,0.022,1.007
2026/05/14 10:30:14.454,-0.014,0.021,1.003
2026/05/14 10:30:14.474,-0.017,0.022,1.004
2026/05/14 10:30:14.495,-0.015,0.019,1.004
2026/05/14 10:30:14.515,-0.014,0.024,1.005
2026/05/14 10:30:14.535,-0.016,0.019,1.005
2026/05/14 10:30:14.556,-0.016,0.02,1.005
2026/05/14 10:30:14.576,-0.015,0.017,1.003
2026/05/14 10:30:14.596,-0.013,0.021,1.004
2026/05/14 10:30:14.616,-0.017,0.023,1.001
2026/05/14 10:30:14.637,-0.02,0.024,1.006
2026/05/14 10:30:14.657,-0.014,0.022,1.006
2026/05/14 10:30:14.677,-0.015,0.022,1.001
2026/05/14 10:30:14.698,-0.016,0.019,1.001
2026/05/14 10:30:14.718,-0.016,0.022,1.005
2026/05/14 10:30:14.738,-0.017,0.021,1.004
2026/05/14 10:30:14.759,-0.013,0.021,1.004
2026/05/14 10:30:14.779,-0.014,0.023,1.007
2026/05/14 10:30:14.799,-0.015,0.023,1.006
2026/05/14 10:30:14.819,-0.015,0.019,1.003
2026/05/14 10:30:14.840,-0.012,0.022,1.006
2026/05/14 10:30:14.860,-0.011,0.02,1.006
2026/05/14 10:30:14.880,-0.012,0.018,1.002
2026/05/14 10:30:14.901,-0.015,0.023,1.006
2026/05/14 10:30:14.921,-0.015,0.021,1.001
2026/05/14 10:30:14.941,-0.02,0.026,1.007
2026/05/14 10:30:14.961,-0.015,0.02,1.007
2026/05/14 10:30:14.982,-0.017,0.021,1.005
2026/05/14 10:30:15.002,-0.015,0.022,1.005
2026/05/14 10:30:15.022,-0.016,0.021,1.004
2026/05/14 10:30:15.043,-0.011,0.019,1.005
2026/05/14 10:30:15.063,-0.014,0.023,1.003
2026/05/14 10:30:15.083,-0.011,0.02,1.005
2026/05/14 10:30:15.103,-0.012,0.022,1.007
2026/05/14 10:30:15.124,-0.015,0.026,1.006
2026/05/14 10:30:15.144,-0.015,0.018,0.998
2026/05/14 10:30:15.164,-0.015,0.025,1.003
2026/05/14 10:30:15.185,-0.012,0.021,1.004
2026/05/14 10:30:15.205,-0.015,0.021,1.004
2026/05/14 10:30:15.225,-0.011,0.019,1.001
2026/05/14 10:30:15.245,-0.013,0.023,1.005
2026/05/14 10:30:15.266,-0.019,0.023,1.004
2026/05/14 10:30:15.286,-0.017,0.022,1.004
2026/05/14 10:30:15.306,-0.013,0.022,1.009
2026/05/14 10:30:15.327,-0.01,0.025,1.0
2026/05/14 10:30:15.347,-0.013,0.019,1.004
2026/05/14 10:30:15.367,-0.016,0.023,1.003
2026/05/14 10:30:15.388,-0.015,0.023,1.006
2026/05/14 10:30:15.408,-0.012,0.018,1.005
2026/05/14 10:30:15.428,-0.014,0.018,1.004
2026/05/14 10:30:15.448,-0.016,0.02,1.006
2026/05/14 10:30:15.469,-0.017,0.022,1.006
2026/05/14 10:30:15.489,-0.015,0.021,1.01
2026/05/14 10:30:15.509,-0.017,0.021,1.003
2026/05/14 10:30:15.530,-0.019,0.023,1.004
2026/05/14 10:30:15.550,-0.014,0.022,1.007
2026/05/14 10:30:15.570,-0.012,0.022,1.007
2026/05/14 10:30:15.590,-0.013,0.019,1.001
2026/05/14 10:30:15.611,-0.016,0.024,1.003
2026/05/14 10:30:15.631,-0.015,0.022,1.003
2026/05/14 10:30:15.651,-0.01,0.019,1.003
2026/05/14 10:30:15.672,-0.017,0.021,1.004
2026/05/14 10:30:15.692,-0.017,0.022,1.001
2026/05/14 10:30:15.712,-0.014,0.023,1.004
2026/05/14 10:30:15.732,-0.016,0.022,1.004
2026/05/14 10:30:15.753,-0.014,0.022,1.006
2026/05/14 10:30:15.773,-0.013,0.02,1.004
2026/05/14 10:30:15.793,-0.014,0.021,1.005
2026/05/14 10:30:15.814,-0.018,0.023,1.006
2026/05/14 10:30:15.834,-0.014,0.021,1.005
2026/05/14 10:30:15.854,-0.011,0.015,1.003
2026/05/14 10:30:15.875,-0.015,0.022,1.002
2026/05/14 10:30:15.895,-0.013,0.021,1.006
2026/05/14 10:30:15.915,-0.014,0.019,1.003
2026/05/14 10:30:15.935,-0.015,0.021,1.006
2026/05/14 10:30:15.956,-0.016,0.022,1.008
2026/05/14 10:30:15.976,-0.018,0.02,1.002
2026/05/14 10:30:15.996,-0.015,0.022,1.006
2026/05/14 10:30:16.017,-0.017,0.021,1.007
2026/05/14 10:30:16.037,-0.013,0.023,1.005
2026/05/14 10:30:16.057,-0.013,0.02,1.008
2026/05/14 10:30:16.077,-0.017,0.023,1.002
2026/05/14 10:30:16.098,-0.016,0.021,1.005
2026/05/14 10:30:16.118,-0.014,0.022,1.005
2026/05/14 10:30:16.138,-0.014,0.023,1.004
2026/05/14 10:30:16.159,-0.019,0.022,1.006
2026/05/14 10:30:16.179,-0.014,0.023,1.004
2026/05/14 10:30:16.199,-0.016,0.025,1.007
2026/05/14 10:30:16.219,-0.017,0.018,1.007
2026/05/14 10:30:16.240,-0.017,0.021,1.003
2026/05/14 10:30:16.260,-0.013,0.021,1.002
2026/05/14 10:30:16.280,-0.013,0.024,1.003
2026/05/14 10:30:16.301,-0.012,0.021,1.003
2026/05/14 10:30:16.321,-0.012,0.022,1.005
2026/05/14 10:30:16.341,-0.015,0.019,1.001
2026/05/14 10:30:16.362,-0.011,0.022,1.004
2026/05/14 10:30:16.382,-0.015,0.02,1.005
2026/05/14 10:30:16.402,-0.012,0.024,1.007
2026/05/14 10:30:16.422,-0.015,0.024,1.007
2026/05/14 10:30:16.443,-0.017,0.02,1.006
2026/05/14 10:30:16.463,-0.016,0.02,1.004
2026/05/14 10:30:16.483,-0.013,0.019,1.007
2026/05/14 10:30:16.504,-0.015,0.023,1.003
2026/05/14 10:30:16.524,-0.009,0.021,1.002
2026/05/14 10:30:16.544,-0.016,0.021,1.004
2026/05/14 10:30:16.564,-0.016,0.019,1.003
2026/05/14 10:30:16.585,-0.016,0.023,1.002
2026/05/14 10:30:16.605,-0.013,0.021,1.002
2026/05/14 10:30:16.625,-0.013,0.02,1.002
2026/05/14 10:30:16.646,-0.016,0.024,1.001
2026/05/14 10:30:16.666,-0.014,0.018,1.001
2026/05/14 10:30:16.686,-0.016,0.023,1.005
2026/05/14 10:30:16.707,-0.014,0.024,1.007
2026/05/14 10:30:16.727,-0.014,0.022,1.005
2026/05/14 10:30:16.747,-0.016,0.026,1.005
2026/05/14 10:30:16.767,-0.013,0.021,1.003
2026/05/14 10:30:16.788,-0.015,0.023,1.002
2026/05/14 10:30:16.808,-0.014,0.019,1.003
2026/05/14 10:30:16.828,-0.014,0.022,1.005
2026/05/14 10:30:16.849,-0.014,0.02,1.001
2026/05/14 10:30:16.869,-0.013,0.022,1.005
2026/05/14 10:30:16.889,-0.015,0.02,1.007
2026/05/14 10:30:16.909,-0.015,0.022,1.001
2026/05/14 10:30:16.930,-0.016,0.02,1.006
2026/05/14 10:30:16.950,-0.016,0.02,1.006
2026/05/14 10:30:16.970,-0.016,0.019,1.004
2026/05/14 10:30:16.991,-0.013,0.02,1.001
2026/05/14 10:30:17.011,-0.016,0.021,1.001
2026/05/14 10:30:17.031,-0.013,0.025,1.005
2026/05/14 10:30:17.051,-0.015,0.019,1.0
2026/05/14 10:30:17.072,-0.016,0.022,1.005
2026/05/14 10:30:17.092,-0.016,0.025,1.002
2026/05/14 10:30:17.112,-0.013,0.021,1.002
2026/05/14 10:30:17.133,-0.012,0.019,1.001
2026/05/14 10:30:17.153,-0.015,0.023,1.001
2026/05/14 10:30:17.173,-0.014,0.021,1.004
2026/05/14 10:30:17.194,-0.01,0.021,1.005
2026/05/14 10:30:17.214,-0.017,0.022,1.006
2026/05/14 10:30:17.234,-0.014,0.023,1.001
2026/05/14 10:30:17.254,-0.013,0.019,1.007
2026/05/14 10:30:17.275,-0.013,0.021,1.005
2026/05/14 10:30:17.295,-0.015,0.02,1.006
2026/05/14 10:30:17.315,-0.016,0.021,1.005
2026/05/14 10:30:17.336,-0.014,0.024,1.005
2026/05/14 10:30:17.356,-0.017,0.022,1.005
2026/05/14 10:30:17.376,-0.017,0.021,1.008
2026/05/14 10:30:17.396,-0.016,0.021,1.005
2026/05/14 10:30:17.417,-0.016,0.021,1.007
2026/05/14 10:30:17.437,-0.017,0.021,1.001
2026/05/14 10:30:17.457,-0.013,0.018,1.005
2026/05/14 10:30:17.478,-0.017,0.02,1.004
2026/05/14 10:30:17.498,-0.012,0.025,1.003
2026/05/14 10:30:17.518,-0.015,0.024,1.006
2026/05/14 10:30:17.538,-0.014,0.019,1.002
2026/05/14 10:30:17.559,-0.014,0.024,1.003
2026/05/14 10:30:17.579,-0.015,0.019,1.002
2026/05/14 10:30:17.599,-0.017,0.02,1.006
2026/05/14 10:30:17.620,-0.016,0.019,1.007
2026/05/14 10:30:17.640,-0.016,0.021,0.999
2026/05/14 10:30:17.660,-0.015,0.023,1.004
2026/05/14 10:30:17.681,-0.014,0.021,1.002
2026/05/14 10:30:17.701,-0.017,0.019,1.004
2026/05/14 10:30:17.721,-0.012,0.022,1.004
2026/05/14 10:30:17.741,-0.014,0.021,1.007
2026/05/14 10:30:17.762,-0.017,0.018,1.005
2026/05/14 10:30:17.782,-0.014,0.021,1.002
2026/05/14 10:30:17.802,-0.011,0.022,1.005
2026/05/14 10:30:17.823,-0.014,0.021,1.005
2026/05/14 10:30:17.843,-0.01,0.02,1.003
2026/05/14 10:30:17.863,-0.015,0.021,1.004
2026/05/14 10:30:17.883,-0.016,0.021,1.003
2026/05/14 10:30:17.904,-0.016,0.02,0.999
2026/05/14 10:30:17.924,-0.012,0.019,1.004
2026/05/14 10:30:17.944,-0.016,0.019,1.006
2026/05/14 10:30:17.965,-0.015,0.022,1.007
2026/05/14 10:30:17.985,-0.016,0.021,1.005
2026/05/14 10:30:18.005,-0.015,0.018,1.004
2026/05/14 10:30:18.026,-0.017,0.02,1.004
2026/05/14 10:30:18.046,-0.014,0.024,1.002
2026/05/14 10:30:18.066,-0.015,0.02,1.01
2026/05/14 10:30:18.086,-0.013,0.022,1.006
2026/05/14 10:30:18.107,-0.014,0.023,1.003
2026/05/14 10:30:18.127,-0.014,0.02,1.005
2026/05/14 10:30:18.147,-0.016,0.022,1.007
2026/05/14 10:30:18.168,-0.012,0.019,1.002
2026/05/14 10:30:18.188,-0.015,0.023,1.005
2026/05/14 10:30:18.208,-0.015,0.023,1.004
2026/05/14 10:30:18.228,-0.014,0.02,1.004
2026/05/14 10:30:18.249,-0.017,0.023,1.004
2026/05/14 10:30:18.269,-0.016,0.022,1.003
2026/05/14 10:30:18.289,-0.013,0.017,1.004
2026/05/14 10:30:18.310,-0.013,0.023,1.003
2026/05/14 10:30:18.330,-0.016,0.023,1.005
2026/05/14 10:30:18.350,-0.015,0.022,1.002
2026/05/14 10:30:18.370,-0.016,0.024,1.005
2026/05/14 10:30:18.391,-0.013,0.025,1.006
2026/05/14 10:30:18.411,-0.017,0.022,1.007
2026/05/14 10:30:18.431,-0.017,0.023,1.006
2026/05/14 10:30:18.452,-0.011,0.018,1.005
2026/05/14 10:30:18.472,-0.015,0.019,1.005
2026/05/14 10:30:18.492,-0.012,0.017,1.002
2026/05/14 10:30:18.513,-0.018,0.025,1.007
2026/05/14 10:30:18.533,-0.015,0.02,1.005
2026/05/14 10:30:18.553,-0.017,0.024,1.003
2026/05/14 10:30:18.573,-0.016,0.022,1.007
2026/05/14 10:30:18.594,-0.014,0.021,1.004
2026/05/14 10:30:18.614,-0.014,0.022,1.004
2026/05/14 10:30:18.634,-0.014,0.02,1.007
2026/05/14 10:30:18.655,-0.015,0.02,1.004
2026/05/14 10:30:18.675,-0.012,0.018,1.002
2026/05/14 10:30:18.695,-0.014,0.023,1.003
2026/05/14 10:30:18.715,-0.013,0.02,1.006
2026/05/14 10:30:18.736,-0.013,0.019,1.004
2026/05/14 10:30:18.756,-0.016,0.02,1.004
2026/05/14 10:30:18.776,-0.015,0.019,1.004
2026/05/14 10:30:18.797,-0.019,0.023,1.005
2026/05/14 10:30:18.817,-0.019,0.022,1.005
2026/05/14 10:30:18.837,-0.015,0.024,0.998
2026/05/14 10:30:18.857,-0.012,0.02,1.003
2026/05/14 10:30:18.878,-0.016,0.019,1.0
2026/05/14 10:30:18.898,-0.011,0.021,1.009
2026/05/14 10:30:18.918,-0.013,0.024,1.004
2026/05/14 10:30:18.939,-0.016,0.019,1.004
2026/05/14 10:30:18.959,-0.014,0.018,1.007
2026/05/14 10:30:18.979,-0.014,0.018,1.004
2026/05/14 10:30:19.000,-0.021,0.017,1.001
2026/05/14 10:30:19.020,-0.007,0.027,1.009
2026/05/14 10:30:19.040,-0.028,0.023,0.994
2026/05/14 10:30:19.060,-0.015,0.024,0.995
2026/05/14 10:30:19.081,-0.015,0.022,1.005
2026/05/14 10:30:19.101,-0.013,0.021,1.006
2026/05/14 10:30:19.121,-0.015,0.018,1.003
2026/05/14 10:30:19.142,-0.014,0.018,1.003
2026/05/14 10:30:19.162,-0.011,0.02,1.005
2026/05/14 10:30:19.182,-0.011,0.02,1.008
2026/05/14 10:30:19.202,-0.018,0.017,0.996
2026/05/14 10:30:19.223,-0.011,0.026,1.012
2026/05/14 10:30:19.243,-0.022,0.022,0.996
2026/05/14 10:30:19.263,-0.013,0.02,1.001
2026/05/14 10:30:19.284,-0.017,0.02,0.997
2026/05/14 10:30:19.304,-0.007,0.021,1.012
2026/05/14 10:30:19.324,-0.014,0.024,1.01
2026/05/14 10:30:19.345,-0.013,0.022,1.007
2026/05/14 10:30:19.365,-0.019,0.021,0.998
2026/05/14 10:30:19.385,-0.025,0.018,0.989
2026/05/14 10:30:19.405,-0.021,0.02,0.991
2026/05/14 10:30:19.426,-0.01,0.02,1.003
2026/05/14 10:30:19.446,-0.012,0.018,1.002
2026/05/14 10:30:19.466,-0.014,0.019,1.003
2026/05/14 10:30:19.487,-0.02,0.02,0.993
2026/05/14 10:30:19.507,-0.015,0.022,1.007
2026/05/14 10:30:19.527,-0.018,0.021,1.003
2026/05/14 10:30:19.547,-0.018,0.019,1.001
2026/05/14 10:30:19.568,-0.014,0.024,1.006
2026/05/14 10:30:19.588,-0.014,0.022,1.001
2026/05/14 10:30:19.608,-0.015,0.024,1.004
2026/05/14 10:30:19.629,-0.011,0.028,1.006
2026/05/14 10:30:19.649,-0.012,0.018,1.005
2026/05/14 10:30:19.669,-0.011,0.02,1.01
2026/05/14 10:30:19.689,-0.013,0.02,1.003
2026/05/14 10:30:19.710,-0.013,0.022,1.008
2026/05/14 10:30:19.730,-0.015,0.019,0.998
2026/05/14 10:30:19.750,-0.016,0.021,0.998
2026/05/14 10:30:19.771,-0.015,0.025,1.004
2026/05/14 10:30:19.791,-0.017,0.021,1.001
2026/05/14 10:30:19.811,-0.013,0.021,1.002
2026/05/14 10:30:19.832,-0.019,0.018,1.003
2026/05/14 10:30:19.852,-0.006,0.025,1.006
2026/05/14 10:30:19.872,-0.016,0.021,1.001
2026/05/14 10:30:19.892,-0.011,0.023,1.001
2026/05/14 10:30:19.913,-0.015,0.018,1.006
2026/05/14 10:30:19.933,-0.012,0.016,1.007
2026/05/14 10:30:19.953,-0.017,0.022,1.003
2026/05/14 10:30:19.974,-0.018,0.022,1.001
2026/05/14 10:30:19.994,-0.016,0.019,1.002
2026/05/14 10:30:20.014,-0.016,0.023,1.006
2026/05/14 10:30:20.034,-0.006,0.028,1.011
2026/05/14 10:30:20.055,-0.014,0.019,1.001
2026/05/14 10:30:20.075,-0.015,0.022,1.006
2026/05/14 10:30:20.095,-0.011,0.019,1.008
2026/05/14 10:30:20.116,-0.019,0.018,1.004
2026/05/14 10:30:20.136,-0.019,0.027,1.005
2026/05/14 10:30:20.156,-0.016,0.022,1.006
2026/05/14 10:30:20.176,-0.012,0.018,1.006
2026/05/14 10:30:20.197,-0.012,0.019,1.006
2026/05/14 10:30:20.217,-0.016,0.026,1.005
2026/05/14 10:30:20.237,-0.013,0.023,1.006
2026/05/14 10:30:20.258,-0.022,0.017,0.997
2026/05/14 10:30:20.278,-0.013,0.023,1.006
2026/05/14 10:30:20.298,-0.01,0.027,1.01
2026/05/14 10:30:20.319,-0.015,0.021,0.997
2026/05/14 10:30:20.339,-0.014,0.024,1.004
2026/05/14 10:30:20.359,-0.015,0.023,1.0
2026/05/14 10:30:20.379,-0.017,0.021,1.006
2026/05/14 10:30:20.400,-0.021,0.019,1.003
2026/05/14 10:30:20.420,-0.013,0.02,1.009
2026/05/14 10:30:20.440,-0.014,0.02,1.003
2026/05/14 10:30:20.461,-0.016,0.019,1.006
2026/05/14 10:30:20.481,-0.011,0.025,1.009
2026/05/14 10:30:20.501,-0.017,0.02,0.996
2026/05/14 10:30:20.521,-0.015,0.025,1.014
2026/05/14 10:30:20.542,-0.015,0.014,1.007
2026/05/14 10:30:20.562,-0.016,0.02,1.003
2026/05/14 10:30:20.582,-0.017,0.017,1.005
2026/05/14 10:30:20.603,-0.01,0.026,1.015
2026/05/14 10:30:20.623,-0.019,0.018,1.001
2026/05/14 10:30:20.643,-0.01,0.021,1.005
2026/05/14 10:30:20.663,-0.018,0.021,0.999
2026/05/14 10:30:20.684,-0.012,0.018,1.002
2026/05/14 10:30:20.704,-0.016,0.022,1.002
2026/05/14 10:30:20.724,-0.012,0.02,1.005
2026/05/14 10:30:20.745,-0.014,0.024,1.004
2026/05/14 10:30:20.765,-0.014,0.027,1.009
2026/05/14 10:30:20.785,-0.014,0.024,1.006
2026/05/14 10:30:20.806,-0.015,0.022,1.006
2026/05/14 10:30:20.826,-0.012,0.023,1.001
2026/05/14 10:30:20.846,-0.016,0.016,1.003
2026/05/14 10:30:20.866,-0.01,0.019,1.009
2026/05/14 10:30:20.887,-0.015,0.022,1.0
2026/05/14 10:30:20.907,-0.016,0.019,1.002
2026/05/14 10:30:20.927,-0.011,0.022,1.016
2026/05/14 10:30:20.948,-0.014,0.021,1.001
2026/05/14 10:30:20.968,-0.014,0.018,1.001
2026/05/14 10:30:20.988,-0.013,0.024,1.006
2026/05/14 10:30:21.008,-0.009,0.021,1.006
2026/05/14 10:30:21.029,-0.014,0.023,1.005
2026/05/14 10:30:21.049,-0.015,0.018,1.005
2026/05/14 10:30:21.069,-0.015,0.018,1.001
2026/05/14 10:30:21.090,-0.012,0.022,1.003
2026/05/14 10:30:21.110,-0.014,0.023,1.004
2026/05/14 10:30:21.130,-0.019,0.024,1.009
2026/05/14 10:30:21.151,-0.012,0.02,1.008
2026/05/14 10:30:21.171,-0.016,0.019,1.004
2026/05/14 10:30:21.191,-0.012,0.021,1.001
2026/05/14 10:30:21.211,-0.016,0.023,1.005
2026/05/14 10:30:21.232,-0.016,0.019,1.004
2026/05/14 10:30:21.252,-0.015,0.023,1.003
2026/05/14 10:30:21.272,-0.013,0.024,1.005
2026/05/14 10:30:21.293,-0.016,0.022,1.0
2026/05/14 10:30:21.313,-0.021,0.018,0.996
2026/05/14 10:30:21.333,-0.01,0.021,1.011
2026/05/14 10:30:21.353,-0.013,0.024,1.004
2026/05/14 10:30:21.374,-0.015,0.019,1.002
2026/05/14 10:30:21.394,-0.014,0.022,1.005
2026/05/14 10:30:21.414,-0.013,0.018,1.007
2026/05/14 10:30:21.435,-0.015,0.019,1.007
2026/05/14 10:30:21.455,-0.013,0.02,1.005
2026/05/14 10:30:21.475,-0.017,0.018,1.006
2026/05/14 10:30:21.495,-0.014,0.019,1.008
2026/05/14 10:30:21.516,-0.015,0.022,1.003
2026/05/14 10:30:21.536,-0.012,0.022,1.003
2026/05/14 10:30:21.556,-0.012,0.019,1.006
2026/05/14 10:30:21.577,-0.015,0.023,1.005
2026/05/14 10:30:21.597,-0.016,0.024,1.001
2026/05/14 10:30:21.617,-0.017,0.021,1.006
2026/05/14 10:30:21.638,-0.013,0.018,1.002
2026/05/14 10:30:21.658,-0.009,0.019,1.004
2026/05/14 10:30:21.678,-0.014,0.018,1.005
2026/05/14 10:30:21.698,-0.012,0.023,1.006
2026/05/14 10:30:21.719,-0.012,0.021,1.005
2026/05/14 10:30:21.739,-0.014,0.02,1.004
2026/05/14 10:30:21.759,-0.017,0.018,1.004
2026/05/14 10:30:21.780,-0.016,0.021,1.004
2026/05/14 10:30:21.800,-0.018,0.021,1.002
2026/05/14 10:30:21.820,-0.015,0.026,1.007
2026/05/14 10:30:21.840,-0.011,0.023,1.004
2026/05/14 10:30:21.861,-0.012,0.021,1.009
2026/05/14 10:30:21.881,-0.015,0.023,1.003
2026/05/14 10:30:21.901,-0.013,0.019,1.002
2026/05/14 10:30:21.922,-0.014,0.021,1.003
2026/05/14 10:30:21.942,-0.017,0.021,1.009
2026/05/14 10:30:21.962,-0.011,0.019,1.003
2026/05/14 10:30:21.982,-0.015,0.022,1.004
2026/05/14 10:30:22.003,-0.013,0.022,1.003
2026/05/14 10:30:22.023,-0.014,0.019,1.005
2026/05/14 10:30:22.043,-0.016,0.021,1.007
2026/05/14 10:30:22.064,-0.015,0.023,1.006
2026/05/14 10:30:22.084,-0.011,0.018,1.002
2026/05/14 10:30:22.104,-0.017,0.02,1.008
2026/05/14 10:30:22.125,-0.014,0.02,1.005
2026/05/14 10:30:22.145,-0.017,0.023,1.008
2026/05/14 10:30:22.165,-0.013,0.023,1.006
2026/05/14 10:30:22.185,-0.013,0.019,1.004
2026/05/14 10:30:22.206,-0.015,0.018,1.002
2026/05/14 10:30:22.226,-0.011,0.022,1.006
2026/05/14 10:30:22.246,-0.014,0.023,1.006
2026/05/14 10:30:22.267,-0.016,0.024,1.005
2026/05/14 10:30:22.287,-0.014,0.024,1.004
2026/05/14 10:30:22.307,-0.016,0.022,1.003
2026/05/14 10:30:22.327,-0.013,0.019,1.005
2026/05/14 10:30:22.348,-0.013,0.021,1.0
2026/05/14 10:30:22.368,-0.016,0.021,1.004
2026/05/14 10:30:22.388,-0.012,0.021,1.002
2026/05/14 10:30:22.409,-0.012,0.023,1.0
2026/05/14 10:30:22.429,-0.013,0.019,1.002
2026/05/14 10:30:22.449,-0.013,0.02,1.002
2026/05/14 10:30:22.469,-0.012,0.02,1.002
2026/05/14 10:30:22.490,-0.019,0.025,1.003
2026/05/14 10:30:22.510,-0.014,0.022,1.004
2026/05/14 10:30:22.530,-0.014,0.023,1.005
2026/05/14 10:30:22.551,-0.012,0.017,1.002
2026/05/14 10:30:22.571,-0.016,0.022,1.001
2026/05/14 10:30:22.591,-0.016,0.018,1.006
2026/05/14 10:30:22.612,-0.012,0.022,1.009
2026/05/14 10:30:22.632,-0.019,0.023,1.004
2026/05/14 10:30:22.652,-0.011,0.022,1.005
2026/05/14 10:30:22.672,-0.017,0.017,1.003
2026/05/14 10:30:22.693,-0.015,0.023,1.001
2026/05/14 10:30:22.713,-0.015,0.022,1.002
2026/05/14 10:30:22.733,-0.013,0.02,1.004
2026/05/14 10:30:22.754,-0.016,0.021,1.004
2026/05/14 10:30:22.774,-0.015,0.022,1.006
2026/05/14 10:30:22.794,-0.012,0.021,1.005
2026/05/14 10:30:22.814,-0.016,0.019,1.002
2026/05/14 10:30:22.835,-0.016,0.022,1.001
2026/05/14 10:30:22.855,-0.014,0.019,1.002
2026/05/14 10:30:22.875,-0.012,0.023,1.001
2026/05/14 10:30:22.896,-0.016,0.021,1.002
2026/05/14 10:30:22.916,-0.015,0.021,1.003
2026/05/14 10:30:22.936,-0.015,0.022,1.005
2026/05/14 10:30:22.956,-0.019,0.02,1.003
2026/05/14 10:30:22.977,-0.013,0.022,1.002
2026/05/14 10:30:22.997,-0.013,0.02,1.007
2026/05/14 10:30:23.017,-0.016,0.02,1.002
2026/05/14 10:30:23.038,-0.012,0.02,1.001
2026/05/14 10:30:23.058,-0.016,0.02,1.004
2026/05/14 10:30:23.078,-0.013,0.021,1.002
2026/05/14 10:30:23.099,-0.019,0.02,1.002
2026/05/14 10:30:23.119,-0.018,0.019,1.004
2026/05/14 10:30:23.139,-0.017,0.019,1.003
2026/05/14 10:30:23.159,-0.014,0.02,1.007
2026/05/14 10:30:23.180,-0.014,0.022,1.005
2026/05/14 10:30:23.200,-0.013,0.024,1.004
2026/05/14 10:30:23.220,-0.015,0.02,1.002
2026/05/14 10:30:23.241,-0.014,0.024,1.004
2026/05/14 10:30:23.261,-0.015,0.025,1.007
2026/05/14 10:30:23.281,-0.018,0.021,1.002
2026/05/14 10:30:23.301,-0.013,0.023,1.0
2026/05/14 10:30:23.322,-0.016,0.021,1.004
2026/05/14 10:30:23.342,-0.015,0.019,1.005
2026/05/14 10:30:23.362,-0.013,0.018,1.005
2026/05/14 10:30:23.383,-0.017,0.019,1.004
2026/05/14 10:30:23.403,-0.016,0.018,1.002
2026/05/14 10:30:23.423,-0.015,0.02,1.004
2026/05/14 10:30:23.444,-0.013,0.019,1.003
2026/05/14 10:30:23.464,-0.011,0.021,1.002
2026/05/14 10:30:23.484,-0.015,0.024,1.006
2026/05/14 10:30:23.504,-0.013,0.025,1.003
2026/05/14 10:30:23.525,-0.012,0.018,1.006
2026/05/14 10:30:23.545,-0.014,0.021,1.003
2026/05/14 10:30:23.565,-0.017,0.022,1.007
2026/05/14 10:30:23.586,-0.014,0.023,1.005
2026/05/14 10:30:23.606,-0.013,0.022,1.005
2026/05/14 10:30:23.626,-0.015,0.02,1.002
2026/05/14 10:30:23.646,-0.014,0.021,1.0
2026/05/14 10:30:23.667,-0.016,0.018,1.006
2026/05/14 10:30:23.687,-0.016,0.023,1.004
2026/05/14 10:30:23.707,-0.016,0.022,1.005
2026/05/14 10:30:23.728,-0.01,0.02,1.005
2026/05/14 10:30:23.748,-0.011,0.019,1.005
2026/05/14 10:30:23.768,-0.016,0.021,1.004
2026/05/14 10:30:23.788,-0.012,0.016,1.001
2026/05/14 10:30:23.809,-0.013,0.024,1.006
2026/05/14 10:30:23.829,-0.016,0.019,1.0
2026/05/14 10:30:23.849,-0.014,0.021,1.004
2026/05/14 10:30:23.870,-0.017,0.023,1.004
2026/05/14 10:30:23.890,-0.017,0.018,1.006
2026/05/14 10:30:23.910,-0.013,0.022,1.003
2026/05/14 10:30:23.931,-0.012,0.025,1.005
2026/05/14 10:30:23.951,-0.043,0.021,0.923
2026/05/14 10:30:23.971,-0.067,0.01,0.943
2026/05/14 10:30:23.991,-0.008,0.021,1.021
2026/05/14 10:30:24.012,0.035,0.025,1.059
2026/05/14 10:30:24.032,-0.029,0.016,1.012
2026/05/14 10:30:24.052,-0.017,0.022,1.018
2026/05/14 10:30:24.073,-0.025,0.008,1.011
2026/05/14 10:30:24.093,-0.008,0.012,1.015
2026/05/14 10:30:24.113,-0.009,0.017,1.008
2026/05/14 10:30:24.133,-0.012,0.02,1.005
2026/05/14 10:30:24.154,-0.023,0.019,1.008
2026/05/14 10:30:24.174,-0.024,0.019,1.006
2026/05/14 10:30:24.194,-0.022,0.021,1.006
2026/05/14 10:30:24.215,-0.021,0.027,1.011
2026/05/14 10:30:24.235,-0.019,0.045,1.005
2026/05/14 10:30:24.255,-0.002,0.032,1.024
2026/05/14 10:30:24.275,-0.011,0.023,0.999
2026/05/14 10:30:24.296,-0.009,0.015,1.0
2026/05/14 10:30:24.316,0.002,0.0,1.001
2026/05/14 10:30:24.336,0.003,0.01,1.032
2026/05/14 10:30:24.357,-0.015,0.006,0.99
2026/05/14 10:30:24.377,0.0,0.026,1.024
2026/05/14 10:30:24.397,-0.012,0.026,1.006
2026/05/14 10:30:24.418,-0.013,0.03,1.004
2026/05/14 10:30:24.438,-0.008,0.03,0.991
2026/05/14 10:30:24.458,-0.013,0.023,1.001
2026/05/14 10:30:24.478,-0.018,0.022,1.007
2026/05/14 10:30:24.499,-0.021,0.018,1.009
2026/05/14 10:30:24.519,-0.019,0.017,0.999
2026/05/14 10:30:24.539,-0.019,0.026,1.004
2026/05/14 10:30:24.560,-0.013,0.023,1.007
2026/05/14 10:30:24.580,-0.007,0.032,1.007
2026/05/14 10:30:24.600,0.004,0.033,1.016
2026/05/14 10:30:24.620,-0.011,0.019,1.005
2026/05/14 10:30:24.641,-0.01,0.02,1.018
2026/05/14 10:30:24.661,-0.018,0.014,1.007
2026/05/14 10:30:24.681,-0.023,0.013,1.006
2026/05/14 10:30:24.702,-0.015,0.012,1.011
2026/05/14 10:30:24.722,-0.026,0.027,1.009
2026/05/14 10:30:24.742,-0.026,0.032,1.01
2026/05/14 10:30:24.763,-0.025,0.04,1.007
2026/05/14 10:30:24.783,-0.019,0.034,0.995
2026/05/14 10:30:24.803,-0.019,0.028,1.001
2026/05/14 10:30:24.823,-0.015,0.014,1.0
2026/05/14 10:30:24.844,-0.017,0.008,1.004
2026/05/14 10:30:24.864,-0.012,0.001,1.005
2026/05/14 10:30:24.884,-0.004,0.009,1.005
2026/05/14 10:30:24.905,-0.006,0.019,0.998
2026/05/14 10:30:24.925,-0.011,0.032,1.0
2026/05/14 10:30:24.945,0.016,0.087,1.044
2026/05/14 10:30:24.965,-0.058,0.015,0.918
2026/05/14 10:30:24.986,-0.091,0.147,1.109
2026/05/14 10:30:25.006,-0.006,0.213,0.942
2026/05/14 10:30:25.026,-0.037,-0.015,0.92
2026/05/14 10:30:25.047,-0.025,-0.134,1.028
2026/05/14 10:30:25.067,0.018,-0.068,1.045
2026/05/14 10:30:25.087,0.035,0.007,1.077
2026/05/14 10:30:25.107,0.0,-0.033,1.06
2026/05/14 10:30:25.128,-0.016,0.044,0.997
2026/05/14 10:30:25.148,-0.015,0.028,0.991
2026/05/14 10:30:25.168,0.004,0.01,1.025
2026/05/14 10:30:25.189,-0.033,0.069,0.997
2026/05/14 10:30:25.209,0.002,0.054,0.998
2026/05/14 10:30:25.229,-0.022,0.013,1.035
2026/05/14 10:30:25.250,-0.039,0.017,0.967
2026/05/14 10:30:25.270,-0.014,-0.075,1.039
2026/05/14 10:30:25.290,-0.031,0.033,1.006
2026/05/14 10:30:25.310,0.017,0.052,0.956
2026/05/14 10:30:25.331,-0.034,0.007,1.055
2026/05/14 10:30:25.351,-0.026,0.038,0.987
2026/05/14 10:30:25.371,-0.024,0.024,0.985
2026/05/14 10:30:25.392,-0.014,0.008,1.0
2026/05/14 10:30:25.412,-0.017,0.028,0.992
2026/05/14 10:30:25.432,-0.009,0.014,1.021
2026/05/14 10:30:25.452,-0.016,0.025,0.998
2026/05/14 10:30:25.473,-0.009,0.003,1.003
2026/05/14 10:30:25.493,-0.023,0.022,0.952
2026/05/14 10:30:25.513,-0.019,0.026,0.999
2026/05/14 10:30:25.534,-0.026,0.036,0.991
2026/05/14 10:30:25.554,-0.029,0.017,0.918
2026/05/14 10:30:25.574,0.014,-0.001,1.015
2026/05/14 10:30:25.594,-0.015,0.025,0.991
2026/05/14 10:30:25.615,-0.02,0.004,1.028
2026/05/14 10:30:25.635,-0.013,0.025,1.005
2026/05/14 10:30:25.655,-0.093,0.023,1.042
2026/05/14 10:30:25.676,-0.025,0.029,1.004
2026/05/14 10:30:25.696,-0.031,0.042,0.998
2026/05/14 10:30:25.716,-0.022,0.046,1.028
2026/05/14 10:30:25.737,-0.011,0.031,1.016
2026/05/14 10:30:25.757,-0.002,0.022,1.01
2026/05/14 10:30:25.777,0.0,0.013,1.009
2026/05/14 10:30:25.797,-0.006,0.011,1.004
2026/05/14 10:30:25.818,-0.004,0.011,0.999
2026/05/14 10:30:25.838,-0.007,-0.001,1.0
2026/05/14 10:30:25.858,-0.01,-0.005,1.019
2026/05/14 10:30:25.879,-0.021,0.028,1.006
2026/05/14 10:30:25.899,-0.019,0.036,1.028
2026/05/14 10:30:25.919,-0.032,0.053,0.976
2026/05/14 10:30:25.939,-0.051,0.033,0.914
2026/05/14 10:30:25.960,0.003,0.047,1.044
2026/05/14 10:30:25.980,-0.013,0.013,1.003
2026/05/14 10:30:26.000,-0.023,0.033,0.998
2026/05/14 10:30:26.021,-0.023,0.018,1.014
2026/05/14 10:30:26.041,-0.022,0.01,1.01
2026/05/14 10:30:26.061,-0.018,-0.003,1.015
2026/05/14 10:30:26.082,-0.013,0.01,1.029
2026/05/14 10:30:26.102,-0.057,0.095,0.823
2026/05/14 10:30:26.122,-0.024,0.044,0.97
2026/05/14 10:30:26.142,-0.018,0.032,0.992
2026/05/14 10:30:26.163,-0.029,0.044,1.003
2026/05/14 10:30:26.183,-0.027,0.029,1.011
2026/05/14 10:30:26.203,-0.004,0.065,1.02
2026/05/14 10:30:26.224,0.027,0.275,0.957
2026/05/14 10:30:26.244,-0.013,0.252,1.039
2026/05/14 10:30:26.264,-0.021,-0.025,0.957
2026/05/14 10:30:26.284,-0.277,-0.435,1.474
2026/05/14 10:30:26.305,0.166,-0.193,1.078
2026/05/14 10:30:26.325,0.057,0.059,0.919
2026/05/14 10:30:26.345,0.047,-0.023,1.039
2026/05/14 10:30:26.366,-0.002,0.06,0.964
2026/05/14 10:30:26.386,0.008,-0.009,1.056
2026/05/14 10:30:26.406,-0.041,0.053,0.96
2026/05/14 10:30:26.427,-0.025,-0.003,1.03
2026/05/14 10:30:26.447,-0.021,0.023,0.991
2026/05/14 10:30:26.467,0.028,-0.001,1.011
2026/05/14 10:30:26.487,0.035,0.001,0.97
2026/05/14 10:30:26.508,0.012,0.033,1.048
2026/05/14 10:30:26.528,-0.129,0.045,0.97
2026/05/14 10:30:26.548,0.024,-0.003,1.026
2026/05/14 10:30:26.569,0.058,0.035,0.988
2026/05/14 10:30:26.589,0.199,-0.12,0.943
2026/05/14 10:30:26.609,-0.103,-0.008,0.974
2026/05/14 10:30:26.629,-0.36,-0.105,0.901
2026/05/14 10:30:26.650,-0.035,0.055,0.819
2026/05/14 10:30:26.670,-0.026,0.058,1.043
2026/05/14 10:30:26.690,0.018,0.003,1.102
2026/05/14 10:30:26.711,-0.027,0.006,0.936
2026/05/14 10:30:26.731,0.022,-0.143,1.051
2026/05/14 10:30:26.751,-0.018,0.204,1.045
2026/05/14 10:30:26.771,0.0,0.076,0.934
2026/05/14 10:30:26.792,-0.02,-0.083,1.104
2026/05/14 10:30:26.812,-0.04,0.068,0.926
2026/05/14 10:30:26.832,-0.036,0.066,0.968
2026/05/14 10:30:26.853,0.01,-0.053,1.117
2026/05/14 10:30:26.873,-0.013,0.082,0.994
2026/05/14 10:30:26.893,0.031,-0.006,1.043
2026/05/14 10:30:26.914,0.0,0.031,0.971
2026/05/14 10:30:26.934,-0.006,-0.001,0.989
2026/05/14 10:30:26.954,-0.009,0.0,0.991
2026/05/14 10:30:26.974,-0.011,0.005,0.998
2026/05/14 10:30:26.995,-0.017,0.017,1.0
2026/05/14 10:30:27.015,-0.022,0.031,1.003
2026/05/14 10:30:27.035,-0.016,0.034,1.019
2026/05/14 10:30:27.056,-0.012,0.037,1.008
2026/05/14 10:30:27.076,-0.015,0.025,1.013
2026/05/14 10:30:27.096,-0.024,0.019,1.0
2026/05/14 10:30:27.116,-0.021,0.009,1.002
2026/05/14 10:30:27.137,-0.026,0.007,1.006
2026/05/14 10:30:27.157,-0.02,0.009,1.005
2026/05/14 10:30:27.177,-0.014,0.014,1.008
2026/05/14 10:30:27.198,0.004,0.02,1.012
2026/05/14 10:30:27.218,0.005,0.025,1.006
2026/05/14 10:30:27.238,-0.005,0.02,1.012
2026/05/14 10:30:27.259,-0.012,0.017,1.006
2026/05/14 10:30:27.279,-0.022,0.014,1.008
2026/05/14 10:30:27.299,-0.024,0.011,1.0
2026/05/14 10:30:27.319,-0.021,0.015,0.999
2026/05/14 10:30:27.340,-0.016,0.018,1.004
2026/05/14 10:30:27.360,-0.018,0.026,1.003
2026/05/14 10:30:27.380,-0.018,0.032,1.007
2026/05/14 10:30:27.401,-0.011,0.031,1.002
2026/05/14 10:30:27.421,-0.01,0.02,0.999
2026/05/14 10:30:27.441,-0.012,0.014,1.004
2026/05/14 10:30:27.461,-0.012,0.011,1.006
2026/05/14 10:30:27.482,-0.01,0.005,1.003
2026/05/14 10:30:27.502,-0.009,0.009,1.0
2026/05/14 10:30:27.522,-0.013,0.012,1.005
2026/05/14 10:30:27.543,-0.011,0.021,1.004
2026/05/14 10:30:27.563,-0.01,0.023,1.005
2026/05/14 10:30:27.583,-0.013,0.024,1.008
2026/05/14 10:30:27.603,-0.015,0.023,1.001
2026/05/14 10:30:27.624,-0.019,0.019,1.001
2026/05/14 10:30:27.644,-0.02,0.017,1.005
2026/05/14 10:30:27.664,-0.017,0.016,1.002
2026/05/14 10:30:27.685,-0.017,0.017,1.005
2026/05/14 10:30:27.705,-0.02,0.016,1.006
2026/05/14 10:30:27.725,-0.01,0.021,1.007
2026/05/14 10:30:27.746,-0.013,0.015,1.006
2026/05/14 10:30:27.766,-0.013,0.019,1.004
2026/05/14 10:30:27.786,-0.011,0.015,1.006
2026/05/14 10:30:27.806,-0.015,0.014,1.001
2026/05/14 10:30:27.827,-0.014,0.011,1.004
2026/05/14 10:30:27.847,-0.015,0.022,1.0
2026/05/14 10:30:27.867,-0.014,0.02,1.005
2026/05/14 10:30:27.888,-0.011,0.021,1.004
2026/05/14 10:30:27.908,-0.012,0.022,1.007
2026/05/14 10:30:27.928,-0.012,0.019,1.005
2026/05/14 10:30:27.948,-0.016,0.021,1.005
2026/05/14 10:30:27.969,-0.022,0.017,0.995
2026/05/14 10:30:27.989,-0.01,0.015,1.011
2026/05/14 10:30:28.009,-0.009,0.011,1.009
2026/05/14 10:30:28.030,-0.013,0.015,1.004
2026/05/14 10:30:28.050,-0.008,0.012,1.004
2026/05/14 10:30:28.070,-0.009,0.017,1.002
2026/05/14 10:30:28.090,-0.014,0.021,1.002
2026/05/14 10:30:28.111,-0.017,0.018,1.0
2026/05/14 10:30:28.131,-0.017,0.018,1.003
2026/05/14 10:30:28.151,-0.018,0.018,1.004
2026/05/14 10:30:28.172,-0.017,0.022,1.002
2026/05/14 10:30:28.192,-0.017,0.017,1.007
2026/05/14 10:30:28.212,-0.018,0.018,1.005
2026/05/14 10:30:28.233,-0.014,0.02,1.006
2026/05/14 10:30:28.253,-0.011,0.019,1.007
2026/05/14 10:30:28.273,-0.01,0.018,1.008
2026/05/14 10:30:28.293,-0.014,0.019,1.003
2026/05/14 10:30:28.314,-0.01,0.018,1.008
2026/05/14 10:30:28.334,-0.016,0.015,1.005
2026/05/14 10:30:28.354,-0.013,0.015,1.003
2026/05/14 10:30:28.375,-0.013,0.016,1.009
2026/05/14 10:30:28.395,-0.013,0.022,1.001
2026/05/14 10:30:28.415,-0.012,0.022,1.008
2026/05/14 10:30:28.435,-0.014,0.022,1.004
2026/05/14 10:30:28.456,-0.012,0.021,1.005
2026/05/14 10:30:28.476,-0.017,0.019,1.002
2026/05/14 10:30:28.496,-0.015,0.015,1.005
2026/05/14 10:30:28.517,-0.015,0.018,1.004
2026/05/14 10:30:28.537,-0.01,0.016,1.01
2026/05/14 10:30:28.557,-0.011,0.018,1.005
2026/05/14 10:30:28.577,-0.013,0.017,1.002
2026/05/14 10:30:28.598,-0.017,0.017,1.005
2026/05/14 10:30:28.618,-0.011,0.017,1.009
2026/05/14 10:30:28.638,-0.014,0.019,1.002
2026/05/14 10:30:28.659,-0.009,0.022,1.017
2026/05/14 10:30:28.679,-0.007,0.022,1.008
2026/05/14 10:30:28.699,-0.033,0.013,0.979
2026/05/14 10:30:28.720,-0.006,0.0,1.008
2026/05/14 10:30:28.740,-0.016,0.002,1.023
2026/05/14 10:30:28.760,0.034,0.068,1.111
2026/05/14 10:30:28.780,-0.017,0.002,0.972
2026/05/14 10:30:28.801,-0.021,0.008,0.971
2026/05/14 10:30:28.821,0.036,0.059,1.087
2026/05/14 10:30:28.841,0.027,-0.028,0.983
2026/05/14 10:30:28.862,-0.039,0.031,0.954
2026/05/14 10:30:28.882,-0.037,0.014,1.028
2026/05/14 10:30:28.902,-0.024,0.02,0.998
2026/05/14 10:30:28.922,0.015,0.045,1.037
2026/05/14 10:30:28.943,-0.004,0.047,0.991
2026/05/14 10:30:28.963,0.036,0.033,0.978
2026/05/14 10:30:28.983,-0.028,0.024,1.025
2026/05/14 10:30:29.004,-0.021,0.005,1.007
2026/05/14 10:30:29.024,0.007,-0.012,0.998
2026/05/14 10:30:29.044,-0.001,-0.012,1.006
2026/05/14 10:30:29.065,-0.004,-0.005,1.007
2026/05/14 10:30:29.085,-0.018,0.027,0.984
2026/05/14 10:30:29.105,-0.004,0.038,0.995
2026/05/14 10:30:29.125,-0.002,0.037,1.01
2026/05/14 10:30:29.146,-0.008,0.023,1.007
2026/05/14 10:30:29.166,-0.015,0.008,1.002
2026/05/14 10:30:29.186,-0.026,-0.001,0.991
2026/05/14 10:30:29.207,-0.03,0.007,0.993
2026/05/14 10:30:29.227,-0.029,0.021,1.015
2026/05/14 10:30:29.247,-0.018,0.022,0.992
2026/05/14 10:30:29.267,0.009,0.056,1.061
2026/05/14 10:30:29.288,-0.005,0.035,1.003
2026/05/14 10:30:29.308,0.014,0.038,1.029
2026/05/14 10:30:29.328,-0.007,0.018,1.003
2026/05/14 10:30:29.349,-0.008,0.008,1.002
2026/05/14 10:30:29.369,-0.024,0.004,1.002
2026/05/14 10:30:29.389,0.017,-0.001,1.096
2026/05/14 10:30:29.409,-0.031,0.007,0.99
2026/05/14 10:30:29.430,0.009,0.017,1.024
2026/05/14 10:30:29.450,0.002,0.043,1.042
2026/05/14 10:30:29.470,0.121,0.126,1.34
2026/05/14 10:30:29.491,-0.08,0.022,0.964
2026/05/14 10:30:29.511,-0.041,0.019,0.962
2026/05/14 10:30:29.531,-0.02,0.009,1.025
2026/05/14 10:30:29.552,-0.017,0.002,1.005
2026/05/14 10:30:29.572,-0.044,0.024,0.947
2026/05/14 10:30:29.592,0.026,-0.114,0.869
2026/05/14 10:30:29.612,-0.024,-0.014,0.929
2026/05/14 10:30:29.633,0.082,0.052,1.131
2026/05/14 10:30:29.653,-0.012,0.01,0.917
2026/05/14 10:30:29.673,-0.03,0.047,0.996
2026/05/14 10:30:29.694,-0.01,-0.018,0.967
2026/05/14 10:30:29.714,-0.024,0.015,0.986
2026/05/14 10:30:29.734,-0.021,0.011,1.05
2026/05/14 10:30:29.754,-0.016,0.023,1.024
2026/05/14 10:30:29.775,-0.036,0.031,0.943
2026/05/14 10:30:29.795,0.013,0.02,1.01
2026/05/14 10:30:29.815,-0.015,0.027,0.96
2026/05/14 10:30:29.836,-0.01,0.028,1.015
2026/05/14 10:30:29.856,-0.114,-0.028,0.807
2026/05/14 10:30:29.876,-0.006,0.013,1.03
2026/05/14 10:30:29.896,-0.016,-0.001,0.971
2026/05/14 10:30:29.917,-0.005,0.003,1.001
2026/05/14 10:30:29.937,-0.016,0.008,0.986
2026/05/14 10:30:29.957,-0.004,0.022,1.005
2026/05/14 10:30:29.978,-0.013,0.03,1.01
2026/05/14 10:30:29.998,-0.018,0.023,1.002
2026/05/14 10:30:30.018,-0.037,0.019,0.996
2026/05/14 10:30:30.039,-0.023,0.013,0.999
2026/05/14 10:30:30.059,-0.014,0.011,0.996
2026/05/14 10:30:30.079,-0.013,0.014,1.007
2026/05/14 10:30:30.099,-0.004,0.018,1.019
2026/05/14 10:30:30.120,0.004,0.029,1.03
2026/05/14 10:30:30.140,-0.012,0.028,1.019
2026/05/14 10:30:30.160,-0.022,0.017,0.983
2026/05/14 10:30:30.181,0.001,0.036,0.721
2026/05/14 10:30:30.201,-0.132,-0.02,0.378
2026/05/14 10:30:30.221,-0.001,0.039,1.254
2026/05/14 10:30:30.241,-0.04,-0.045,0.598
2026/05/14 10:30:30.262,0.145,0.026,1.169
2026/05/14 10:30:30.282,0.001,0.039,0.977
2026/05/14 10:30:30.302,0.029,0.04,1.021
2026/05/14 10:30:30.323,-0.003,0.028,1.027
2026/05/14 10:30:30.343,-0.009,0.025,1.0
2026/05/14 10:30:30.363,-0.027,-0.004,0.97
2026/05/14 10:30:30.383,-0.025,0.011,0.975
2026/05/14 10:30:30.404,-0.016,0.011,0.987
2026/05/14 10:30:30.424,-0.01,0.02,1.0
2026/05/14 10:30:30.444,-0.012,0.02,0.995
2026/05/14 10:30:30.465,0.002,0.032,1.005
2026/05/14 10:30:30.485,0.002,0.026,0.999
2026/05/14 10:30:30.505,0.005,0.029,1.037
2026/05/14 10:30:30.526,-0.009,0.009,1.005
2026/05/14 10:30:30.546,-0.003,0.003,1.101
2026/05/14 10:30:30.566,0.097,0.029,1.13
2026/05/14 10:30:30.586,0.336,0.216,2.107
2026/05/14 10:30:30.607,-0.093,0.009,0.902
2026/05/14 10:30:30.627,-0.028,0.022,0.96
2026/05/14 10:30:30.647,-0.043,0.023,0.979
2026/05/14 10:30:30.668,-0.007,0.042,1.06
2026/05/14 10:30:30.688,0.017,0.037,1.148
2026/05/14 10:30:30.708,0.086,-0.036,1.098
2026/05/14 10:30:30.728,-0.011,0.014,1.0
2026/05/14 10:30:30.749,-0.017,0.008,1.008
2026/05/14 10:30:30.769,-0.025,0.006,0.987
2026/05/14 10:30:30.789,-0.012,0.018,1.012
2026/05/14 10:30:30.810,-0.007,0.021,1.007
2026/05/14 10:30:30.830,-0.016,0.019,0.999
2026/05/14 10:30:30.850,-0.018,0.011,1.003
2026/05/14 10:30:30.870,0.044,0.042,1.216
2026/05/14 10:30:30.891,-0.08,-0.03,0.848
2026/05/14 10:30:30.911,-0.035,-0.009,0.95
2026/05/14 10:30:30.931,-0.056,-0.006,0.93
2026/05/14 10:30:30.952,-0.018,0.015,0.995
2026/05/14 10:30:30.972,0.061,0.06,1.268
2026/05/14 10:30:30.992,0.015,0.034,1.084
2026/05/14 10:30:31.012,-0.029,0.018,1.015
2026/05/14 10:30:31.033,-0.053,0.011,0.982
2026/05/14 10:30:31.053,0.099,0.091,1.406
2026/05/14 10:30:31.073,0.015,0.028,1.03
2026/05/14 10:30:31.094,0.005,0.019,1.027
2026/05/14 10:30:31.114,-0.012,0.011,0.984
2026/05/14 10:30:31.134,-0.007,0.019,1.002
2026/05/14 10:30:31.155,-0.011,0.021,1.007
2026/05/14 10:30:31.175,-0.018,0.019,1.007
2026/05/14 10:30:31.195,-0.007,0.013,0.982
2026/05/14 10:30:31.215,-0.025,0.013,1.01
2026/05/14 10:30:31.236,-0.024,0.013,0.978
2026/05/14 10:30:31.256,-0.011,0.013,0.996
2026/05/14 10:30:31.276,-0.016,0.011,0.997
2026/05/14 10:30:31.297,-0.027,-0.01,0.957
2026/05/14 10:30:31.317,0.031,0.039,1.111
2026/05/14 10:30:31.337,0.026,0.029,1.078
2026/05/14 10:30:31.357,-0.009,0.029,1.026
2026/05/14 10:30:31.378,-0.026,0.014,0.998
2026/05/14 10:30:31.398,-0.025,0.011,0.983
2026/05/14 10:30:31.418,-0.065,0.002,0.915
2026/05/14 10:30:31.439,-0.025,0.023,0.994
2026/05/14 10:30:31.459,-0.019,0.017,1.018
2026/05/14 10:30:31.479,-0.042,0.004,0.97
2026/05/14 10:30:31.499,-0.003,0.026,1.073
2026/05/14 10:30:31.520,-0.029,0.015,1.019
2026/05/14 10:30:31.540,-0.042,0.008,1.027
2026/05/14 10:30:31.560,-0.022,0.016,1.026
2026/05/14 10:30:31.581,-0.001,0.025,1.034
2026/05/14 10:30:31.601,-0.01,0.033,1.035
2026/05/14 10:30:31.621,-0.017,0.028,1.016
2026/05/14 10:30:31.642,-0.019,0.016,0.984
2026/05/14 10:30:31.662,-0.027,0.008,0.998
2026/05/14 10:30:31.682,-0.011,0.01,1.014
2026/05/14 10:30:31.702,-0.012,0.011,1.013
2026/05/14 10:30:31.723,-0.068,-0.032,0.936
2026/05/14 10:30:31.743,0.095,0.047,1.162
2026/05/14 10:30:31.763,-0.101,-0.031,0.812
2026/05/14 10:30:31.784,0.089,0.053,1.135
2026/05/14 10:30:31.804,-0.025,0.008,0.981
2026/05/14 10:30:31.824,-0.009,0.014,1.02
2026/05/14 10:30:31.844,-0.014,0.009,1.008
2026/05/14 10:30:31.865,-0.018,0.012,0.995
2026/05/14 10:30:31.885,-0.039,0.02,1.004
2026/05/14 10:30:31.905,-0.012,0.02,1.003
2026/05/14 10:30:31.926,-0.009,0.021,1.001
2026/05/14 10:30:31.946,-0.013,0.022,0.998
2026/05/14 10:30:31.966,-0.012,0.023,1.007
2026/05/14 10:30:31.986,-0.019,0.019,1.005
2026/05/14 10:30:32.007,-0.085,0.033,1.1
2026/05/14 10:30:32.027,0.061,0.079,1.089
2026/05/14 10:30:32.047,-0.071,-0.014,0.897
2026/05/14 10:30:32.068,-0.015,0.011,0.987
2026/05/14 10:30:32.088,-0.011,0.006,1.025
2026/05/14 10:30:32.108,-0.001,0.019,1.025
2026/05/14 10:30:32.129,0.001,0.028,1.004
2026/05/14 10:30:32.149,-0.083,0.018,0.973
2026/05/14 10:30:32.169,-0.083,-0.009,0.878
2026/05/14 10:30:32.189,-0.074,-0.025,0.96
2026/05/14 10:30:32.210,0.163,0.075,1.25
2026/05/14 10:30:32.230,-0.012,0.017,0.986
2026/05/14 10:30:32.250,-0.005,0.022,1.019
2026/05/14 10:30:32.271,-0.013,0.02,1.004
2026/05/14 10:30:32.291,-0.009,0.019,0.998
2026/05/14 10:30:32.311,-0.011,0.02,0.992
2026/05/14 10:30:32.331,-0.041,-0.004,0.911
2026/05/14 10:30:32.352,-0.071,0.021,0.921
2026/05/14 10:30:32.372,-0.005,0.023,1.031
2026/05/14 10:30:32.392,-0.016,0.015,1.001
2026/05/14 10:30:32.413,0.007,0.019,1.051
2026/05/14 10:30:32.433,-0.014,0.017,1.001
2026/05/14 10:30:32.453,-0.013,0.018,1.002
2026/05/14 10:30:32.473,0.074,0.048,1.089
2026/05/14 10:30:32.494,-0.02,0.019,0.998
2026/05/14 10:30:32.514,0.004,0.024,1.042
2026/05/14 10:30:32.534,-0.02,0.016,1.0
2026/05/14 10:30:32.555,-0.013,0.017,1.004
2026/05/14 10:30:32.575,-0.006,0.016,1.012
2026/05/14 10:30:32.595,0.043,0.051,1.07
2026/05/14 10:30:32.615,-0.077,0.0,0.923
2026/05/14 10:30:32.636,-0.066,-0.032,0.844
2026/05/14 10:30:32.656,-0.015,0.01,0.972
2026/05/14 10:30:32.676,-0.053,-0.023,0.618
2026/05/14 10:30:32.697,0.013,0.04,1.039
2026/05/14 10:30:32.717,0.02,0.015,1.065
2026/05/14 10:30:32.737,0.057,0.048,1.068
2026/05/14 10:30:32.758,-0.039,-0.022,0.926
2026/05/14 10:30:32.778,0.019,0.006,1.009
2026/05/14 10:30:32.798,-0.017,0.069,1.023
2026/05/14 10:30:32.818,-0.026,0.047,0.977
2026/05/14 10:30:32.839,0.02,0.044,1.072
2026/05/14 10:30:32.859,0.0,0.012,1.03
2026/05/14 10:30:32.879,-0.033,0.012,1.008
2026/05/14 10:30:32.900,-0.011,0.015,0.995
2026/05/14 10:30:32.920,-0.011,0.015,1.003
2026/05/14 10:30:32.940,-0.01,0.017,1.008
2026/05/14 10:30:32.960,-0.011,0.02,1.005
2026/05/14 10:30:32.981,0.003,0.053,1.004
2026/05/14 10:30:33.001,-0.002,0.048,1.077
2026/05/14 10:30:33.021,-0.015,0.033,0.982
2026/05/14 10:30:33.042,0.003,0.022,0.999
2026/05/14 10:30:33.062,-0.009,0.009,1.006
2026/05/14 10:30:33.082,-0.005,0.005,1.008
2026/05/14 10:30:33.102,0.025,0.023,1.031
2026/05/14 10:30:33.123,-0.084,0.0,0.956
2026/05/14 10:30:33.143,-0.014,0.024,0.997
2026/05/14 10:30:33.163,0.227,0.15,1.653
2026/05/14 10:30:33.184,-0.054,0.015,1.025
2026/05/14 10:30:33.204,-0.088,-0.005,0.915
2026/05/14 10:30:33.224,-0.09,0.01,0.926
2026/05/14 10:30:33.245,-0.009,0.045,1.067
2026/05/14 10:30:33.265,-0.022,0.032,1.002
2026/05/14 10:30:33.285,-0.011,0.02,0.996
2026/05/14 10:30:33.305,-0.049,-0.003,0.922
2026/05/14 10:30:33.326,-0.004,0.009,1.006
2026/05/14 10:30:33.346,0.0,0.015,1.001
2026/05/14 10:30:33.366,-0.004,0.01,0.98
2026/05/14 10:30:33.387,-0.011,0.006,1.004
2026/05/14 10:30:33.407,-0.038,-0.001,0.952
2026/05/14 10:30:33.427,-0.014,0.01,1.0
2026/05/14 10:30:33.447,-0.012,0.02,1.001
2026/05/14 10:30:33.468,-0.017,0.026,0.993
2026/05/14 10:30:33.488,-0.018,0.018,0.972
2026/05/14 10:30:33.508,-0.024,0.021,1.003
2026/05/14 10:30:33.529,-0.022,0.017,0.999
2026/05/14 10:30:33.549,-0.025,0.012,0.993
2026/05/14 10:30:33.569,-0.027,0.006,0.979
2026/05/14 10:30:33.589,0.01,0.024,1.038
2026/05/14 10:30:33.610,-0.028,0.013,0.99
2026/05/14 10:30:33.630,-0.009,0.015,1.012
2026/05/14 10:30:33.650,-0.003,0.01,1.001
2026/05/14 10:30:33.671,-0.009,0.028,0.997
2026/05/14 10:30:33.691,-0.012,0.0,0.987
2026/05/14 10:30:33.711,0.162,0.117,1.07
2026/05/14 10:30:33.732,0.152,0.092,1.311
2026/05/14 10:30:33.752,-0.035,0.019,0.954
2026/05/14 10:30:33.772,-0.009,0.024,1.001
2026/05/14 10:30:33.792,-0.033,0.078,1.086
2026/05/14 10:30:33.813,-0.012,0.018,1.006
2026/05/14 10:30:33.833,-0.015,0.016,1.006
2026/05/14 10:30:33.853,-0.014,0.017,1.002
2026/05/14 10:30:33.874,-0.011,0.021,1.026
2026/05/14 10:30:33.894,-0.006,0.016,1.014
2026/05/14 10:30:33.914,-0.029,0.007,0.965
2026/05/14 10:30:33.934,-0.009,0.015,1.005
2026/05/14 10:30:33.955,-0.03,0.001,0.949
2026/05/14 10:30:33.975,-0.019,0.021,1.002
2026/05/14 10:30:33.995,-0.01,0.023,1.001
2026/05/14 10:30:34.016,-0.03,-0.026,0.914
2026/05/14 10:30:34.036,-0.021,0.001,1.096
2026/05/14 10:30:34.056,-0.007,0.027,1.022
2026/05/14 10:30:34.077,-0.017,0.017,0.999
2026/05/14 10:30:34.097,-0.018,0.013,1.001
2026/05/14 10:30:34.117,-0.013,0.015,1.01
2026/05/14 10:30:34.137,-0.01,0.012,1.003
2026/05/14 10:30:34.158,-0.013,0.017,1.014
2026/05/14 10:30:34.178,0.002,0.021,1.048
2026/05/14 10:30:34.198,-0.007,0.015,1.006
2026/05/14 10:30:34.219,-0.01,0.019,1.008
2026/05/14 10:30:34.239,-0.018,0.018,1.009
2026/05/14 10:30:34.259,-0.012,0.012,1.007
2026/05/14 10:30:34.279,-0.01,0.02,1.007
2026/05/14 10:30:34.300,0.008,0.046,1.107
2026/05/14 10:30:34.320,-0.013,0.012,0.965
2026/05/14 10:30:34.340,-0.015,0.027,1.025
2026/05/14 10:30:34.361,-0.081,-0.019,0.854
2026/05/14 10:30:34.381,-0.033,0.01,1.02
2026/05/14 10:30:34.401,-0.177,-0.07,0.85
2026/05/14 10:30:34.422,0.045,0.05,1.135
2026/05/14 10:30:34.442,0.009,0.039,1.055
2026/05/14 10:30:34.462,0.009,0.05,1.142
2026/05/14 10:30:34.482,-0.049,-0.01,0.975
2026/05/14 10:30:34.503,0.009,0.008,1.007
2026/05/14 10:30:34.523,-0.005,-0.005,0.996
2026/05/14 10:30:34.543,-0.026,0.001,0.985
2026/05/14 10:30:34.564,0.024,0.046,1.084
2026/05/14 10:30:34.584,-0.006,0.025,1.004
2026/05/14 10:30:34.604,-0.003,0.023,1.003
2026/05/14 10:30:34.624,-0.022,0.021,1.013
2026/05/14 10:30:34.645,-0.018,0.021,1.009
2026/05/14 10:30:34.665,-0.015,0.021,1.007
2026/05/14 10:30:34.685,-0.017,0.018,0.998
2026/05/14 10:30:34.706,-0.013,0.02,1.004
2026/05/14 10:30:34.726,-0.01,0.018,1.006
2026/05/14 10:30:34.746,-0.014,0.019,1.006
2026/05/14 10:30:34.766,-0.011,0.021,1.002
2026/05/14 10:30:34.787,0.087,0.057,1.147
2026/05/14 10:30:34.807,-0.037,-0.003,0.972
2026/05/14 10:30:34.827,-0.004,0.022,1.01
2026/05/14 10:30:34.848,-0.012,0.015,1.002
2026/05/14 10:30:34.868,0.04,0.042,1.13
2026/05/14 10:30:34.888,-0.044,0.011,1.013
2026/05/14 10:30:34.909,-0.01,0.019,1.004
2026/05/14 10:30:34.929,0.001,0.026,1.003
2026/05/14 10:30:34.949,0.003,0.025,0.997
2026/05/14 10:30:34.969,-0.012,0.019,1.004
2026/05/14 10:30:34.990,-0.014,0.014,1.002
2026/05/14 10:30:35.010,-0.002,0.03,1.018
2026/05/14 10:30:35.030,-0.044,0.026,0.969
2026/05/14 10:30:35.051,0.039,0.03,1.05
2026/05/14 10:30:35.071,-0.099,-0.033,0.811
2026/05/14 10:30:35.091,0.019,0.034,0.943
2026/05/14 10:30:35.111,-0.019,0.038,1.027
2026/05/14 10:30:35.132,0.031,0.048,1.076
2026/05/14 10:30:35.152,-0.022,0.017,1.016
2026/05/14 10:30:35.172,-0.01,0.017,0.955
2026/05/14 10:30:35.193,-0.005,0.012,0.962
2026/05/14 10:30:35.213,-0.002,0.018,0.966
2026/05/14 10:30:35.233,-0.005,0.024,0.983
2026/05/14 10:30:35.254,-0.007,0.019,0.992
2026/05/14 10:30:35.274,-0.014,0.023,0.991
2026/05/14 10:30:35.294,-0.004,0.01,0.998
