Timestamp,ACC X,ACC Y,ACC Z
2026/05/14 10:32:23.872,0.001,-0.041,0.992
2026/05/14 10:32:23.891,0.001,-0.04,0.994
2026/05/14 10:32:23.911,0.005,-0.045,0.99
2026/05/14 10:32:23.930,0.001,-0.04,0.992
2026/05/14 10:32:23.949,0.004,-0.041,0.995
2026/05/14 10:32:23.968,0.0,-0.042,0.989
2026/05/14 10:32:23.988,0.003,-0.042,0.991
2026/05/14 10:32:24.007,0.002,-0.044,0.991
2026/05/14 10:32:24.026,0.006,-0.043,0.989
2026/05/14 10:32:24.045,0.001,-0.04,0.995
2026/05/14 10:32:24.065,0.002,-0.044,0.993
2026/05/14 10:32:24.084,0.002,-0.041,0.994
2026/05/14 10:32:24.103,0.0,-0.047,0.993
2026/05/14 10:32:24.122,0.002,-0.041,0.992
2026/05/14 10:32:24.141,0.005,-0.042,0.992
2026/05/14 10:32:24.161,0.005,-0.04,0.991
2026/05/14 10:32:24.180,0.001,-0.043,0.994
2026/05/14 10:32:24.199,0.0,-0.039,0.993
2026/05/14 10:32:24.218,-0.002,-0.04,0.993
2026/05/14 10:32:24.238,0.002,-0.042,0.995
2026/05/14 10:32:24.257,-0.001,-0.043,0.99
2026/05/14 10:32:24.276,0.001,-0.041,0.99
2026/05/14 10:32:24.295,0.001,-0.043,0.99
2026/05/14 10:32:24.315,0.006,-0.043,0.99
2026/05/14 10:32:24.334,0.001,-0.043,0.992
2026/05/14 10:32:24.353,0.007,-0.043,0.994
2026/05/14 10:32:24.372,0.005,-0.038,0.994
2026/05/14 10:32:24.391,0.001,-0.043,0.992
2026/05/14 10:32:24.411,0.004,-0.045,0.996
2026/05/14 10:32:24.430,0.0,-0.045,0.991
2026/05/14 10:32:24.449,-0.001,-0.046,0.996
2026/05/14 10:32:24.468,0.002,-0.043,0.994
2026/05/14 10:32:24.488,0.0,-0.038,0.993
2026/05/14 10:32:24.507,0.0,-0.042,0.992
2026/05/14 10:32:24.526,0.003,-0.042,0.993
2026/05/14 10:32:24.545,0.0,-0.044,0.992
2026/05/14 10:32:24.565,0.001,-0.044,0.993
2026/05/14 10:32:24.584,0.001,-0.041,0.991
2026/05/14 10:32:24.603,0.003,-0.044,0.993
2026/05/14 10:32:24.622,0.003,-0.043,0.987
2026/05/14 10:32:24.641,0.003,-0.045,0.989
2026/05/14 10:32:24.661,0.004,-0.047,0.991
2026/05/14 10:32:24.680,-0.004,-0.045,0.993
2026/05/14 10:32:24.699,0.003,-0.043,0.99
2026/05/14 10:32:24.718,0.003,-0.043,0.991
2026/05/14 10:32:24.738,-0.001,-0.045,0.996
2026/05/14 10:32:24.757,0.001,-0.045,0.992
2026/05/14 10:32:24.776,0.006,-0.044,0.99
2026/05/14 10:32:24.795,-0.003,-0.043,0.993
2026/05/14 10:32:24.815,0.001,-0.039,0.991
2026/05/14 10:32:24.834,0.0,-0.041,0.995
2026/05/14 10:32:24.853,0.005,-0.044,0.996
2026/05/14 10:32:24.872,0.002,-0.043,0.994
2026/05/14 10:32:24.891,0.002,-0.038,0.987
2026/05/14 10:32:24.911,0.004,-0.046,0.994
2026/05/14 10:32:24.930,0.006,-0.041,0.993
2026/05/14 10:32:24.949,0.003,-0.044,0.994
2026/05/14 10:32:24.968,-0.001,-0.041,0.994
2026/05/14 10:32:24.988,0.004,-0.043,0.991
2026/05/14 10:32:25.007,0.001,-0.045,0.991
2026/05/14 10:32:25.026,0.0,-0.043,0.994
2026/05/14 10:32:25.045,0.002,-0.045,0.993
2026/05/14 10:32:25.065,0.003,-0.043,0.993
2026/05/14 10:32:25.084,0.0,-0.039,0.994
2026/05/14 10:32:25.103,0.003,-0.042,0.992
2026/05/14 10:32:25.122,0.001,-0.042,0.992
2026/05/14 10:32:25.141,0.002,-0.044,0.994
2026/05/14 10:32:25.161,0.002,-0.042,0.994
2026/05/14 10:32:25.180,0.002,-0.042,0.994
2026/05/14 10:32:25.199,0.002,-0.043,0.992
2026/05/14 10:32:25.218,0.002,-0.044,0.995
2026/05/14 10:32:25.238,0.003,-0.041,0.99
2026/05/14 10:32:25.257,0.004,-0.047,0.995
2026/05/14 10:32:25.276,0.005,-0.045,0.992
2026/05/14 10:32:25.295,0.004,-0.04,0.992
2026/05/14 10:32:25.315,-0.003,-0.043,0.992
2026/05/14 10:32:25.334,0.001,-0.04,0.992
2026/05/14 10:32:25.353,0.004,-0.041,0.989
2026/05/14 10:32:25.372,0.0,-0.041,0.996
2026/05/14 10:32:25.391,0.001,-0.042,0.992
2026/05/14 10:32:25.411,0.005,-0.044,0.992
2026/05/14 10:32:25.430,0.004,-0.044,0.992
2026/05/14 10:32:25.449,0.002,-0.044,0.991
2026/05/14 10:32:25.468,0.003,-0.043,0.99
2026/05/14 10:32:25.488,0.0,-0.043,0.994
2026/05/14 10:32:25.507,0.0,-0.043,0.996
2026/05/14 10:32:25.526,0.004,-0.041,0.987
2026/05/14 10:32:25.545,0.004,-0.043,0.995
2026/05/14 10:32:25.565,0.005,-0.035,0.992
2026/05/14 10:32:25.584,0.002,-0.042,0.989
2026/05/14 10:32:25.603,0.0,-0.043,0.995
2026/05/14 10:32:25.622,0.001,-0.04,0.991
2026/05/14 10:32:25.641,0.005,-0.047,0.992
2026/05/14 10:32:25.661,0.007,-0.041,0.99
2026/05/14 10:32:25.680,0.004,-0.043,0.993
2026/05/14 10:32:25.699,0.003,-0.042,0.993
2026/05/14 10:32:25.718,0.0,-0.041,0.992
2026/05/14 10:32:25.738,0.003,-0.042,0.994
2026/05/14 10:32:25.757,0.005,-0.043,0.991
2026/05/14 10:32:25.776,0.0,-0.041,0.99
2026/05/14 10:32:25.795,0.004,-0.041,0.998
2026/05/14 10:32:25.815,0.001,-0.043,0.992
2026/05/14 10:32:25.834,0.003,-0.04,0.992
2026/05/14 10:32:25.853,0.001,-0.043,0.993
2026/05/14 10:32:25.872,0.004,-0.04,0.989
2026/05/14 10:32:25.891,0.004,-0.041,0.998
2026/05/14 10:32:25.911,0.003,-0.041,0.995
2026/05/14 10:32:25.930,0.001,-0.04,0.997
2026/05/14 10:32:25.949,0.003,-0.042,0.994
2026/05/14 10:32:25.968,0.002,-0.043,0.994
2026/05/14 10:32:25.988,0.005,-0.043,0.99
2026/05/14 10:32:26.007,0.004,-0.045,0.994
2026/05/14 10:32:26.026,0.004,-0.043,0.992
2026/05/14 10:32:26.045,0.003,-0.044,0.991
2026/05/14 10:32:26.065,0.005,-0.043,0.993
2026/05/14 10:32:26.084,0.004,-0.041,0.992
2026/05/14 10:32:26.103,0.001,-0.043,0.997
2026/05/14 10:32:26.122,0.002,-0.043,0.993
2026/05/14 10:32:26.141,0.002,-0.043,0.994
2026/05/14 10:32:26.161,0.003,-0.043,0.994
2026/05/14 10:32:26.180,0.005,-0.041,0.992
2026/05/14 10:32:26.199,0.003,-0.041,0.995
2026/05/14 10:32:26.218,0.003,-0.046,0.991
2026/05/14 10:32:26.238,0.004,-0.041,0.997
2026/05/14 10:32:26.257,0.003,-0.043,0.991
2026/05/14 10:32:26.276,0.002,-0.052,0.994
2026/05/14 10:32:26.295,0.007,-0.04,0.994
2026/05/14 10:32:26.315,0.001,-0.042,0.99
2026/05/14 10:32:26.334,0.005,-0.041,0.994
2026/05/14 10:32:26.353,0.003,-0.045,0.993
2026/05/14 10:32:26.372,0.005,-0.041,0.99
2026/05/14 10:32:26.391,0.004,-0.044,0.989
2026/05/14 10:32:26.411,0.001,-0.04,0.994
2026/05/14 10:32:26.431,0.002,-0.043,0.987
2026/05/14 10:32:26.451,0.004,-0.044,0.995
2026/05/14 10:32:26.470,0.001,-0.043,0.995
2026/05/14 10:32:26.490,-0.001,-0.047,0.994
2026/05/14 10:32:26.510,0.001,-0.044,0.992
2026/05/14 10:32:26.530,0.002,-0.042,0.989
2026/05/14 10:32:26.550,0.001,-0.043,0.99
2026/05/14 10:32:26.570,0.001,-0.042,0.995
2026/05/14 10:32:26.590,0.002,-0.042,0.99
2026/05/14 10:32:26.610,0.005,-0.041,0.994
2026/05/14 10:32:26.630,0.007,-0.04,0.992
2026/05/14 10:32:26.650,0.003,-0.044,0.992
2026/05/14 10:32:26.670,0.002,-0.044,0.996
2026/05/14 10:32:26.689,0.003,-0.044,0.993
2026/05/14 10:32:26.709,0.004,-0.043,0.994
2026/05/14 10:32:26.729,0.003,-0.043,0.991
2026/05/14 10:32:26.749,0.002,-0.042,0.992
2026/05/14 10:32:26.769,0.004,-0.042,0.994
2026/05/14 10:32:26.789,-0.002,-0.043,0.99
2026/05/14 10:32:26.809,0.0,-0.04,0.992
2026/05/14 10:32:26.829,0.004,-0.038,0.994
2026/05/14 10:32:26.849,0.001,-0.045,0.991
2026/05/14 10:32:26.869,0.002,-0.043,0.991
2026/05/14 10:32:26.889,0.001,-0.04,0.995
2026/05/14 10:32:26.909,0.001,-0.04,0.992
2026/05/14 10:32:26.928,0.001,-0.044,0.995
2026/05/14 10:32:26.948,0.004,-0.042,0.99
2026/05/14 10:32:26.968,0.002,-0.04,0.996
2026/05/14 10:32:26.988,0.003,-0.041,0.992
2026/05/14 10:32:27.008,0.003,-0.047,0.994
2026/05/14 10:32:27.028,0.002,-0.043,0.991
2026/05/14 10:32:27.048,0.005,-0.042,0.994
2026/05/14 10:32:27.068,0.001,-0.041,0.994
2026/05/14 10:32:27.088,0.003,-0.042,0.992
2026/05/14 10:32:27.108,-0.001,-0.042,0.994
2026/05/14 10:32:27.128,0.003,-0.045,0.993
2026/05/14 10:32:27.148,0.001,-0.041,0.992
2026/05/14 10:32:27.167,0.004,-0.044,0.992
2026/05/14 10:32:27.187,0.002,-0.043,0.994
2026/05/14 10:32:27.207,0.003,-0.039,0.992
2026/05/14 10:32:27.227,0.006,-0.041,0.994
2026/05/14 10:32:27.247,0.005,-0.043,0.993
2026/05/14 10:32:27.267,0.003,-0.044,0.992
2026/05/14 10:32:27.287,0.001,-0.044,0.993
2026/05/14 10:32:27.307,0.004,-0.043,0.995
2026/05/14 10:32:27.327,0.003,-0.044,0.991
2026/05/14 10:32:27.347,0.005,-0.041,0.991
2026/05/14 10:32:27.367,-0.001,-0.046,0.996
2026/05/14 10:32:27.386,0.004,-0.04,0.989
2026/05/14 10:32:27.406,0.001,-0.041,0.991
2026/05/14 10:32:27.426,0.003,-0.045,0.993
2026/05/14 10:32:27.446,0.003,-0.043,0.988
2026/05/14 10:32:27.466,0.0,-0.042,0.992
2026/05/14 10:32:27.486,0.005,-0.041,0.995
2026/05/14 10:32:27.506,0.001,-0.04,0.991
2026/05/14 10:32:27.526,0.0,-0.045,0.99
2026/05/14 10:32:27.546,0.001,-0.04,0.994
2026/05/14 10:32:27.566,0.002,-0.044,0.989
2026/05/14 10:32:27.586,0.004,-0.042,0.994
2026/05/14 10:32:27.606,-0.001,-0.041,0.992
2026/05/14 10:32:27.625,-0.001,-0.041,0.99
2026/05/14 10:32:27.645,0.004,-0.043,0.991
2026/05/14 10:32:27.665,0.001,-0.044,0.991
2026/05/14 10:32:27.685,0.004,-0.043,0.994
2026/05/14 10:32:27.705,0.004,-0.045,0.991
2026/05/14 10:32:27.725,0.002,-0.04,0.998
2026/05/14 10:32:27.745,0.002,-0.038,0.993
2026/05/14 10:32:27.765,0.0,-0.041,0.993
2026/05/14 10:32:27.785,0.003,-0.041,0.992
2026/05/14 10:32:27.805,0.001,-0.043,0.991
2026/05/14 10:32:27.825,0.002,-0.045,0.992
2026/05/14 10:32:27.845,0.003,-0.043,0.995
2026/05/14 10:32:27.864,0.002,-0.042,0.993
2026/05/14 10:32:27.884,0.004,-0.042,0.991
2026/05/14 10:32:27.904,-0.002,-0.044,0.992
2026/05/14 10:32:27.924,0.005,-0.04,0.994
2026/05/14 10:32:27.944,-0.001,-0.04,0.994
2026/05/14 10:32:27.964,0.003,-0.042,0.99
2026/05/14 10:32:27.984,0.001,-0.043,0.991
2026/05/14 10:32:28.004,0.001,-0.039,0.988
2026/05/14 10:32:28.024,0.0,-0.044,0.997
2026/05/14 10:32:28.044,0.002,-0.041,0.992
2026/05/14 10:32:28.064,0.002,-0.042,0.99
2026/05/14 10:32:28.083,0.005,-0.04,0.992
2026/05/14 10:32:28.103,0.005,-0.043,0.998
2026/05/14 10:32:28.123,0.001,-0.044,0.993
2026/05/14 10:32:28.143,-0.001,-0.043,0.992
2026/05/14 10:32:28.163,0.006,-0.038,0.992
2026/05/14 10:32:28.183,0.003,-0.043,0.99
2026/05/14 10:32:28.203,0.001,-0.041,0.993
2026/05/14 10:32:28.223,0.001,-0.043,0.994
2026/05/14 10:32:28.243,0.002,-0.04,0.99
2026/05/14 10:32:28.263,0.002,-0.044,0.992
2026/05/14 10:32:28.283,0.006,-0.04,0.992
2026/05/14 10:32:28.303,0.003,-0.046,0.996
2026/05/14 10:32:28.322,0.002,-0.047,0.993
2026/05/14 10:32:28.342,-0.001,-0.041,0.994
2026/05/14 10:32:28.362,0.003,-0.045,0.998
2026/05/14 10:32:28.382,0.003,-0.042,0.994
2026/05/14 10:32:28.402,0.003,-0.043,0.994
2026/05/14 10:32:28.422,0.003,-0.045,0.992
2026/05/14 10:32:28.442,0.001,-0.041,0.99
2026/05/14 10:32:28.462,0.003,-0.041,0.993
2026/05/14 10:32:28.482,0.004,-0.041,0.995
2026/05/14 10:32:28.502,0.005,-0.043,0.992
2026/05/14 10:32:28.522,0.005,-0.041,0.996
2026/05/14 10:32:28.542,0.004,-0.044,0.993
2026/05/14 10:32:28.561,0.005,-0.042,0.992
2026/05/14 10:32:28.581,0.003,-0.044,0.989
2026/05/14 10:32:28.601,0.005,-0.041,0.992
2026/05/14 10:32:28.621,0.004,-0.045,0.993
2026/05/14 10:32:28.641,0.003,-0.045,0.99
2026/05/14 10:32:28.661,0.0,-0.039,0.989
2026/05/14 10:32:28.681,0.005,-0.043,0.989
2026/05/14 10:32:28.701,0.005,-0.043,0.995
2026/05/14 10:32:28.721,0.002,-0.039,0.992
2026/05/14 10:32:28.741,0.002,-0.042,0.995
2026/05/14 10:32:28.761,0.004,-0.043,0.994
2026/05/14 10:32:28.780,0.0,-0.044,0.992
2026/05/14 10:32:28.800,0.003,-0.043,0.997
2026/05/14 10:32:28.820,0.006,-0.045,0.991
2026/05/14 10:32:28.840,0.001,-0.041,0.994
2026/05/14 10:32:28.860,0.004,-0.044,0.995
2026/05/14 10:32:28.880,0.003,-0.041,0.997
2026/05/14 10:32:28.900,0.002,-0.041,0.992
2026/05/14 10:32:28.920,0.002,-0.045,0.991
2026/05/14 10:32:28.940,0.004,-0.04,0.994
2026/05/14 10:32:28.960,0.003,-0.045,0.996
2026/05/14 10:32:28.980,0.002,-0.04,0.994
2026/05/14 10:32:29.000,0.005,-0.043,0.992
2026/05/14 10:32:29.019,0.003,-0.043,0.996
2026/05/14 10:32:29.039,0.002,-0.044,0.994
2026/05/14 10:32:29.059,0.0,-0.044,0.991
2026/05/14 10:32:29.079,0.004,-0.041,0.992
2026/05/14 10:32:29.099,0.003,-0.04,0.991
2026/05/14 10:32:29.119,0.003,-0.045,0.991
2026/05/14 10:32:29.139,0.007,-0.041,0.995
2026/05/14 10:32:29.159,0.006,-0.041,0.992
2026/05/14 10:32:29.179,0.002,-0.044,0.988
2026/05/14 10:32:29.199,0.003,-0.04,0.989
2026/05/14 10:32:29.219,0.0,-0.048,0.994
2026/05/14 10:32:29.239,-0.001,-0.046,0.991
2026/05/14 10:32:29.258,0.006,-0.041,0.99
2026/05/14 10:32:29.278,0.004,-0.042,0.991
2026/05/14 10:32:29.298,0.003,-0.042,0.993
2026/05/14 10:32:29.318,0.003,-0.045,0.992
2026/05/14 10:32:29.338,0.006,-0.043,0.993
2026/05/14 10:32:29.358,0.001,-0.042,0.992
2026/05/14 10:32:29.378,0.008,-0.05,0.991
2026/05/14 10:32:29.398,0.003,-0.044,0.991
2026/05/14 10:32:29.418,0.002,-0.044,0.993
2026/05/14 10:32:29.438,0.001,-0.043,0.991
2026/05/14 10:32:29.458,0.001,-0.046,0.996
2026/05/14 10:32:29.477,0.001,-0.041,0.991
2026/05/14 10:32:29.497,0.003,-0.046,0.991
2026/05/14 10:32:29.517,0.003,-0.042,0.992
2026/05/14 10:32:29.537,0.0,-0.041,0.992
2026/05/14 10:32:29.557,0.002,-0.044,0.993
2026/05/14 10:32:29.577,0.004,-0.041,0.991
2026/05/14 10:32:29.597,0.002,-0.043,0.988
2026/05/14 10:32:29.617,0.003,-0.042,0.993
2026/05/14 10:32:29.637,0.003,-0.043,0.99
2026/05/14 10:32:29.657,0.005,-0.046,0.99
2026/05/14 10:32:29.677,0.007,-0.043,0.995
2026/05/14 10:32:29.697,0.004,-0.041,0.997
2026/05/14 10:32:29.716,0.006,-0.043,0.995
2026/05/14 10:32:29.736,0.001,-0.04,0.99
2026/05/14 10:32:29.756,0.0,-0.043,0.992
2026/05/14 10:32:29.776,0.002,-0.04,0.994
2026/05/14 10:32:29.796,0.004,-0.043,0.993
2026/05/14 10:32:29.816,0.001,-0.04,0.992
2026/05/14 10:32:29.836,-0.001,-0.045,0.99
2026/05/14 10:32:29.856,0.004,-0.041,0.992
2026/05/14 10:32:29.876,0.003,-0.046,0.995
2026/05/14 10:32:29.896,0.003,-0.038,0.99
2026/05/14 10:32:29.916,0.0,-0.044,0.991
2026/05/14 10:32:29.935,0.005,-0.039,0.993
2026/05/14 10:32:29.955,0.003,-0.042,0.99
2026/05/14 10:32:29.975,0.002,-0.044,0.992
2026/05/14 10:32:29.995,-0.001,-0.038,0.993
2026/05/14 10:32:30.015,0.001,-0.041,0.988
2026/05/14 10:32:30.035,0.004,-0.042,0.995
2026/05/14 10:32:30.055,0.0,-0.041,0.99
2026/05/14 10:32:30.075,0.003,-0.041,0.995
2026/05/14 10:32:30.095,0.002,-0.039,0.997
2026/05/14 10:32:30.115,-0.001,-0.046,0.991
2026/05/14 10:32:30.135,0.002,-0.04,0.989
2026/05/14 10:32:30.155,0.001,-0.041,0.994
2026/05/14 10:32:30.174,0.003,-0.041,0.993
2026/05/14 10:32:30.194,0.003,-0.043,0.99
2026/05/14 10:32:30.214,0.002,-0.045,0.993
2026/05/14 10:32:30.234,0.001,-0.042,0.994
2026/05/14 10:32:30.254,0.003,-0.041,0.995
2026/05/14 10:32:30.274,0.005,-0.045,0.994
2026/05/14 10:32:30.294,0.004,-0.044,0.989
2026/05/14 10:32:30.314,0.005,-0.042,0.996
2026/05/14 10:32:30.334,0.001,-0.041,0.991
2026/05/14 10:32:30.354,0.002,-0.038,0.991
2026/05/14 10:32:30.374,0.001,-0.043,0.994
2026/05/14 10:32:30.393,0.001,-0.041,0.995
2026/05/14 10:32:30.413,0.004,-0.047,0.993
2026/05/14 10:32:30.433,0.001,-0.043,0.993
2026/05/14 10:32:30.453,0.002,-0.044,0.991
2026/05/14 10:32:30.473,0.002,-0.043,0.994
2026/05/14 10:32:30.493,0.0,-0.046,0.992
2026/05/14 10:32:30.513,0.003,-0.04,0.993
2026/05/14 10:32:30.533,0.0,-0.043,0.991
2026/05/14 10:32:30.553,0.006,-0.041,0.993
2026/05/14 10:32:30.573,0.0,-0.041,0.991
2026/05/14 10:32:30.593,0.002,-0.04,0.991
2026/05/14 10:32:30.613,0.003,-0.038,0.991
2026/05/14 10:32:30.632,0.002,-0.043,0.993
2026/05/14 10:32:30.652,0.0,-0.042,0.997
2026/05/14 10:32:30.672,0.003,-0.041,0.991
2026/05/14 10:32:30.692,0.004,-0.044,0.991
2026/05/14 10:32:30.712,0.002,-0.04,0.991
2026/05/14 10:32:30.732,0.001,-0.043,0.988
2026/05/14 10:32:30.752,0.0,-0.045,0.995
2026/05/14 10:32:30.772,0.0,-0.042,0.996
2026/05/14 10:32:30.792,0.004,-0.044,0.994
2026/05/14 10:32:30.812,0.0,-0.04,0.993
2026/05/14 10:32:30.832,0.002,-0.044,0.989
2026/05/14 10:32:30.851,0.001,-0.046,0.994
2026/05/14 10:32:30.871,0.003,-0.043,0.993
2026/05/14 10:32:30.891,0.004,-0.041,0.993
2026/05/14 10:32:30.911,0.004,-0.048,0.988
2026/05/14 10:32:30.931,0.001,-0.043,0.99
2026/05/14 10:32:30.951,0.001,-0.043,0.989
2026/05/14 10:32:30.971,0.003,-0.043,0.994
2026/05/14 10:32:30.991,0.002,-0.041,0.992
2026/05/14 10:32:31.011,0.001,-0.043,0.995
2026/05/14 10:32:31.031,0.006,-0.041,0.992
2026/05/14 10:32:31.051,0.003,-0.04,0.989
2026/05/14 10:32:31.071,0.003,-0.043,0.99
2026/05/14 10:32:31.090,0.003,-0.042,0.994
2026/05/14 10:32:31.110,0.002,-0.047,0.992
2026/05/14 10:32:31.130,0.002,-0.039,0.992
2026/05/14 10:32:31.150,0.005,-0.044,0.994
2026/05/14 10:32:31.170,0.004,-0.04,0.994
2026/05/14 10:32:31.190,0.001,-0.043,0.993
2026/05/14 10:32:31.210,0.008,-0.041,0.991
2026/05/14 10:32:31.230,0.004,-0.045,0.996
2026/05/14 10:32:31.250,0.0,-0.041,0.992
2026/05/14 10:32:31.270,0.002,-0.043,0.991
2026/05/14 10:32:31.290,0.0,-0.042,0.994
2026/05/14 10:32:31.309,0.003,-0.043,0.993
2026/05/14 10:32:31.329,0.004,-0.043,0.991
2026/05/14 10:32:31.349,0.001,-0.043,0.993
2026/05/14 10:32:31.369,0.002,-0.045,0.991
2026/05/14 10:32:31.389,0.006,-0.045,0.991
2026/05/14 10:32:31.409,0.004,-0.048,0.989
2026/05/14 10:32:31.429,0.001,-0.042,0.987
2026/05/14 10:32:31.449,0.007,-0.042,0.99
2026/05/14 10:32:31.469,0.004,-0.04,0.992
2026/05/14 10:32:31.489,0.001,-0.041,0.992
2026/05/14 10:32:31.509,0.003,-0.041,0.99
2026/05/14 10:32:31.528,0.0,-0.048,0.991
2026/05/14 10:32:31.548,0.001,-0.04,0.992
2026/05/14 10:32:31.568,0.003,-0.04,0.994
2026/05/14 10:32:31.588,0.002,-0.037,0.99
2026/05/14 10:32:31.608,0.003,-0.047,0.991
2026/05/14 10:32:31.628,0.003,-0.044,0.993
2026/05/14 10:32:31.648,0.004,-0.043,0.991
2026/05/14 10:32:31.668,0.001,-0.043,0.993
2026/05/14 10:32:31.688,0.006,-0.043,0.993
2026/05/14 10:32:31.708,0.005,-0.04,0.992
2026/05/14 10:32:31.728,0.004,-0.043,0.992
2026/05/14 10:32:31.748,0.002,-0.042,0.994
2026/05/14 10:32:31.767,0.003,-0.04,0.989
2026/05/14 10:32:31.787,0.002,-0.041,0.993
2026/05/14 10:32:31.807,0.003,-0.039,0.994
2026/05/14 10:32:31.827,0.001,-0.041,0.992
2026/05/14 10:32:31.847,0.002,-0.043,0.993
2026/05/14 10:32:31.867,-0.001,-0.044,0.993
2026/05/14 10:32:31.887,0.0,-0.044,0.987
2026/05/14 10:32:31.907,0.008,-0.044,0.996
2026/05/14 10:32:31.927,0.0,-0.045,0.997
2026/05/14 10:32:31.947,0.001,-0.046,0.993
2026/05/14 10:32:31.967,0.004,-0.043,0.995
2026/05/14 10:32:31.986,0.001,-0.044,0.995
2026/05/14 10:32:32.006,0.0,-0.044,0.991
2026/05/14 10:32:32.026,0.002,-0.041,0.993
2026/05/14 10:32:32.046,0.003,-0.043,0.994
2026/05/14 10:32:32.066,0.002,-0.04,0.992
2026/05/14 10:32:32.086,0.004,-0.044,0.994
2026/05/14 10:32:32.106,0.004,-0.038,0.992
2026/05/14 10:32:32.126,-0.001,-0.04,0.993
2026/05/14 10:32:32.146,0.002,-0.046,0.992
2026/05/14 10:32:32.166,0.002,-0.043,0.991
2026/05/14 10:32:32.186,0.0,-0.044,0.993
2026/05/14 10:32:32.206,0.003,-0.045,0.996
2026/05/14 10:32:32.225,0.003,-0.044,0.994
2026/05/14 10:32:32.245,0.003,-0.047,0.992
2026/05/14 10:32:32.265,0.005,-0.045,0.995
2026/05/14 10:32:32.285,0.004,-0.043,0.994
2026/05/14 10:32:32.305,0.002,-0.043,0.99
2026/05/14 10:32:32.325,0.004,-0.042,0.992
2026/05/14 10:32:32.345,0.004,-0.046,0.99
2026/05/14 10:32:32.365,0.004,-0.042,0.991
2026/05/14 10:32:32.385,0.004,-0.04,0.995
2026/05/14 10:32:32.405,0.005,-0.042,0.991
2026/05/14 10:32:32.425,0.001,-0.046,0.993
2026/05/14 10:32:32.444,0.003,-0.041,0.993
2026/05/14 10:32:32.464,0.003,-0.043,0.989
2026/05/14 10:32:32.484,0.002,-0.041,0.992
2026/05/14 10:32:32.504,0.002,-0.043,0.992
2026/05/14 10:32:32.524,0.001,-0.043,0.991
2026/05/14 10:32:32.544,0.0,-0.039,0.986
2026/05/14 10:32:32.564,0.003,-0.045,0.99
2026/05/14 10:32:32.584,-0.001,-0.044,0.991
2026/05/14 10:32:32.604,0.004,-0.043,0.991
2026/05/14 10:32:32.624,0.003,-0.041,0.991
2026/05/14 10:32:32.644,0.007,-0.04,0.993
2026/05/14 10:32:32.663,0.001,-0.04,0.993
2026/05/14 10:32:32.683,0.005,-0.043,0.996
2026/05/14 10:32:32.703,0.001,-0.04,0.997
2026/05/14 10:32:32.723,0.0,-0.044,0.995
2026/05/14 10:32:32.743,0.006,-0.041,0.991
2026/05/14 10:32:32.763,0.001,-0.045,0.991
2026/05/14 10:32:32.783,0.005,-0.041,0.99
2026/05/14 10:32:32.803,0.004,-0.043,0.987
2026/05/14 10:32:32.823,0.007,-0.039,0.993
2026/05/14 10:32:32.843,0.001,-0.041,0.99
2026/05/14 10:32:32.863,0.004,-0.043,0.993
2026/05/14 10:32:32.882,0.005,-0.038,0.996
2026/05/14 10:32:32.902,0.001,-0.042,0.992
2026/05/14 10:32:32.922,0.004,-0.044,0.99
2026/05/14 10:32:32.942,0.001,-0.042,0.994
2026/05/14 10:32:32.962,0.007,-0.04,0.991
2026/05/14 10:32:32.982,0.002,-0.041,0.992
2026/05/14 10:32:33.002,0.003,-0.04,0.992
2026/05/14 10:32:33.022,0.001,-0.047,0.99
2026/05/14 10:32:33.042,0.005,-0.042,0.99
2026/05/14 10:32:33.062,0.0,-0.039,0.99
2026/05/14 10:32:33.082,0.002,-0.043,0.992
2026/05/14 10:32:33.101,0.0,-0.046,0.992
2026/05/14 10:32:33.121,0.001,-0.044,0.993
2026/05/14 10:32:33.141,0.003,-0.041,0.99
2026/05/14 10:32:33.161,0.004,-0.043,0.993
2026/05/14 10:32:33.181,0.001,-0.047,0.99
2026/05/14 10:32:33.201,0.002,-0.039,0.995
2026/05/14 10:32:33.221,0.002,-0.043,0.997
2026/05/14 10:32:33.241,0.003,-0.043,0.992
2026/05/14 10:32:33.261,0.003,-0.044,0.991
2026/05/14 10:32:33.281,0.001,-0.04,0.995
2026/05/14 10:32:33.301,0.005,-0.041,0.993
2026/05/14 10:32:33.321,0.001,-0.043,0.996
2026/05/14 10:32:33.340,0.002,-0.042,0.992
2026/05/14 10:32:33.360,0.005,-0.046,0.993
2026/05/14 10:32:33.380,0.0,-0.045,0.994
2026/05/14 10:32:33.400,0.003,-0.042,0.992
2026/05/14 10:32:33.420,0.002,-0.045,0.992
2026/05/14 10:32:33.440,0.002,-0.042,0.992
2026/05/14 10:32:33.460,0.002,-0.044,0.996
2026/05/14 10:32:33.480,0.001,-0.041,0.992
2026/05/14 10:32:33.500,0.004,-0.039,0.99
2026/05/14 10:32:33.520,0.006,-0.042,0.991
2026/05/14 10:32:33.540,0.002,-0.04,0.991
2026/05/14 10:32:33.559,0.004,-0.041,0.995
2026/05/14 10:32:33.579,0.003,-0.043,0.996
2026/05/14 10:32:33.599,-0.001,-0.045,0.993
2026/05/14 10:32:33.619,0.005,-0.041,0.994
2026/05/14 10:32:33.639,0.002,-0.042,0.992
2026/05/14 10:32:33.659,0.003,-0.039,0.991
2026/05/14 10:32:33.679,0.002,-0.042,0.995
2026/05/14 10:32:33.699,0.002,-0.045,0.989
2026/05/14 10:32:33.719,0.002,-0.038,0.994
2026/05/14 10:32:33.739,0.003,-0.043,0.993
2026/05/14 10:32:33.759,0.003,-0.039,0.991
2026/05/14 10:32:33.778,0.003,-0.039,0.986
2026/05/14 10:32:33.798,0.005,-0.042,0.991
2026/05/14 10:32:33.818,0.003,-0.041,0.989
2026/05/14 10:32:33.838,0.003,-0.042,0.993
2026/05/14 10:32:33.858,0.003,-0.042,0.99
2026/05/14 10:32:33.878,0.003,-0.041,0.991
2026/05/14 10:32:33.898,0.003,-0.043,0.994
2026/05/14 10:32:33.918,0.005,-0.038,0.991
2026/05/14 10:32:33.938,0.006,-0.04,0.995
2026/05/14 10:32:33.958,0.004,-0.046,0.994
2026/05/14 10:32:33.978,0.003,-0.045,0.992
2026/05/14 10:32:33.997,0.002,-0.041,0.996
2026/05/14 10:32:34.017,0.004,-0.047,0.994
2026/05/14 10:32:34.037,0.0,-0.044,0.993
2026/05/14 10:32:34.057,0.001,-0.041,0.993
2026/05/14 10:32:34.077,0.003,-0.041,0.994
2026/05/14 10:32:34.097,0.002,-0.047,0.995
2026/05/14 10:32:34.117,0.003,-0.041,0.994
2026/05/14 10:32:34.137,0.001,-0.047,0.988
2026/05/14 10:32:34.157,0.003,-0.043,0.991
2026/05/14 10:32:34.177,0.002,-0.038,0.992
2026/05/14 10:32:34.197,0.002,-0.046,0.99
2026/05/14 10:32:34.216,0.0,-0.043,0.991
2026/05/14 10:32:34.236,0.005,-0.044,0.994
2026/05/14 10:32:34.256,0.001,-0.041,0.992
2026/05/14 10:32:34.276,0.003,-0.044,0.994
2026/05/14 10:32:34.296,0.003,-0.047,0.993
2026/05/14 10:32:34.316,0.005,-0.043,0.992
2026/05/14 10:32:34.336,0.004,-0.043,0.991
2026/05/14 10:32:34.356,0.004,-0.045,0.99
2026/05/14 10:32:34.376,0.004,-0.042,0.988
2026/05/14 10:32:34.396,0.002,-0.045,0.992
2026/05/14 10:32:34.416,0.007,-0.042,0.995
2026/05/14 10:32:34.436,0.004,-0.044,0.988
2026/05/14 10:32:34.455,0.003,-0.042,0.995
2026/05/14 10:32:34.475,0.003,-0.044,0.989
2026/05/14 10:32:34.495,0.0,-0.039,0.993
2026/05/14 10:32:34.515,0.0,-0.042,0.988
2026/05/14 10:32:34.535,0.007,-0.043,0.991
2026/05/14 10:32:34.555,0.003,-0.043,0.99
2026/05/14 10:32:34.575,0.006,-0.043,0.994
2026/05/14 10:32:34.595,0.002,-0.043,0.992
2026/05/14 10:32:34.615,0.002,-0.042,0.991
2026/05/14 10:32:34.635,0.001,-0.04,0.993
2026/05/14 10:32:34.655,-0.001,-0.046,0.99
2026/05/14 10:32:34.674,0.002,-0.04,0.996
2026/05/14 10:32:34.694,0.004,-0.043,0.991
2026/05/14 10:32:34.714,0.002,-0.045,0.991
2026/05/14 10:32:34.734,0.003,-0.047,0.991
2026/05/14 10:32:34.754,0.003,-0.049,0.993
2026/05/14 10:32:34.774,0.004,-0.04,0.992
2026/05/14 10:32:34.794,0.003,-0.043,0.992
2026/05/14 10:32:34.814,0.003,-0.047,0.993
2026/05/14 10:32:34.834,0.001,-0.044,0.992
2026/05/14 10:32:34.854,0.002,-0.042,0.991
2026/05/14 10:32:34.874,0.001,-0.044,0.994
2026/05/14 10:32:34.893,0.002,-0.044,0.991
2026/05/14 10:32:34.913,0.004,-0.044,0.995
2026/05/14 10:32:34.933,0.0,-0.044,0.994
2026/05/14 10:32:34.953,0.002,-0.04,0.99
2026/05/14 10:32:34.973,0.006,-0.04,0.993
2026/05/14 10:32:34.993,-0.001,-0.04,0.993
2026/05/14 10:32:35.013,0.005,-0.04,0.992
2026/05/14 10:32:35.033,0.0,-0.043,0.992
2026/05/14 10:32:35.053,0.002,-0.038,0.992
2026/05/14 10:32:35.073,0.0,-0.045,0.993
2026/05/14 10:32:35.093,0.0,-0.043,0.991
2026/05/14 10:32:35.112,-0.003,-0.044,0.993
2026/05/14 10:32:35.132,-0.002,-0.046,0.992
2026/05/14 10:32:35.152,-0.005,-0.041,0.988
2026/05/14 10:32:35.172,0.001,-0.04,0.994
2026/05/14 10:32:35.192,0.003,-0.038,0.994
2026/05/14 10:32:35.212,0.008,-0.036,0.989
2026/05/14 10:32:35.232,0.014,-0.039,0.989
2026/05/14 10:32:35.252,0.011,-0.046,0.995
2026/05/14 10:32:35.272,0.009,-0.05,0.996
2026/05/14 10:32:35.292,0.007,-0.05,0.993
2026/05/14 10:32:35.312,0.001,-0.049,0.99
2026/05/14 10:32:35.332,0.004,-0.044,0.986
2026/05/14 10:32:35.351,0.006,-0.036,0.991
2026/05/14 10:32:35.371,0.006,-0.034,0.989
2026/05/14 10:32:35.391,0.003,-0.035,0.992
2026/05/14 10:32:35.411,0.003,-0.044,0.993
2026/05/14 10:32:35.431,0.0,-0.047,0.992
2026/05/14 10:32:35.451,-0.002,-0.047,0.99
2026/05/14 10:32:35.471,0.001,-0.046,0.99
2026/05/14 10:32:35.491,0.003,-0.046,0.989
2026/05/14 10:32:35.511,-0.157,-0.02,0.779
2026/05/14 10:32:35.531,-0.081,0.102,0.782
2026/05/14 10:32:35.551,0.181,-0.163,0.978
2026/05/14 10:32:35.570,0.094,-0.134,1.326
2026/05/14 10:32:35.590,-0.063,-0.069,0.765
2026/05/14 10:32:35.610,-0.004,-0.068,1.056
2026/05/14 10:32:35.630,0.004,-0.059,0.981
2026/05/14 10:32:35.650,0.019,-0.029,0.972
2026/05/14 10:32:35.670,0.003,-0.03,0.972
2026/05/14 10:32:35.690,0.022,-0.029,1.001
2026/05/14 10:32:35.710,-0.011,-0.032,0.987
2026/05/14 10:32:35.730,-0.007,-0.033,0.978
2026/05/14 10:32:35.750,-0.025,-0.036,0.983
2026/05/14 10:32:35.770,-0.032,-0.05,0.999
2026/05/14 10:32:35.790,-0.013,-0.051,0.973
2026/05/14 10:32:35.809,0.024,-0.041,0.979
2026/05/14 10:32:35.829,0.011,-0.05,0.988
2026/05/14 10:32:35.849,0.006,-0.043,0.996
2026/05/14 10:32:35.869,0.009,-0.047,1.002
2026/05/14 10:32:35.889,0.022,-0.039,0.995
2026/05/14 10:32:35.909,0.016,-0.041,0.977
2026/05/14 10:32:35.929,0.006,-0.046,0.996
2026/05/14 10:32:35.949,-0.001,-0.052,0.988
2026/05/14 10:32:35.969,-0.005,-0.046,0.987
2026/05/14 10:32:35.989,-0.013,-0.04,0.995
2026/05/14 10:32:36.009,-0.004,-0.034,0.992
2026/05/14 10:32:36.028,-0.005,-0.032,0.989
2026/05/14 10:32:36.048,-0.004,-0.036,0.99
2026/05/14 10:32:36.068,0.001,-0.041,0.989
2026/05/14 10:32:36.088,-0.001,-0.043,0.993
2026/05/14 10:32:36.108,0.001,-0.05,0.993
2026/05/14 10:32:36.128,0.009,-0.049,0.992
2026/05/14 10:32:36.148,0.013,-0.051,0.989
2026/05/14 10:32:36.168,0.017,-0.046,0.99
2026/05/14 10:32:36.188,0.014,-0.044,0.988
2026/05/14 10:32:36.208,0.008,-0.048,0.996
2026/05/14 10:32:36.228,0.001,-0.042,0.994
2026/05/14 10:32:36.248,-0.003,-0.041,0.99
2026/05/14 10:32:36.267,-0.007,-0.039,0.988
2026/05/14 10:32:36.287,-0.007,-0.04,0.994
2026/05/14 10:32:36.307,-0.004,-0.036,0.983
2026/05/14 10:32:36.327,-0.007,-0.041,0.993
2026/05/14 10:32:36.347,-0.005,-0.04,0.992
2026/05/14 10:32:36.367,0.001,-0.046,0.994
2026/05/14 10:32:36.387,0.008,-0.04,0.986
2026/05/14 10:32:36.407,0.015,-0.042,0.991
2026/05/14 10:32:36.427,0.018,-0.046,0.995
2026/05/14 10:32:36.447,0.015,-0.049,0.99
2026/05/14 10:32:36.467,0.014,-0.045,0.995
2026/05/14 10:32:36.486,0.006,-0.049,0.996
2026/05/14 10:32:36.506,0.0,-0.042,0.993
2026/05/14 10:32:36.526,-0.002,-0.039,0.989
2026/05/14 10:32:36.546,-0.004,-0.033,0.992
2026/05/14 10:32:36.566,0.0,-0.035,0.993
2026/05/14 10:32:36.586,-0.003,-0.044,0.997
2026/05/14 10:32:36.606,-0.01,-0.043,0.991
2026/05/14 10:32:36.626,-0.003,-0.047,0.99
2026/05/14 10:32:36.646,0.0,-0.051,0.994
2026/05/14 10:32:36.666,0.006,-0.045,0.995
2026/05/14 10:32:36.686,0.008,-0.043,0.997
2026/05/14 10:32:36.706,0.015,-0.04,0.991
2026/05/14 10:32:36.725,0.014,-0.04,0.991
2026/05/14 10:32:36.745,0.003,-0.041,0.988
2026/05/14 10:32:36.765,0.006,-0.049,0.996
2026/05/14 10:32:36.785,0.001,-0.046,0.993
2026/05/14 10:32:36.805,0.0,-0.043,0.994
2026/05/14 10:32:36.825,-0.003,-0.041,0.991
2026/05/14 10:32:36.845,-0.002,-0.039,0.992
2026/05/14 10:32:36.865,0.002,-0.04,0.992
2026/05/14 10:32:36.885,0.006,-0.036,0.995
2026/05/14 10:32:36.905,0.003,-0.039,0.993
2026/05/14 10:32:36.925,0.004,-0.044,0.994
2026/05/14 10:32:36.944,0.005,-0.046,0.993
2026/05/14 10:32:36.964,0.004,-0.048,0.989
2026/05/14 10:32:36.984,0.007,-0.044,0.995
2026/05/14 10:32:37.004,0.009,-0.045,0.991
2026/05/14 10:32:37.024,0.003,-0.04,0.996
2026/05/14 10:32:37.044,0.004,-0.039,0.991
2026/05/14 10:32:37.064,-0.003,-0.04,0.993
2026/05/14 10:32:37.084,0.001,-0.04,0.988
2026/05/14 10:32:37.104,-0.004,-0.042,0.993
2026/05/14 10:32:37.124,0.0,-0.043,0.993
2026/05/14 10:32:37.144,0.002,-0.04,0.997
2026/05/14 10:32:37.163,0.009,-0.04,0.991
2026/05/14 10:32:37.183,0.008,-0.045,0.989
2026/05/14 10:32:37.203,0.007,-0.047,0.992
2026/05/14 10:32:37.223,0.005,-0.049,0.99
2026/05/14 10:32:37.243,0.007,-0.048,0.99
2026/05/14 10:32:37.263,0.005,-0.042,0.993
2026/05/14 10:32:37.283,0.005,-0.045,0.987
2026/05/14 10:32:37.303,0.003,-0.042,0.992
2026/05/14 10:32:37.323,0.0,-0.042,0.992
2026/05/14 10:32:37.343,-0.002,-0.044,0.987
2026/05/14 10:32:37.363,-0.002,-0.041,0.993
2026/05/14 10:32:37.383,0.001,-0.038,0.993
2026/05/14 10:32:37.402,-0.001,-0.037,0.993
2026/05/14 10:32:37.422,0.005,-0.038,0.992
2026/05/14 10:32:37.442,0.003,-0.035,0.993
2026/05/14 10:32:37.462,-0.001,-0.037,0.994
2026/05/14 10:32:37.482,0.0,-0.039,0.989
2026/05/14 10:32:37.502,0.0,-0.043,0.987
2026/05/14 10:32:37.522,0.005,-0.044,0.99
2026/05/14 10:32:37.542,0.009,-0.05,0.993
2026/05/14 10:32:37.562,0.009,-0.052,0.992
2026/05/14 10:32:37.582,0.016,-0.047,0.984
2026/05/14 10:32:37.602,0.015,-0.043,0.991
2026/05/14 10:32:37.621,0.011,-0.042,0.991
2026/05/14 10:32:37.641,0.003,-0.044,0.993
2026/05/14 10:32:37.661,-0.003,-0.042,0.995
2026/05/14 10:32:37.681,-0.004,-0.042,0.992
2026/05/14 10:32:37.701,-0.002,-0.04,0.996
2026/05/14 10:32:37.721,-0.001,-0.035,0.995
2026/05/14 10:32:37.741,-0.004,-0.04,0.996
2026/05/14 10:32:37.761,-0.002,-0.039,0.989
2026/05/14 10:32:37.781,-0.005,-0.043,0.995
2026/05/14 10:32:37.801,-0.005,-0.045,0.991
2026/05/14 10:32:37.821,0.005,-0.041,0.989
2026/05/14 10:32:37.840,0.012,-0.043,0.993
2026/05/14 10:32:37.860,0.008,-0.046,0.991
2026/05/14 10:32:37.880,0.014,-0.047,0.995
2026/05/14 10:32:37.900,0.003,-0.049,0.993
2026/05/14 10:32:37.920,0.0,-0.047,0.993
2026/05/14 10:32:37.940,0.002,-0.043,0.993
2026/05/14 10:32:37.960,0.0,-0.038,0.992
2026/05/14 10:32:37.980,0.003,-0.036,0.989
2026/05/14 10:32:38.000,-0.004,-0.035,0.992
2026/05/14 10:32:38.020,-0.003,-0.037,0.992
2026/05/14 10:32:38.040,-0.002,-0.038,0.995
2026/05/14 10:32:38.059,0.004,-0.042,0.99
2026/05/14 10:32:38.079,0.004,-0.048,0.996
2026/05/14 10:32:38.099,0.01,-0.047,0.992
2026/05/14 10:32:38.119,0.011,-0.046,0.992
2026/05/14 10:32:38.139,0.013,-0.05,0.989
2026/05/14 10:32:38.159,0.008,-0.043,0.991
2026/05/14 10:32:38.179,-0.001,-0.042,0.994
2026/05/14 10:32:38.199,-0.001,-0.042,0.992
2026/05/14 10:32:38.219,-0.004,-0.04,0.993
2026/05/14 10:32:38.239,-0.005,-0.044,0.988
2026/05/14 10:32:38.259,0.001,-0.038,0.997
2026/05/14 10:32:38.279,0.0,-0.042,0.994
2026/05/14 10:32:38.298,-0.001,-0.04,0.992
2026/05/14 10:32:38.318,0.005,-0.039,0.992
2026/05/14 10:32:38.338,0.006,-0.04,0.995
2026/05/14 10:32:38.358,0.012,-0.043,0.995
2026/05/14 10:32:38.378,0.009,-0.044,0.995
2026/05/14 10:32:38.398,0.008,-0.045,0.989
2026/05/14 10:32:38.418,0.004,-0.047,0.993
2026/05/14 10:32:38.438,0.004,-0.046,0.998
2026/05/14 10:32:38.458,0.002,-0.041,0.991
2026/05/14 10:32:38.478,0.002,-0.038,0.994
2026/05/14 10:32:38.498,0.0,-0.039,0.993
2026/05/14 10:32:38.517,-0.001,-0.037,0.991
2026/05/14 10:32:38.537,-0.001,-0.04,0.99
2026/05/14 10:32:38.557,0.003,-0.046,0.992
2026/05/14 10:32:38.577,0.004,-0.045,0.991
2026/05/14 10:32:38.597,0.005,-0.049,0.991
2026/05/14 10:32:38.617,0.008,-0.047,0.991
2026/05/14 10:32:38.637,0.008,-0.038,0.993
2026/05/14 10:32:38.657,0.008,-0.044,0.992
2026/05/14 10:32:38.677,0.003,-0.044,0.991
2026/05/14 10:32:38.697,0.003,-0.039,0.988
2026/05/14 10:32:38.717,-0.001,-0.042,0.992
2026/05/14 10:32:38.736,-0.004,-0.042,0.992
2026/05/14 10:32:38.756,-0.001,-0.042,0.991
2026/05/14 10:32:38.776,0.0,-0.047,0.995
2026/05/14 10:32:38.796,0.004,-0.043,0.994
2026/05/14 10:32:38.816,0.005,-0.04,0.99
2026/05/14 10:32:38.836,0.006,-0.044,0.991
2026/05/14 10:32:38.856,0.009,-0.043,0.99
2026/05/14 10:32:38.876,0.008,-0.049,0.995
2026/05/14 10:32:38.896,0.005,-0.047,0.99
2026/05/14 10:32:38.916,0.004,-0.045,0.989
2026/05/14 10:32:38.936,0.001,-0.042,0.995
2026/05/14 10:32:38.955,0.0,-0.04,0.989
2026/05/14 10:32:38.975,-0.001,-0.04,0.993
2026/05/14 10:32:38.995,0.0,-0.04,0.991
2026/05/14 10:32:39.015,-0.003,-0.044,0.993
2026/05/14 10:32:39.035,0.0,-0.037,0.994
2026/05/14 10:32:39.055,0.005,-0.043,0.991
2026/05/14 10:32:39.075,0.004,-0.04,0.991
2026/05/14 10:32:39.095,0.002,-0.045,0.994
2026/05/14 10:32:39.115,0.008,-0.042,0.993
2026/05/14 10:32:39.135,0.006,-0.045,0.996
2026/05/14 10:32:39.155,0.006,-0.043,0.991
2026/05/14 10:32:39.175,0.007,-0.043,0.989
2026/05/14 10:32:39.194,0.004,-0.047,0.99
2026/05/14 10:32:39.214,0.004,-0.044,0.993
2026/05/14 10:32:39.234,0.005,-0.04,0.996
2026/05/14 10:32:39.254,0.003,-0.043,0.995
2026/05/14 10:32:39.274,0.003,-0.042,0.993
2026/05/14 10:32:39.294,0.0,-0.04,0.993
2026/05/14 10:32:39.314,0.003,-0.04,0.99
2026/05/14 10:32:39.334,0.0,-0.04,0.995
2026/05/14 10:32:39.354,0.001,-0.043,0.989
2026/05/14 10:32:39.374,0.005,-0.044,0.991
2026/05/14 10:32:39.394,0.004,-0.043,0.99
2026/05/14 10:32:39.413,0.006,-0.04,0.994
2026/05/14 10:32:39.433,0.004,-0.039,0.993
2026/05/14 10:32:39.453,0.006,-0.038,0.992
2026/05/14 10:32:39.473,0.003,-0.046,0.992
2026/05/14 10:32:39.493,0.005,-0.046,0.988
2026/05/14 10:32:39.513,0.0,-0.047,0.988
2026/05/14 10:32:39.533,0.003,-0.045,0.993
2026/05/14 10:32:39.553,0.003,-0.039,0.992
2026/05/14 10:32:39.573,0.002,-0.042,0.991
2026/05/14 10:32:39.593,-0.003,-0.038,0.992
2026/05/14 10:32:39.613,0.001,-0.043,0.992
2026/05/14 10:32:39.632,0.0,-0.045,0.993
2026/05/14 10:32:39.652,0.003,-0.044,0.995
2026/05/14 10:32:39.672,0.005,-0.042,0.994
2026/05/14 10:32:39.692,0.003,-0.047,0.993
2026/05/14 10:32:39.712,0.007,-0.04,0.993
2026/05/14 10:32:39.732,0.005,-0.046,0.991
2026/05/14 10:32:39.752,0.003,-0.044,0.987
2026/05/14 10:32:39.772,-0.001,-0.042,0.989
2026/05/14 10:32:39.792,0.002,-0.044,0.991
2026/05/14 10:32:39.812,0.005,-0.041,0.993
2026/05/14 10:32:39.832,0.0,-0.045,0.993
2026/05/14 10:32:39.851,0.004,-0.044,0.99
2026/05/14 10:32:39.871,0.005,-0.041,0.993
2026/05/14 10:32:39.891,0.001,-0.041,0.995
2026/05/14 10:32:39.911,0.001,-0.044,0.992
2026/05/14 10:32:39.931,0.004,-0.046,0.991
2026/05/14 10:32:39.951,0.004,-0.044,0.991
2026/05/14 10:32:39.971,0.007,-0.043,0.992
2026/05/14 10:32:39.991,0.005,-0.045,0.993
2026/05/14 10:32:40.011,-0.001,-0.04,0.993
2026/05/14 10:32:40.031,0.007,-0.038,0.993
2026/05/14 10:32:40.051,0.005,-0.042,0.99
2026/05/14 10:32:40.071,0.002,-0.041,0.99
2026/05/14 10:32:40.090,0.004,-0.044,0.994
2026/05/14 10:32:40.110,0.004,-0.043,0.988
2026/05/14 10:32:40.130,0.004,-0.041,0.992
2026/05/14 10:32:40.150,0.004,-0.042,0.989
2026/05/14 10:32:40.170,-0.001,-0.044,0.99
2026/05/14 10:32:40.190,0.0,-0.04,0.991
2026/05/14 10:32:40.210,-0.001,-0.041,0.995
2026/05/14 10:32:40.230,0.001,-0.042,0.996
2026/05/14 10:32:40.250,0.001,-0.042,0.995
2026/05/14 10:32:40.270,0.005,-0.048,0.992
2026/05/14 10:32:40.290,0.004,-0.043,0.994
2026/05/14 10:32:40.309,0.004,-0.043,0.991
2026/05/14 10:32:40.329,0.005,-0.045,0.995
2026/05/14 10:32:40.349,0.004,-0.043,0.993
2026/05/14 10:32:40.369,0.006,-0.043,0.992
2026/05/14 10:32:40.389,0.007,-0.042,0.992
2026/05/14 10:32:40.409,0.005,-0.044,0.994
2026/05/14 10:32:40.429,0.001,-0.042,0.989
2026/05/14 10:32:40.449,0.001,-0.041,0.991
2026/05/14 10:32:40.469,0.003,-0.045,0.988
2026/05/14 10:32:40.489,0.003,-0.041,0.992
2026/05/14 10:32:40.509,0.001,-0.04,0.995
2026/05/14 10:32:40.528,0.004,-0.039,0.992
2026/05/14 10:32:40.548,0.002,-0.041,0.991
2026/05/14 10:32:40.568,0.004,-0.044,0.988
2026/05/14 10:32:40.588,0.005,-0.045,0.99
2026/05/14 10:32:40.608,0.004,-0.043,0.994
2026/05/14 10:32:40.628,0.001,-0.041,0.991
2026/05/14 10:32:40.648,0.003,-0.042,0.989
2026/05/14 10:32:40.668,0.001,-0.04,0.993
2026/05/14 10:32:40.688,0.003,-0.041,0.99
2026/05/14 10:32:40.708,-0.002,-0.042,0.991
2026/05/14 10:32:40.728,0.001,-0.044,0.994
2026/05/14 10:32:40.747,0.002,-0.043,0.988
2026/05/14 10:32:40.767,0.005,-0.045,0.99
2026/05/14 10:32:40.787,0.002,-0.043,0.996
2026/05/14 10:32:40.807,0.005,-0.042,0.996
2026/05/14 10:32:40.827,0.006,-0.04,0.993
2026/05/14 10:32:40.847,0.001,-0.047,0.991
2026/05/14 10:32:40.867,0.004,-0.038,0.991
2026/05/14 10:32:40.887,0.004,-0.044,0.995
2026/05/14 10:32:40.907,0.001,-0.044,0.994
2026/05/14 10:32:40.927,0.003,-0.044,0.992
2026/05/14 10:32:40.947,0.0,-0.041,0.992
2026/05/14 10:32:40.967,0.002,-0.04,0.994
2026/05/14 10:32:40.986,0.0,-0.037,0.991
2026/05/14 10:32:41.006,0.003,-0.042,0.999
2026/05/14 10:32:41.026,0.002,-0.038,0.986
2026/05/14 10:32:41.046,0.002,-0.041,0.991
2026/05/14 10:32:41.066,0.006,-0.041,0.988
2026/05/14 10:32:41.086,0.005,-0.043,0.991
2026/05/14 10:32:41.106,0.006,-0.044,0.991
2026/05/14 10:32:41.126,0.005,-0.043,0.99
2026/05/14 10:32:41.146,0.002,-0.042,0.992
2026/05/14 10:32:41.166,0.0,-0.045,0.992
2026/05/14 10:32:41.186,0.006,-0.046,0.991
2026/05/14 10:32:41.205,-0.002,-0.044,0.992
2026/05/14 10:32:41.225,0.001,-0.037,0.991
2026/05/14 10:32:41.245,0.006,-0.035,0.989
2026/05/14 10:32:41.265,0.003,-0.039,0.989
2026/05/14 10:32:41.285,0.006,-0.043,0.991
2026/05/14 10:32:41.305,0.001,-0.048,0.991
2026/05/14 10:32:41.325,-0.006,-0.052,0.986
2026/05/14 10:32:41.345,0.002,-0.047,0.992
2026/05/14 10:32:41.365,0.003,-0.043,0.998
2026/05/14 10:32:41.385,0.006,-0.033,0.984
2026/05/14 10:32:41.405,0.007,-0.036,0.999
2026/05/14 10:32:41.424,0.002,-0.041,0.99
2026/05/14 10:32:41.444,0.001,-0.042,0.99
2026/05/14 10:32:41.464,0.003,-0.047,0.997
2026/05/14 10:32:41.484,0.003,-0.045,0.992
2026/05/14 10:32:41.504,0.006,-0.038,0.991
2026/05/14 10:32:41.524,0.0,-0.035,1.001
2026/05/14 10:32:41.544,-0.003,-0.041,0.986
2026/05/14 10:32:41.564,-0.002,-0.045,0.989
2026/05/14 10:32:41.584,0.002,-0.043,0.995
2026/05/14 10:32:41.604,0.006,-0.048,0.99
2026/05/14 10:32:41.624,0.008,-0.042,0.975
2026/05/14 10:32:41.644,-0.023,-0.019,1.006
2026/05/14 10:32:41.663,-0.009,-0.031,0.998
2026/05/14 10:32:41.683,0.001,-0.029,1.011
2026/05/14 10:32:41.703,0.008,-0.042,1.005
2026/05/14 10:32:41.723,0.001,-0.047,0.983
2026/05/14 10:32:41.743,-0.007,-0.049,0.987
2026/05/14 10:32:41.763,-0.01,-0.043,0.99
2026/05/14 10:32:41.783,-0.018,-0.043,0.987
2026/05/14 10:32:41.803,-0.041,-0.079,1.23
2026/05/14 10:32:41.823,0.018,-0.039,0.938
2026/05/14 10:32:41.843,0.015,-0.003,0.912
2026/05/14 10:32:41.863,0.002,-0.02,1.0
2026/05/14 10:32:41.882,0.004,-0.06,1.025
2026/05/14 10:32:41.902,0.015,-0.062,0.987
2026/05/14 10:32:41.922,0.019,-0.048,0.948
2026/05/14 10:32:41.942,0.016,-0.065,0.998
2026/05/14 10:32:41.962,0.014,-0.056,0.995
2026/05/14 10:32:41.982,0.009,-0.04,0.982
2026/05/14 10:32:42.002,0.002,-0.03,0.991
2026/05/14 10:32:42.022,-0.001,-0.032,0.991
2026/05/14 10:32:42.042,-0.004,-0.029,0.987
2026/05/14 10:32:42.062,-0.015,-0.036,0.993
2026/05/14 10:32:42.082,-0.014,-0.049,0.995
2026/05/14 10:32:42.101,-0.016,-0.046,0.98
2026/05/14 10:32:42.121,-0.015,-0.052,0.989
2026/05/14 10:32:42.141,-0.003,-0.041,0.986
2026/05/14 10:32:42.161,0.01,-0.038,0.998
2026/05/14 10:32:42.181,0.012,-0.024,0.977
2026/05/14 10:32:42.201,0.016,-0.037,0.991
2026/05/14 10:32:42.221,0.016,-0.048,0.994
2026/05/14 10:32:42.241,0.007,-0.056,0.986
2026/05/14 10:32:42.261,0.01,-0.058,0.99
2026/05/14 10:32:42.281,0.004,-0.059,0.991
2026/05/14 10:32:42.301,0.003,-0.045,0.992
2026/05/14 10:32:42.320,0.001,-0.036,0.991
2026/05/14 10:32:42.340,-0.004,-0.03,0.985
2026/05/14 10:32:42.360,0.001,-0.026,0.994
2026/05/14 10:32:42.380,0.002,-0.045,1.021
2026/05/14 10:32:42.400,0.003,-0.04,1.01
2026/05/14 10:32:42.420,0.012,-0.018,0.891
2026/05/14 10:32:42.440,-0.002,-0.056,1.018
2026/05/14 10:32:42.460,-0.005,-0.057,1.009
2026/05/14 10:32:42.480,-0.003,-0.061,1.012
2026/05/14 10:32:42.500,0.001,-0.031,0.984
2026/05/14 10:32:42.520,0.017,-0.042,0.998
2026/05/14 10:32:42.539,0.016,-0.03,0.99
2026/05/14 10:32:42.559,0.015,-0.036,0.991
2026/05/14 10:32:42.579,0.005,-0.04,0.989
2026/05/14 10:32:42.599,0.004,-0.052,0.998
2026/05/14 10:32:42.619,-0.003,-0.052,0.989
2026/05/14 10:32:42.639,-0.003,-0.038,0.979
2026/05/14 10:32:42.659,-0.001,-0.039,1.0
2026/05/14 10:32:42.679,-0.006,-0.031,0.987
2026/05/14 10:32:42.699,-0.004,-0.038,0.996
2026/05/14 10:32:42.719,-0.006,-0.035,0.994
2026/05/14 10:32:42.739,-0.005,-0.04,0.987
2026/05/14 10:32:42.758,0.002,-0.042,0.988
2026/05/14 10:32:42.778,0.009,-0.049,0.997
2026/05/14 10:32:42.798,0.01,-0.051,0.992
2026/05/14 10:32:42.818,0.01,-0.045,0.993
2026/05/14 10:32:42.838,0.01,-0.048,0.992
2026/05/14 10:32:42.858,0.007,-0.049,0.992
2026/05/14 10:32:42.878,0.007,-0.043,0.993
2026/05/14 10:32:42.898,0.006,-0.041,0.995
2026/05/14 10:32:42.918,0.002,-0.043,0.987
2026/05/14 10:32:42.938,-0.001,-0.033,0.985
2026/05/14 10:32:42.958,-0.003,-0.04,0.987
2026/05/14 10:32:42.977,-0.007,-0.038,0.979
2026/05/14 10:32:42.997,-0.004,-0.046,0.992
2026/05/14 10:32:43.017,0.009,-0.035,0.992
2026/05/14 10:32:43.037,0.009,-0.04,0.997
2026/05/14 10:32:43.057,0.008,-0.039,0.977
2026/05/14 10:32:43.077,0.007,-0.044,0.991
2026/05/14 10:32:43.097,0.003,-0.05,0.995
2026/05/14 10:32:43.117,0.008,-0.053,0.994
2026/05/14 10:32:43.137,0.005,-0.048,0.987
2026/05/14 10:32:43.157,0.003,-0.042,0.991
2026/05/14 10:32:43.177,0.003,-0.046,0.991
2026/05/14 10:32:43.196,-0.001,-0.037,0.996
2026/05/14 10:32:43.216,-0.006,-0.036,0.99
2026/05/14 10:32:43.236,0.0,-0.037,0.991
2026/05/14 10:32:43.256,-0.003,-0.039,0.996
2026/05/14 10:32:43.276,0.001,-0.049,0.994
2026/05/14 10:32:43.296,0.0,-0.049,0.987
2026/05/14 10:32:43.316,0.001,-0.047,0.993
2026/05/14 10:32:43.336,0.008,-0.042,0.992
2026/05/14 10:32:43.356,0.011,-0.045,0.993
2026/05/14 10:32:43.376,0.008,-0.045,0.989
2026/05/14 10:32:43.395,0.008,-0.037,0.991
2026/05/14 10:32:43.415,0.003,-0.042,0.99
2026/05/14 10:32:43.435,0.0,-0.043,0.993
2026/05/14 10:32:43.455,0.001,-0.047,0.988
2026/05/14 10:32:43.475,-0.003,-0.04,0.99
2026/05/14 10:32:43.495,-0.002,-0.038,0.994
2026/05/14 10:32:43.515,0.002,-0.037,0.993
2026/05/14 10:32:43.535,0.004,-0.039,0.988
2026/05/14 10:32:43.555,0.002,-0.04,0.989
2026/05/14 10:32:43.575,0.006,-0.05,0.989
2026/05/14 10:32:43.595,0.009,-0.045,0.995
2026/05/14 10:32:43.614,0.007,-0.048,0.99
2026/05/14 10:32:43.634,0.003,-0.041,0.991
2026/05/14 10:32:43.654,0.005,-0.041,0.99
2026/05/14 10:32:43.674,0.004,-0.043,0.997
2026/05/14 10:32:43.694,-0.001,-0.037,0.992
2026/05/14 10:32:43.714,0.002,-0.044,0.993
2026/05/14 10:32:43.734,0.003,-0.041,0.991
2026/05/14 10:32:43.754,0.003,-0.047,0.994
2026/05/14 10:32:43.774,0.001,-0.046,0.989
2026/05/14 10:32:43.794,0.002,-0.043,0.99
2026/05/14 10:32:43.814,0.003,-0.044,0.991
2026/05/14 10:32:43.833,0.0,-0.044,0.994
2026/05/14 10:32:43.853,0.002,-0.041,0.991
2026/05/14 10:32:43.873,0.003,-0.044,0.994
2026/05/14 10:32:43.893,-0.001,-0.043,0.992
2026/05/14 10:32:43.913,0.0,-0.041,0.988
2026/05/14 10:32:43.933,0.004,-0.046,0.993
2026/05/14 10:32:43.953,0.003,-0.045,0.989
2026/05/14 10:32:43.973,0.001,-0.042,0.993
2026/05/14 10:32:43.993,0.007,-0.045,0.991
2026/05/14 10:32:44.013,0.006,-0.041,0.993
2026/05/14 10:32:44.033,0.001,-0.042,0.989
2026/05/14 10:32:44.052,-0.001,-0.043,0.99
2026/05/14 10:32:44.072,0.001,-0.041,0.991
2026/05/14 10:32:44.092,-0.003,-0.039,0.991
2026/05/14 10:32:44.112,-0.002,-0.041,0.991
2026/05/14 10:32:44.132,0.004,-0.043,0.991
2026/05/14 10:32:44.152,0.005,-0.039,0.99
2026/05/14 10:32:44.172,0.006,-0.04,0.994
2026/05/14 10:32:44.192,0.005,-0.044,0.992
2026/05/14 10:32:44.212,0.001,-0.042,0.989
2026/05/14 10:32:44.232,0.005,-0.046,0.991
2026/05/14 10:32:44.252,0.005,-0.043,0.994
2026/05/14 10:32:44.271,0.004,-0.041,0.991
2026/05/14 10:32:44.291,0.003,-0.041,0.992
2026/05/14 10:32:44.311,0.0,-0.042,0.993
2026/05/14 10:32:44.331,-0.003,-0.042,0.993
2026/05/14 10:32:44.351,0.001,-0.04,0.99
2026/05/14 10:32:44.371,0.001,-0.042,0.991
2026/05/14 10:32:44.391,-0.002,-0.043,0.991
2026/05/14 10:32:44.411,0.001,-0.047,0.992
2026/05/14 10:32:44.431,0.003,-0.047,0.992
2026/05/14 10:32:44.451,0.005,-0.044,0.989
2026/05/14 10:32:44.471,0.005,-0.047,0.991
2026/05/14 10:32:44.490,0.004,-0.044,0.99
2026/05/14 10:32:44.510,0.0,-0.044,0.989
2026/05/14 10:32:44.530,0.003,-0.042,0.991
2026/05/14 10:32:44.550,-0.001,-0.041,0.995
2026/05/14 10:32:44.570,0.0,-0.041,0.991
2026/05/14 10:32:44.590,0.002,-0.042,0.99
2026/05/14 10:32:44.610,-0.001,-0.035,0.991
2026/05/14 10:32:44.630,0.001,-0.045,0.997
2026/05/14 10:32:44.650,0.003,-0.046,0.996
2026/05/14 10:32:44.670,-0.001,-0.046,0.992
2026/05/14 10:32:44.690,0.002,-0.046,0.99
2026/05/14 10:32:44.709,0.007,-0.044,0.995
2026/05/14 10:32:44.729,0.006,-0.043,0.992
2026/05/14 10:32:44.749,0.006,-0.044,0.988
2026/05/14 10:32:44.769,0.001,-0.041,0.991
2026/05/14 10:32:44.789,0.003,-0.044,0.991
2026/05/14 10:32:44.809,0.0,-0.045,0.994
2026/05/14 10:32:44.829,-0.004,-0.037,0.99
2026/05/14 10:32:44.849,0.002,-0.041,0.991
2026/05/14 10:32:44.869,0.001,-0.044,0.991
2026/05/14 10:32:44.889,0.0,-0.042,0.996
2026/05/14 10:32:44.909,0.002,-0.041,0.993
2026/05/14 10:32:44.928,0.004,-0.04,0.993
2026/05/14 10:32:44.948,0.004,-0.046,0.994
2026/05/14 10:32:44.968,0.006,-0.05,0.992
2026/05/14 10:32:44.988,0.004,-0.044,0.992
2026/05/14 10:32:45.008,0.005,-0.044,0.991
2026/05/14 10:32:45.028,0.009,-0.042,0.991
2026/05/14 10:32:45.048,0.003,-0.042,0.995
2026/05/14 10:32:45.068,-0.001,-0.04,0.991
2026/05/14 10:32:45.088,0.002,-0.041,0.989
2026/05/14 10:32:45.108,0.0,-0.043,0.995
2026/05/14 10:32:45.128,0.003,-0.041,0.996
2026/05/14 10:32:45.148,0.004,-0.041,0.989
2026/05/14 10:32:45.167,0.004,-0.039,0.992
2026/05/14 10:32:45.187,0.005,-0.042,0.992
2026/05/14 10:32:45.207,0.004,-0.042,0.994
2026/05/14 10:32:45.227,0.002,-0.041,0.99
2026/05/14 10:32:45.247,0.002,-0.043,0.994
2026/05/14 10:32:45.267,0.003,-0.041,0.99
2026/05/14 10:32:45.287,0.005,-0.041,0.992
2026/05/14 10:32:45.307,0.001,-0.046,0.987
2026/05/14 10:32:45.327,0.003,-0.045,0.996
2026/05/14 10:32:45.347,0.001,-0.041,0.991
2026/05/14 10:32:45.367,0.001,-0.039,0.987
2026/05/14 10:32:45.386,0.001,-0.036,0.991
2026/05/14 10:32:45.406,0.0,-0.04,0.996
2026/05/14 10:32:45.426,0.005,-0.042,0.987
2026/05/14 10:32:45.446,-0.002,-0.043,0.991
2026/05/14 10:32:45.466,0.003,-0.042,0.995
2026/05/14 10:32:45.486,0.005,-0.043,0.988
2026/05/14 10:32:45.506,0.004,-0.048,0.991
2026/05/14 10:32:45.526,0.009,-0.046,0.99
2026/05/14 10:32:45.546,0.006,-0.045,0.99
2026/05/14 10:32:45.566,0.003,-0.047,0.999
2026/05/14 10:32:45.586,0.002,-0.047,1.006
2026/05/14 10:32:45.605,0.001,-0.045,1.001
2026/05/14 10:32:45.625,0.001,-0.045,1.001
2026/05/14 10:32:45.645,0.003,-0.039,0.992
2026/05/14 10:32:45.665,-0.001,-0.04,0.995
2026/05/14 10:32:45.685,-0.003,-0.042,0.989
2026/05/14 10:32:45.705,-0.001,-0.042,1.004
2026/05/14 10:32:45.725,0.0,-0.04,0.992
2026/05/14 10:32:45.745,-0.004,-0.039,0.988
2026/05/14 10:32:45.765,0.003,-0.045,0.993
2026/05/14 10:32:45.785,0.0,-0.046,0.987
2026/05/14 10:32:45.805,0.008,-0.049,0.996
2026/05/14 10:32:45.824,0.018,-0.051,0.977
2026/05/14 10:32:45.844,0.015,-0.048,0.994
2026/05/14 10:32:45.864,0.014,-0.039,0.993
2026/05/14 10:32:45.884,0.014,-0.047,0.995
2026/05/14 10:32:45.904,0.004,-0.048,0.999
2026/05/14 10:32:45.924,-0.003,-0.045,0.991
2026/05/14 10:32:45.944,-0.005,-0.045,1.0
2026/05/14 10:32:45.964,0.002,-0.042,0.987
2026/05/14 10:32:45.984,0.002,-0.044,0.998
2026/05/14 10:32:46.004,0.002,-0.036,0.986
2026/05/14 10:32:46.024,-0.001,-0.041,0.997
2026/05/14 10:32:46.043,-0.015,-0.056,0.959
2026/05/14 10:32:46.063,-0.01,-0.049,1.028
2026/05/14 10:32:46.083,0.005,-0.027,0.998
2026/05/14 10:32:46.103,0.014,-0.017,1.002
2026/05/14 10:32:46.123,0.014,-0.027,1.005
2026/05/14 10:32:46.143,0.002,-0.03,0.96
2026/05/14 10:32:46.163,0.003,-0.051,1.021
2026/05/14 10:32:46.183,0.002,-0.059,0.976
2026/05/14 10:32:46.203,0.002,-0.066,0.995
2026/05/14 10:32:46.223,0.01,-0.056,0.998
2026/05/14 10:32:46.243,0.008,-0.051,0.987
2026/05/14 10:32:46.262,0.002,-0.027,0.988
2026/05/14 10:32:46.282,-0.008,-0.023,0.995
2026/05/14 10:32:46.302,-0.005,-0.03,1.008
2026/05/14 10:32:46.322,-0.007,-0.03,0.969
2026/05/14 10:32:46.342,-0.007,-0.043,1.005
2026/05/14 10:32:46.362,0.009,-0.064,1.018
2026/05/14 10:32:46.382,0.015,-0.056,0.966
2026/05/14 10:32:46.402,0.01,-0.041,0.996
2026/05/14 10:32:46.422,0.005,-0.038,0.998
2026/05/14 10:32:46.442,0.003,-0.035,0.988
2026/05/14 10:32:46.462,0.008,-0.032,0.982
2026/05/14 10:32:46.481,0.003,-0.038,0.995
2026/05/14 10:32:46.501,-0.009,-0.05,0.99
2026/05/14 10:32:46.521,-0.009,-0.053,1.004
2026/05/14 10:32:46.541,0.0,-0.053,0.98
2026/05/14 10:32:46.561,0.005,-0.044,0.995
2026/05/14 10:32:46.581,0.004,-0.041,0.994
2026/05/14 10:32:46.601,0.018,-0.036,1.0
2026/05/14 10:32:46.621,0.013,-0.028,0.981
2026/05/14 10:32:46.641,0.006,-0.043,0.987
2026/05/14 10:32:46.661,-0.002,-0.043,0.987
2026/05/14 10:32:46.681,-0.005,-0.058,0.987
2026/05/14 10:32:46.700,-0.007,-0.051,0.994
2026/05/14 10:32:46.720,-0.007,-0.045,0.982
2026/05/14 10:32:46.740,-0.005,-0.038,0.986
2026/05/14 10:32:46.760,-0.002,-0.025,0.999
2026/05/14 10:32:46.780,-0.003,-0.027,0.992
2026/05/14 10:32:46.800,0.005,-0.024,1.008
2026/05/14 10:32:46.820,0.015,-0.037,0.992
2026/05/14 10:32:46.840,0.018,-0.05,0.989
2026/05/14 10:32:46.860,0.003,-0.055,0.992
2026/05/14 10:32:46.880,0.004,-0.065,0.989
2026/05/14 10:32:46.900,0.002,-0.066,0.993
2026/05/14 10:32:46.920,0.0,-0.059,0.987
2026/05/14 10:32:46.939,0.008,-0.028,0.991
2026/05/14 10:32:46.959,-0.012,-0.016,0.994
2026/05/14 10:32:46.979,-0.025,-0.016,0.994
2026/05/14 10:32:46.999,-0.014,-0.02,0.998
2026/05/14 10:32:47.019,-0.005,-0.025,0.979
2026/05/14 10:32:47.039,-0.011,-0.047,0.99
2026/05/14 10:32:47.059,-0.015,-0.055,0.989
2026/05/14 10:32:47.079,0.025,-0.05,0.993
2026/05/14 10:32:47.099,0.04,-0.043,0.948
2026/05/14 10:32:47.119,0.014,-0.024,0.945
2026/05/14 10:32:47.139,0.021,-0.051,0.992
2026/05/14 10:32:47.158,0.026,-0.06,0.981
2026/05/14 10:32:47.178,0.01,-0.06,0.995
2026/05/14 10:32:47.198,0.018,-0.051,0.976
2026/05/14 10:32:47.218,0.033,0.058,0.892
2026/05/14 10:32:47.238,-0.023,-0.029,1.117
2026/05/14 10:32:47.258,-0.018,-0.037,1.014
2026/05/14 10:32:47.278,-0.074,0.001,1.008
2026/05/14 10:32:47.298,-0.04,-0.072,1.041
2026/05/14 10:32:47.318,-0.01,-0.053,0.945
2026/05/14 10:32:47.338,0.01,-0.067,0.974
2026/05/14 10:32:47.358,0.034,-0.101,0.941
2026/05/14 10:32:47.377,0.037,-0.06,1.007
2026/05/14 10:32:47.397,0.063,-0.04,0.952
2026/05/14 10:32:47.417,0.052,-0.048,0.97
2026/05/14 10:32:47.437,0.023,-0.055,0.982
2026/05/14 10:32:47.457,0.037,-0.06,0.89
2026/05/14 10:32:47.477,0.003,-0.044,1.001
2026/05/14 10:32:47.497,-0.021,-0.012,1.01
2026/05/14 10:32:47.517,-0.042,-0.03,1.072
2026/05/14 10:32:47.537,-0.056,-0.002,0.95
2026/05/14 10:32:47.557,-0.072,-0.011,0.983
2026/05/14 10:32:47.577,-0.048,-0.022,1.0
2026/05/14 10:32:47.597,-0.019,-0.037,0.976
2026/05/14 10:32:47.616,0.018,-0.074,0.994
2026/05/14 10:32:47.636,0.003,-0.054,0.944
2026/05/14 10:32:47.656,0.005,-0.051,0.986
2026/05/14 10:32:47.676,0.029,-0.05,1.008
2026/05/14 10:32:47.696,0.048,-0.04,1.014
2026/05/14 10:32:47.716,0.055,-0.037,0.964
2026/05/14 10:32:47.736,0.047,-0.035,0.967
2026/05/14 10:32:47.756,0.018,-0.059,0.997
2026/05/14 10:32:47.776,-0.014,-0.066,0.97
2026/05/14 10:32:47.796,-0.031,-0.056,0.995
2026/05/14 10:32:47.816,-0.038,-0.039,0.999
2026/05/14 10:32:47.835,-0.015,-0.028,0.977
2026/05/14 10:32:47.855,-0.009,-0.01,0.975
2026/05/14 10:32:47.875,-0.007,-0.02,1.0
2026/05/14 10:32:47.895,-0.023,-0.024,0.99
2026/05/14 10:32:47.915,-0.014,-0.037,0.981
2026/05/14 10:32:47.935,-0.01,-0.047,0.982
2026/05/14 10:32:47.955,0.017,-0.048,0.998
2026/05/14 10:32:47.975,0.021,-0.053,0.988
2026/05/14 10:32:47.995,0.018,-0.078,1.026
2026/05/14 10:32:48.015,0.009,-0.071,0.941
2026/05/14 10:32:48.035,0.014,-0.074,1.0
2026/05/14 10:32:48.054,0.013,-0.045,1.038
2026/05/14 10:32:48.074,-0.004,-0.03,1.01
2026/05/14 10:32:48.094,-0.007,-0.015,0.954
2026/05/14 10:32:48.114,-0.012,-0.017,0.973
2026/05/14 10:32:48.134,-0.014,-0.043,1.016
2026/05/14 10:32:48.154,-0.013,-0.05,0.991
2026/05/14 10:32:48.174,-0.008,-0.053,0.972
2026/05/14 10:32:48.194,-0.002,-0.058,0.967
2026/05/14 10:32:48.214,0.012,-0.053,1.02
2026/05/14 10:32:48.234,0.015,-0.046,0.98
2026/05/14 10:32:48.254,0.043,0.003,0.926
2026/05/14 10:32:48.274,0.016,-0.058,1.08
2026/05/14 10:32:48.293,0.0,-0.04,0.994
2026/05/14 10:32:48.313,-0.01,-0.042,0.995
2026/05/14 10:32:48.333,-0.014,-0.051,0.973
2026/05/14 10:32:48.353,-0.012,-0.054,0.977
2026/05/14 10:32:48.373,-0.003,-0.046,0.993
2026/05/14 10:32:48.393,0.001,-0.044,0.989
2026/05/14 10:32:48.413,0.004,-0.035,0.995
2026/05/14 10:32:48.433,0.002,-0.03,0.996
2026/05/14 10:32:48.453,0.004,-0.029,0.989
2026/05/14 10:32:48.473,-0.004,-0.032,0.994
2026/05/14 10:32:48.493,0.002,-0.046,0.982
2026/05/14 10:32:48.512,0.008,-0.054,0.99
2026/05/14 10:32:48.532,0.005,-0.062,0.99
2026/05/14 10:32:48.552,0.012,-0.06,0.989
2026/05/14 10:32:48.572,0.016,-0.049,0.99
2026/05/14 10:32:48.592,0.01,-0.042,0.995
2026/05/14 10:32:48.612,0.009,-0.029,0.994
2026/05/14 10:32:48.632,0.003,-0.028,0.993
2026/05/14 10:32:48.652,-0.002,-0.028,0.996
2026/05/14 10:32:48.672,-0.014,-0.035,0.987
2026/05/14 10:32:48.692,-0.016,-0.053,0.998
2026/05/14 10:32:48.712,-0.018,-0.051,0.99
2026/05/14 10:32:48.731,-0.013,-0.048,0.983
2026/05/14 10:32:48.751,-0.005,-0.046,0.993
2026/05/14 10:32:48.771,0.008,-0.039,0.999
2026/05/14 10:32:48.791,0.013,-0.031,0.992
2026/05/14 10:32:48.811,0.018,-0.03,0.988
2026/05/14 10:32:48.831,0.019,-0.044,1.001
2026/05/14 10:32:48.851,0.012,-0.047,0.992
2026/05/14 10:32:48.871,0.0,-0.054,0.989
2026/05/14 10:32:48.891,-0.005,-0.051,0.987
2026/05/14 10:32:48.911,-0.006,-0.045,0.989
2026/05/14 10:32:48.931,-0.008,-0.032,0.996
2026/05/14 10:32:48.950,-0.045,-0.034,0.96
2026/05/14 10:32:48.970,-0.023,-0.026,1.035
2026/05/14 10:32:48.990,-0.01,-0.033,0.975
2026/05/14 10:32:49.010,0.016,-0.013,0.976
2026/05/14 10:32:49.030,0.037,-0.056,1.027
2026/05/14 10:32:49.050,0.052,-0.045,0.962
2026/05/14 10:32:49.070,0.06,-0.062,0.986
2026/05/14 10:32:49.090,0.044,-0.067,0.993
2026/05/14 10:32:49.110,0.013,-0.07,1.022
2026/05/14 10:32:49.130,-0.016,-0.069,0.964
2026/05/14 10:32:49.150,-0.024,-0.071,0.999
2026/05/14 10:32:49.169,-0.011,-0.063,1.018
2026/05/14 10:32:49.189,-0.014,-0.032,0.998
2026/05/14 10:32:49.209,-0.006,-0.012,0.99
2026/05/14 10:32:49.229,-0.025,0.009,0.956
2026/05/14 10:32:49.249,-0.024,-0.002,0.983
2026/05/14 10:32:49.269,-0.017,-0.004,1.002
2026/05/14 10:32:49.289,-0.01,-0.25,1.652
2026/05/14 10:32:49.309,-0.013,0.034,0.764
2026/05/14 10:32:49.329,0.006,-0.054,0.88
2026/05/14 10:32:49.349,-0.022,-0.086,0.846
2026/05/14 10:32:49.369,0.037,-0.072,0.957
2026/05/14 10:32:49.388,0.033,-0.087,1.059
2026/05/14 10:32:49.408,0.045,-0.067,0.982
2026/05/14 10:32:49.428,0.026,-0.04,1.0
2026/05/14 10:32:49.448,0.02,-0.043,1.047
2026/05/14 10:32:49.468,-0.013,-0.02,1.021
2026/05/14 10:32:49.488,-0.028,-0.001,0.941
2026/05/14 10:32:49.508,-0.042,-0.021,0.947
2026/05/14 10:32:49.528,-0.034,-0.047,1.0
2026/05/14 10:32:49.548,-0.023,-0.05,0.966
2026/05/14 10:32:49.568,-0.017,-0.058,0.963
2026/05/14 10:32:49.588,-0.01,-0.06,0.998
2026/05/14 10:32:49.607,-0.014,-0.062,1.019
2026/05/14 10:32:49.627,-0.001,-0.019,0.972
2026/05/14 10:32:49.647,0.019,-0.016,0.971
2026/05/14 10:32:49.667,0.021,-0.015,1.007
2026/05/14 10:32:49.687,0.021,-0.028,0.88
2026/05/14 10:32:49.707,-0.001,-0.029,0.949
2026/05/14 10:32:49.727,0.017,-0.069,0.975
2026/05/14 10:32:49.747,-0.005,-0.077,0.983
2026/05/14 10:32:49.767,-0.02,-0.073,1.045
2026/05/14 10:32:49.787,0.03,-0.079,0.943
2026/05/14 10:32:49.807,0.015,-0.057,1.048
2026/05/14 10:32:49.827,0.004,0.001,0.96
2026/05/14 10:32:49.846,0.015,-0.011,1.024
2026/05/14 10:32:49.866,0.035,-0.059,1.119
2026/05/14 10:32:49.886,0.005,-0.026,0.988
2026/05/14 10:32:49.906,-0.001,-0.04,0.947
2026/05/14 10:32:49.926,0.0,-0.123,1.182
2026/05/14 10:32:49.946,-0.028,-0.037,0.917
2026/05/14 10:32:49.966,0.004,-0.07,0.998
2026/05/14 10:32:49.986,0.02,-0.054,0.983
2026/05/14 10:32:50.006,0.023,-0.019,0.991
2026/05/14 10:32:50.026,0.006,-0.018,0.995
2026/05/14 10:32:50.046,-0.006,-0.032,1.025
2026/05/14 10:32:50.065,-0.018,-0.027,1.003
2026/05/14 10:32:50.085,-0.016,-0.04,0.997
2026/05/14 10:32:50.105,-0.038,0.015,0.906
2026/05/14 10:32:50.125,-0.064,-0.041,1.036
2026/05/14 10:32:50.145,-0.008,-0.055,1.039
2026/05/14 10:32:50.165,-0.01,-0.039,1.036
2026/05/14 10:32:50.185,0.009,-0.041,0.988
2026/05/14 10:32:50.205,0.019,-0.049,1.044
2026/05/14 10:32:50.225,0.023,-0.029,0.984
2026/05/14 10:32:50.245,0.021,-0.04,0.957
2026/05/14 10:32:50.265,0.002,-0.065,0.984
2026/05/14 10:32:50.284,-0.008,-0.064,1.01
2026/05/14 10:32:50.304,-0.005,-0.052,0.986
2026/05/14 10:32:50.324,0.002,-0.041,0.986
2026/05/14 10:32:50.344,0.003,-0.032,1.0
2026/05/14 10:32:50.364,0.003,-0.021,1.002
2026/05/14 10:32:50.384,-0.011,-0.017,0.97
2026/05/14 10:32:50.404,-0.018,-0.041,0.986
2026/05/14 10:32:50.424,-0.015,-0.056,0.995
2026/05/14 10:32:50.444,0.005,-0.061,0.997
2026/05/14 10:32:50.464,0.004,-0.047,0.981
2026/05/14 10:32:50.484,0.003,0.094,0.511
2026/05/14 10:32:50.503,0.018,-0.118,0.831
2026/05/14 10:32:50.523,0.058,-0.007,0.764
2026/05/14 10:32:50.543,0.007,-0.131,1.099
2026/05/14 10:32:50.563,-0.024,-0.003,0.983
2026/05/14 10:32:50.583,0.015,-0.053,0.952
2026/05/14 10:32:50.603,-0.028,-0.041,0.915
2026/05/14 10:32:50.623,-0.007,-0.059,0.975
2026/05/14 10:32:50.643,-0.008,-0.027,0.957
2026/05/14 10:32:50.663,-0.019,-0.04,0.945
2026/05/14 10:32:50.683,-0.013,-0.034,1.039
2026/05/14 10:32:50.703,0.009,-0.024,0.957
2026/05/14 10:32:50.723,0.04,-0.02,1.01
2026/05/14 10:32:50.742,0.015,-0.03,1.013
2026/05/14 10:32:50.762,0.003,-0.039,0.994
2026/05/14 10:32:50.782,-0.015,-0.028,0.976
2026/05/14 10:32:50.802,-0.018,-0.039,0.973
2026/05/14 10:32:50.822,0.004,-0.064,1.009
2026/05/14 10:32:50.842,0.003,-0.046,0.971
2026/05/14 10:32:50.862,-0.008,-0.052,0.974
2026/05/14 10:32:50.882,-0.012,-0.038,0.99
2026/05/14 10:32:50.902,-0.013,-0.036,1.011
2026/05/14 10:32:50.922,0.001,-0.038,0.994
2026/05/14 10:32:50.942,-0.003,-0.167,1.427
2026/05/14 10:32:50.961,0.039,-0.016,0.921
2026/05/14 10:32:50.981,-0.008,-0.032,0.957
2026/05/14 10:32:51.001,0.005,-0.048,0.983
2026/05/14 10:32:51.021,-0.009,-0.054,0.976
2026/05/14 10:32:51.041,0.002,-0.042,0.945
2026/05/14 10:32:51.061,0.003,-0.049,0.984
2026/05/14 10:32:51.081,0.002,-0.04,0.999
2026/05/14 10:32:51.101,-0.005,-0.033,1.014
2026/05/14 10:32:51.121,-0.006,-0.028,0.989
2026/05/14 10:32:51.141,0.016,-0.023,0.944
2026/05/14 10:32:51.161,-0.008,-0.05,0.999
2026/05/14 10:32:51.180,-0.007,-0.05,0.98
2026/05/14 10:32:51.200,0.002,-0.054,0.995
2026/05/14 10:32:51.220,0.002,-0.038,0.998
2026/05/14 10:32:51.240,-0.012,-0.029,0.976
2026/05/14 10:32:51.260,0.008,-0.037,0.999
2026/05/14 10:32:51.280,0.007,-0.035,1.006
2026/05/14 10:32:51.300,0.012,-0.057,1.011
2026/05/14 10:32:51.320,0.004,-0.06,1.001
2026/05/14 10:32:51.340,0.006,-0.056,0.985
2026/05/14 10:32:51.360,0.022,-0.062,0.991
2026/05/14 10:32:51.380,0.028,-0.052,0.982
2026/05/14 10:32:51.400,0.021,-0.047,0.996
2026/05/14 10:32:51.419,0.024,-0.032,0.998
2026/05/14 10:32:51.439,0.014,-0.026,0.99
2026/05/14 10:32:51.459,0.001,-0.031,0.991
2026/05/14 10:32:51.479,-0.014,-0.041,0.996
2026/05/14 10:32:51.499,-0.022,-0.041,0.992
2026/05/14 10:32:51.519,-0.02,-0.041,0.996
2026/05/14 10:32:51.539,-0.019,-0.035,0.995
2026/05/14 10:32:51.559,-0.006,-0.027,0.991
2026/05/14 10:32:51.579,0.018,-0.034,1.002
2026/05/14 10:32:51.599,0.023,-0.041,0.985
2026/05/14 10:32:51.619,0.018,-0.053,0.998
2026/05/14 10:32:51.638,0.005,-0.077,0.967
2026/05/14 10:32:51.658,0.024,-0.09,1.088
2026/05/14 10:32:51.678,0.019,-0.073,0.994
2026/05/14 10:32:51.698,0.008,-0.047,0.98
2026/05/14 10:32:51.718,0.066,-0.012,1.019
2026/05/14 10:32:51.738,-0.003,0.0,0.862
2026/05/14 10:32:51.758,-0.033,-0.018,1.012
2026/05/14 10:32:51.778,-0.052,-0.018,1.012
2026/05/14 10:32:51.798,-0.04,-0.025,0.96
2026/05/14 10:32:51.818,-0.017,-0.03,0.979
2026/05/14 10:32:51.838,0.009,-0.055,0.91
2026/05/14 10:32:51.858,0.05,-0.09,1.001
2026/05/14 10:32:51.877,0.009,-0.084,0.945
2026/05/14 10:32:51.897,0.054,-0.05,0.966
2026/05/14 10:32:51.917,0.037,-0.056,0.993
2026/05/14 10:32:51.937,0.012,-0.024,0.985
2026/05/14 10:32:51.957,-0.009,-0.03,1.024
2026/05/14 10:32:51.977,-0.008,-0.033,1.007
2026/05/14 10:32:51.997,-0.02,-0.017,0.983
2026/05/14 10:32:52.017,-0.018,-0.04,1.021
2026/05/14 10:32:52.037,-0.032,-0.04,0.998
2026/05/14 10:32:52.057,-0.035,-0.045,0.977
2026/05/14 10:32:52.077,-0.027,-0.05,0.978
2026/05/14 10:32:52.096,-0.014,-0.042,1.0
2026/05/14 10:32:52.116,0.009,-0.03,1.003
2026/05/14 10:32:52.136,0.034,-0.031,0.986
2026/05/14 10:32:52.156,0.035,-0.043,0.987
2026/05/14 10:32:52.176,0.03,-0.048,1.004
2026/05/14 10:32:52.196,0.03,-0.057,1.001
2026/05/14 10:32:52.216,0.019,-0.064,0.989
2026/05/14 10:32:52.236,0.004,-0.063,0.996
2026/05/14 10:32:52.256,0.001,-0.055,0.994
2026/05/14 10:32:52.276,-0.002,-0.046,1.002
2026/05/14 10:32:52.296,-0.004,-0.024,0.992
2026/05/14 10:32:52.316,-0.014,-0.014,0.989
2026/05/14 10:32:52.335,-0.013,-0.019,0.998
2026/05/14 10:32:52.355,-0.014,-0.026,0.99
2026/05/14 10:32:52.375,-0.011,-0.048,0.994
2026/05/14 10:32:52.395,-0.008,-0.054,0.99
2026/05/14 10:32:52.415,-0.005,-0.057,0.986
2026/05/14 10:32:52.435,0.011,-0.051,0.996
2026/05/14 10:32:52.455,0.015,-0.043,0.99
2026/05/14 10:32:52.475,0.028,-0.041,0.999
2026/05/14 10:32:52.495,0.031,-0.036,0.988
2026/05/14 10:32:52.515,0.021,-0.04,0.983
2026/05/14 10:32:52.535,0.009,-0.046,0.997
2026/05/14 10:32:52.554,-0.001,-0.05,0.997
2026/05/14 10:32:52.574,-0.007,-0.049,0.984
2026/05/14 10:32:52.594,-0.014,-0.045,0.995
2026/05/14 10:32:52.614,-0.011,-0.037,0.992
2026/05/14 10:32:52.634,-0.003,-0.033,0.99
2026/05/14 10:32:52.654,-0.005,-0.03,0.987
2026/05/14 10:32:52.674,-0.007,-0.035,0.991
2026/05/14 10:32:52.694,-0.004,-0.045,0.995
2026/05/14 10:32:52.714,0.003,-0.046,0.994
2026/05/14 10:32:52.734,0.014,-0.05,0.984
2026/05/14 10:32:52.754,0.019,-0.053,0.992
2026/05/14 10:32:52.774,0.021,-0.052,0.993
2026/05/14 10:32:52.793,0.014,-0.052,0.995
2026/05/14 10:32:52.813,0.007,-0.048,0.989
2026/05/14 10:32:52.833,0.003,-0.042,0.99
2026/05/14 10:32:52.853,0.0,-0.035,1.0
2026/05/14 10:32:52.873,-0.01,-0.039,0.992
2026/05/14 10:32:52.893,-0.006,-0.034,0.992
2026/05/14 10:32:52.913,-0.009,-0.036,0.998
2026/05/14 10:32:52.933,-0.007,-0.038,0.988
2026/05/14 10:32:52.953,-0.006,-0.041,0.998
2026/05/14 10:32:52.973,-0.004,-0.043,0.991
2026/05/14 10:32:52.993,0.003,-0.043,0.99
2026/05/14 10:32:53.012,0.006,-0.041,1.001
2026/05/14 10:32:53.032,0.021,-0.041,0.989
2026/05/14 10:32:53.052,0.015,-0.042,0.992
2026/05/14 10:32:53.072,0.012,-0.043,0.987
2026/05/14 10:32:53.092,0.009,-0.049,0.993
2026/05/14 10:32:53.112,0.005,-0.048,0.996
2026/05/14 10:32:53.132,-0.001,-0.046,0.99
2026/05/14 10:32:53.152,-0.003,-0.039,0.993
2026/05/14 10:32:53.172,-0.004,-0.04,0.994
2026/05/14 10:32:53.192,-0.003,-0.034,0.991
2026/05/14 10:32:53.212,-0.007,-0.04,0.997
2026/05/14 10:32:53.232,-0.005,-0.04,0.99
2026/05/14 10:32:53.251,-0.005,-0.039,0.987
2026/05/14 10:32:53.271,-0.001,-0.045,0.994
2026/05/14 10:32:53.291,0.005,-0.047,0.996
2026/05/14 10:32:53.311,0.01,-0.049,0.992
2026/05/14 10:32:53.331,0.014,-0.043,0.989
2026/05/14 10:32:53.351,0.012,-0.039,0.994
2026/05/14 10:32:53.371,0.012,-0.043,0.987
2026/05/14 10:32:53.391,0.005,-0.045,0.991
2026/05/14 10:32:53.411,0.002,-0.042,0.999
2026/05/14 10:32:53.431,-0.006,-0.04,0.991
2026/05/14 10:32:53.451,-0.001,-0.042,0.99
2026/05/14 10:32:53.470,-0.002,-0.04,0.995
2026/05/14 10:32:53.490,-0.006,-0.039,0.99
2026/05/14 10:32:53.510,-0.004,-0.042,0.99
2026/05/14 10:32:53.530,-0.002,-0.042,0.992
2026/05/14 10:32:53.550,0.002,-0.039,0.987
2026/05/14 10:32:53.570,0.005,-0.046,0.995
2026/05/14 10:32:53.590,0.007,-0.045,0.991
2026/05/14 10:32:53.610,0.013,-0.044,0.989
2026/05/14 10:32:53.630,0.008,-0.04,0.992
2026/05/14 10:32:53.650,0.008,-0.043,0.989
2026/05/14 10:32:53.670,0.005,-0.044,0.993
2026/05/14 10:32:53.689,0.002,-0.041,0.994
2026/05/14 10:32:53.709,0.005,-0.042,0.988
2026/05/14 10:32:53.729,0.0,-0.033,0.99
2026/05/14 10:32:53.749,-0.006,-0.04,0.994
2026/05/14 10:32:53.769,-0.003,-0.04,0.994
2026/05/14 10:32:53.789,0.0,-0.043,0.991
2026/05/14 10:32:53.809,-0.001,-0.041,0.994
2026/05/14 10:32:53.829,-0.002,-0.045,0.991
2026/05/14 10:32:53.849,0.002,-0.043,0.991
2026/05/14 10:32:53.869,0.005,-0.042,0.99
2026/05/14 10:32:53.889,0.01,-0.041,0.99
2026/05/14 10:32:53.909,0.009,-0.043,0.991
2026/05/14 10:32:53.928,0.006,-0.044,0.991
2026/05/14 10:32:53.948,0.009,-0.045,0.99
2026/05/14 10:32:53.968,0.003,-0.042,0.99
2026/05/14 10:32:53.988,0.001,-0.044,0.99
2026/05/14 10:32:54.008,-0.001,-0.04,0.994
2026/05/14 10:32:54.028,0.002,-0.038,0.989
2026/05/14 10:32:54.048,0.0,-0.042,0.992
2026/05/14 10:32:54.068,0.001,-0.04,0.998
2026/05/14 10:32:54.088,0.001,-0.041,0.993
2026/05/14 10:32:54.108,0.002,-0.043,0.994
2026/05/14 10:32:54.128,0.007,-0.045,0.993
2026/05/14 10:32:54.147,0.006,-0.045,0.997
2026/05/14 10:32:54.167,0.009,-0.045,0.991
2026/05/14 10:32:54.187,0.009,-0.042,0.991
2026/05/14 10:32:54.207,0.009,-0.045,0.991
2026/05/14 10:32:54.227,0.003,-0.041,0.988
2026/05/14 10:32:54.247,0.001,-0.044,0.989
2026/05/14 10:32:54.267,0.0,-0.042,0.992
2026/05/14 10:32:54.287,0.0,-0.04,0.992
2026/05/14 10:32:54.307,0.0,-0.041,0.994
2026/05/14 10:32:54.327,0.003,-0.042,0.994
2026/05/14 10:32:54.347,-0.002,-0.04,0.995
2026/05/14 10:32:54.367,-0.001,-0.039,0.992
2026/05/14 10:32:54.386,0.003,-0.045,0.992
2026/05/14 10:32:54.406,0.0,-0.045,0.987
2026/05/14 10:32:54.426,0.006,-0.041,0.993
2026/05/14 10:32:54.446,0.007,-0.047,0.996
2026/05/14 10:32:54.466,0.009,-0.045,0.992
2026/05/14 10:32:54.486,0.006,-0.042,0.993
2026/05/14 10:32:54.506,0.006,-0.043,0.991
2026/05/14 10:32:54.526,-0.001,-0.043,0.992
2026/05/14 10:32:54.546,0.002,-0.044,0.99
2026/05/14 10:32:54.566,0.003,-0.04,0.987
2026/05/14 10:32:54.586,0.003,-0.039,0.993
2026/05/14 10:32:54.605,0.003,-0.042,0.989
2026/05/14 10:32:54.625,-0.001,-0.042,0.99
2026/05/14 10:32:54.645,0.001,-0.045,0.991
2026/05/14 10:32:54.665,0.002,-0.041,0.993
2026/05/14 10:32:54.685,0.002,-0.044,0.994
2026/05/14 10:32:54.705,0.007,-0.045,0.988
2026/05/14 10:32:54.725,0.005,-0.044,0.994
2026/05/14 10:32:54.745,0.007,-0.045,0.994
2026/05/14 10:32:54.765,0.005,-0.042,0.991
2026/05/14 10:32:54.785,0.008,-0.045,0.994
2026/05/14 10:32:54.805,0.006,-0.045,0.994
2026/05/14 10:32:54.824,0.0,-0.045,0.99
2026/05/14 10:32:54.844,0.001,-0.041,0.995
2026/05/14 10:32:54.864,0.002,-0.042,0.993
2026/05/14 10:32:54.884,0.002,-0.041,0.992
2026/05/14 10:32:54.904,0.0,-0.042,0.991
2026/05/14 10:32:54.924,0.001,-0.044,0.991
2026/05/14 10:32:54.944,0.003,-0.04,0.992
2026/05/14 10:32:54.964,0.002,-0.044,0.992
2026/05/14 10:32:54.984,0.006,-0.042,0.996
2026/05/14 10:32:55.004,0.003,-0.042,0.988
2026/05/14 10:32:55.024,0.006,-0.04,0.993
2026/05/14 10:32:55.044,0.002,-0.045,0.991
2026/05/14 10:32:55.063,0.004,-0.041,0.99
2026/05/14 10:32:55.083,0.001,-0.043,0.99
2026/05/14 10:32:55.103,0.003,-0.045,0.992
2026/05/14 10:32:55.123,0.003,-0.04,0.991
2026/05/14 10:32:55.143,0.001,-0.046,0.991
2026/05/14 10:32:55.163,0.003,-0.045,0.991
2026/05/14 10:32:55.183,0.001,-0.042,0.992
2026/05/14 10:32:55.203,0.003,-0.038,0.993
2026/05/14 10:32:55.223,0.001,-0.041,0.994
2026/05/14 10:32:55.243,0.005,-0.042,0.994
2026/05/14 10:32:55.263,0.008,-0.041,0.992
2026/05/14 10:32:55.282,0.004,-0.039,0.992
2026/05/14 10:32:55.302,0.004,-0.042,0.99
2026/05/14 10:32:55.322,0.005,-0.045,0.99
2026/05/14 10:32:55.342,0.003,-0.045,0.99
2026/05/14 10:32:55.362,0.005,-0.049,0.991
2026/05/14 10:32:55.382,0.003,-0.039,0.992
2026/05/14 10:32:55.402,0.004,-0.043,0.99
2026/05/14 10:32:55.422,0.004,-0.041,0.994
2026/05/14 10:32:55.442,-0.001,-0.044,0.987
2026/05/14 10:32:55.462,0.003,-0.043,0.993
2026/05/14 10:32:55.482,0.001,-0.045,0.989
2026/05/14 10:32:55.502,0.003,-0.044,0.992
2026/05/14 10:32:55.521,0.005,-0.045,0.989
2026/05/14 10:32:55.541,0.004,-0.044,0.99
2026/05/14 10:32:55.561,0.004,-0.045,0.99
2026/05/14 10:32:55.581,0.004,-0.042,0.991
2026/05/14 10:32:55.601,0.006,-0.045,0.988
2026/05/14 10:32:55.621,-0.001,-0.041,0.99
2026/05/14 10:32:55.641,0.0,-0.041,0.992
2026/05/14 10:32:55.661,0.0,-0.041,0.989
2026/05/14 10:32:55.681,0.003,-0.043,0.99
2026/05/14 10:32:55.701,0.003,-0.042,1.0
2026/05/14 10:32:55.721,0.004,-0.042,0.996
2026/05/14 10:32:55.740,0.003,-0.044,0.993
2026/05/14 10:32:55.760,0.001,-0.04,0.99
2026/05/14 10:32:55.780,0.003,-0.044,0.993
2026/05/14 10:32:55.800,0.006,-0.041,0.993
2026/05/14 10:32:55.820,0.008,-0.042,0.995
2026/05/14 10:32:55.840,0.001,-0.043,0.991
2026/05/14 10:32:55.860,0.008,-0.038,0.993
2026/05/14 10:32:55.880,0.002,-0.044,0.992
2026/05/14 10:32:55.900,0.003,-0.041,0.988
2026/05/14 10:32:55.920,0.004,-0.042,0.99
2026/05/14 10:32:55.940,0.004,-0.042,0.989
2026/05/14 10:32:55.959,-0.001,-0.044,0.987
2026/05/14 10:32:55.979,0.003,-0.045,0.991
2026/05/14 10:32:55.999,0.003,-0.043,0.989
2026/05/14 10:32:56.019,0.004,-0.042,0.991
2026/05/14 10:32:56.039,0.002,-0.045,0.995
2026/05/14 10:32:56.059,0.005,-0.046,0.992
2026/05/14 10:32:56.079,0.003,-0.043,0.994
2026/05/14 10:32:56.099,0.005,-0.04,0.993
2026/05/14 10:32:56.119,0.001,-0.043,0.991
2026/05/14 10:32:56.139,0.004,-0.044,0.992
2026/05/14 10:32:56.159,0.002,-0.045,0.995
2026/05/14 10:32:56.178,0.005,-0.04,0.992
2026/05/14 10:32:56.198,0.003,-0.044,0.996
2026/05/14 10:32:56.218,0.001,-0.043,0.994
2026/05/14 10:32:56.238,-0.002,-0.038,0.992
2026/05/14 10:32:56.258,0.004,-0.049,0.992
2026/05/14 10:32:56.278,0.003,-0.046,0.997
2026/05/14 10:32:56.298,0.003,-0.042,0.995
2026/05/14 10:32:56.318,0.003,-0.043,0.994
2026/05/14 10:32:56.338,0.003,-0.043,0.992
2026/05/14 10:32:56.358,0.006,-0.044,0.992
2026/05/14 10:32:56.378,0.004,-0.041,0.992
2026/05/14 10:32:56.397,-0.001,-0.04,0.993
2026/05/14 10:32:56.417,0.003,-0.04,0.991
2026/05/14 10:32:56.437,-0.001,-0.045,0.99
2026/05/14 10:32:56.457,0.002,-0.042,0.993
2026/05/14 10:32:56.477,0.004,-0.039,0.992
2026/05/14 10:32:56.497,0.0,-0.043,0.988
2026/05/14 10:32:56.517,0.001,-0.04,0.998
2026/05/14 10:32:56.537,0.004,-0.042,0.995
2026/05/14 10:32:56.557,0.004,-0.042,0.992
2026/05/14 10:32:56.577,0.004,-0.043,0.992
2026/05/14 10:32:56.597,0.002,-0.041,0.993
2026/05/14 10:32:56.616,0.001,-0.04,0.99
2026/05/14 10:32:56.636,0.004,-0.045,0.99
2026/05/14 10:32:56.656,0.003,-0.04,0.992
2026/05/14 10:32:56.676,0.004,-0.04,0.99
2026/05/14 10:32:56.696,0.005,-0.044,0.992
2026/05/14 10:32:56.716,0.0,-0.04,0.992
2026/05/14 10:32:56.736,0.004,-0.044,0.995
2026/05/14 10:32:56.756,0.002,-0.041,0.997
2026/05/14 10:32:56.776,0.005,-0.045,0.988
2026/05/14 10:32:56.796,0.003,-0.043,0.992
2026/05/14 10:32:56.816,0.002,-0.046,0.988
2026/05/14 10:32:56.835,0.004,-0.046,0.991
2026/05/14 10:32:56.855,0.008,-0.041,0.991
2026/05/14 10:32:56.875,0.006,-0.043,0.991
2026/05/14 10:32:56.895,0.006,-0.042,0.991
2026/05/14 10:32:56.915,0.002,-0.045,0.993
2026/05/14 10:32:56.935,-0.001,-0.046,0.989
2026/05/14 10:32:56.955,0.003,-0.041,0.992
2026/05/14 10:32:56.975,0.001,-0.038,0.992
2026/05/14 10:32:56.995,0.004,-0.042,0.992
2026/05/14 10:32:57.015,0.0,-0.041,0.996
2026/05/14 10:32:57.035,-0.001,-0.039,0.992
2026/05/14 10:32:57.054,0.004,-0.039,0.994
2026/05/14 10:32:57.074,0.003,-0.045,0.992
2026/05/14 10:32:57.094,0.001,-0.047,0.993
2026/05/14 10:32:57.114,0.001,-0.043,0.995
2026/05/14 10:32:57.134,0.003,-0.04,0.993
2026/05/14 10:32:57.154,0.005,-0.04,0.992
2026/05/14 10:32:57.174,0.005,-0.041,0.991
2026/05/14 10:32:57.194,0.0,-0.043,0.993
2026/05/14 10:32:57.214,0.006,-0.041,0.992
2026/05/14 10:32:57.234,0.001,-0.042,0.993
2026/05/14 10:32:57.254,0.005,-0.045,0.994
2026/05/14 10:32:57.273,0.003,-0.04,0.989
2026/05/14 10:32:57.293,-0.001,-0.04,0.992
2026/05/14 10:32:57.313,0.001,-0.043,0.99
2026/05/14 10:32:57.333,0.003,-0.044,0.991
2026/05/14 10:32:57.353,0.003,-0.041,0.991
2026/05/14 10:32:57.373,0.005,-0.04,0.996
2026/05/14 10:32:57.393,0.004,-0.043,0.994
2026/05/14 10:32:57.413,0.003,-0.042,0.994
2026/05/14 10:32:57.433,0.005,-0.048,0.994
2026/05/14 10:32:57.453,0.003,-0.043,0.991
2026/05/14 10:32:57.473,0.004,-0.04,0.993
2026/05/14 10:32:57.492,0.002,-0.042,0.991
2026/05/14 10:32:57.512,0.006,-0.042,0.989
2026/05/14 10:32:57.532,0.001,-0.041,0.993
2026/05/14 10:32:57.552,0.002,-0.043,0.993
2026/05/14 10:32:57.572,0.002,-0.043,0.995
2026/05/14 10:32:57.592,0.002,-0.047,0.994
2026/05/14 10:32:57.612,0.002,-0.041,0.995
2026/05/14 10:32:57.632,0.002,-0.044,0.99
2026/05/14 10:32:57.652,0.001,-0.041,0.992
2026/05/14 10:32:57.672,0.003,-0.042,0.993
2026/05/14 10:32:57.692,0.007,-0.044,0.992
2026/05/14 10:32:57.711,0.004,-0.043,0.992
2026/05/14 10:32:57.731,0.002,-0.042,0.992
2026/05/14 10:32:57.751,0.001,-0.041,0.991
2026/05/14 10:32:57.771,0.004,-0.041,0.992
2026/05/14 10:32:57.791,0.004,-0.041,0.992
2026/05/14 10:32:57.811,0.001,-0.04,0.99
2026/05/14 10:32:57.831,0.0,-0.039,0.994
2026/05/14 10:32:57.851,0.0,-0.04,0.994
2026/05/14 10:32:57.871,0.005,-0.045,0.989
2026/05/14 10:32:57.891,0.007,-0.045,0.992
2026/05/14 10:32:57.911,-0.001,-0.044,0.992
2026/05/14 10:32:57.930,0.003,-0.042,0.992
2026/05/14 10:32:57.950,0.004,-0.046,0.991
2026/05/14 10:32:57.970,0.0,-0.04,0.992
2026/05/14 10:32:57.990,0.002,-0.044,0.991
2026/05/14 10:32:58.010,0.005,-0.042,0.99
2026/05/14 10:32:58.030,0.002,-0.04,0.987
2026/05/14 10:32:58.050,0.0,-0.043,0.993
2026/05/14 10:32:58.070,0.002,-0.045,0.993
2026/05/14 10:32:58.090,0.001,-0.046,0.993
2026/05/14 10:32:58.110,0.005,-0.039,0.999
2026/05/14 10:32:58.130,0.003,-0.043,0.994
2026/05/14 10:32:58.149,0.003,-0.04,0.993
2026/05/14 10:32:58.169,0.004,-0.044,0.989
2026/05/14 10:32:58.189,0.001,-0.041,0.994
2026/05/14 10:32:58.209,0.003,-0.043,0.992
2026/05/14 10:32:58.229,0.004,-0.042,0.99
2026/05/14 10:32:58.249,0.002,-0.043,0.992
2026/05/14 10:32:58.269,0.004,-0.04,0.991
2026/05/14 10:32:58.289,0.008,-0.042,0.989
2026/05/14 10:32:58.309,0.004,-0.043,0.992
2026/05/14 10:32:58.329,0.002,-0.047,0.992
2026/05/14 10:32:58.349,0.003,-0.048,0.991
2026/05/14 10:32:58.368,0.003,-0.042,0.991
2026/05/14 10:32:58.388,0.008,-0.042,0.986
2026/05/14 10:32:58.408,0.005,-0.043,0.991
2026/05/14 10:32:58.428,0.003,-0.041,0.991
2026/05/14 10:32:58.448,0.006,-0.037,0.988
2026/05/14 10:32:58.468,0.003,-0.042,0.997
2026/05/14 10:32:58.488,0.004,-0.044,0.993
2026/05/14 10:32:58.508,0.003,-0.048,0.989
2026/05/14 10:32:58.528,0.003,-0.04,0.989
2026/05/14 10:32:58.548,0.003,-0.04,0.992
2026/05/14 10:32:58.568,0.003,-0.042,0.996
2026/05/14 10:32:58.587,0.003,-0.043,0.998
2026/05/14 10:32:58.607,0.002,-0.045,0.992
2026/05/14 10:32:58.627,0.007,-0.044,0.986
2026/05/14 10:32:58.647,0.006,-0.043,0.992
2026/05/14 10:32:58.667,0.001,-0.045,0.995
2026/05/14 10:32:58.687,0.005,-0.041,0.991
2026/05/14 10:32:58.707,0.005,-0.042,0.998
2026/05/14 10:32:58.727,0.005,-0.039,0.991
2026/05/14 10:32:58.747,0.003,-0.04,0.998
2026/05/14 10:32:58.767,0.001,-0.046,0.995
2026/05/14 10:32:58.787,0.003,-0.042,0.987
2026/05/14 10:32:58.807,0.005,-0.043,0.989
2026/05/14 10:32:58.826,0.001,-0.043,0.997
2026/05/14 10:32:58.846,0.003,-0.043,0.993
2026/05/14 10:32:58.866,0.005,-0.041,0.988
2026/05/14 10:32:58.886,0.003,-0.04,0.993
2026/05/14 10:32:58.906,0.0,-0.043,0.993
2026/05/14 10:32:58.926,0.0,-0.043,0.992
2026/05/14 10:32:58.946,0.005,-0.042,0.992
2026/05/14 10:32:58.966,0.0,-0.047,0.997
2026/05/14 10:32:58.986,0.002,-0.042,0.994
2026/05/14 10:32:59.006,0.032,0.042,1.213
2026/05/14 10:32:59.026,-0.044,-0.132,1.65
2026/05/14 10:32:59.045,-0.03,0.126,0.642
2026/05/14 10:32:59.065,0.036,-0.019,1.181
2026/05/14 10:32:59.085,0.047,-0.056,1.094
2026/05/14 10:32:59.105,0.025,-0.057,1.103
2026/05/14 10:32:59.125,0.015,-0.045,1.055
2026/05/14 10:32:59.145,-0.023,-0.011,0.925
2026/05/14 10:32:59.165,0.003,-0.022,0.982
2026/05/14 10:32:59.185,-0.008,-0.032,0.97
2026/05/14 10:32:59.205,-0.013,-0.092,0.932
2026/05/14 10:32:59.225,0.006,-0.041,0.97
2026/05/14 10:32:59.245,-0.032,-0.058,0.964
2026/05/14 10:32:59.264,-0.015,-0.048,1.022
2026/05/14 10:32:59.284,-0.005,-0.036,0.958
2026/05/14 10:32:59.304,0.033,-0.038,0.956
2026/05/14 10:32:59.324,0.13,-0.119,2.389
2026/05/14 10:32:59.344,-0.018,-0.02,0.023
2026/05/14 10:32:59.364,0.112,-0.464,3.108
2026/05/14 10:32:59.384,-0.052,-0.101,1.549
2026/05/14 10:32:59.404,-0.081,-0.166,1.314
2026/05/14 10:32:59.424,-0.098,-0.005,0.734
2026/05/14 10:32:59.444,0.049,-0.041,0.935
2026/05/14 10:32:59.464,-0.008,-0.041,0.871
2026/05/14 10:32:59.484,-0.02,-0.051,1.015
2026/05/14 10:32:59.503,-0.028,-0.089,0.964
2026/05/14 10:32:59.523,-0.008,-0.062,0.961
2026/05/14 10:32:59.543,0.025,-0.059,0.948
2026/05/14 10:32:59.563,0.0,-0.035,0.868
2026/05/14 10:32:59.583,0.016,-0.048,0.984
2026/05/14 10:32:59.603,0.013,-0.062,1.005
2026/05/14 10:32:59.623,0.001,-0.053,0.939
2026/05/14 10:32:59.643,-0.004,-0.056,0.982
2026/05/14 10:32:59.663,-0.001,-0.049,0.945
2026/05/14 10:32:59.683,-0.001,-0.044,0.96
2026/05/14 10:32:59.703,0.001,-0.037,0.962
2026/05/14 10:32:59.722,-0.002,-0.035,0.982
2026/05/14 10:32:59.742,-0.014,-0.034,0.991
2026/05/14 10:32:59.762,-0.012,-0.042,0.984
2026/05/14 10:32:59.782,-0.019,-0.038,0.988
2026/05/14 10:32:59.802,-0.006,-0.047,0.984
2026/05/14 10:32:59.822,0.004,-0.048,0.977
2026/05/14 10:32:59.842,0.009,-0.049,0.993
2026/05/14 10:32:59.862,0.014,-0.048,0.987
2026/05/14 10:32:59.882,0.011,-0.042,0.98
2026/05/14 10:32:59.902,0.011,-0.042,0.991
2026/05/14 10:32:59.922,0.009,-0.04,0.991
2026/05/14 10:32:59.941,0.004,-0.045,0.987
2026/05/14 10:32:59.961,0.001,-0.042,0.992
2026/05/14 10:32:59.981,0.001,-0.041,0.987
2026/05/14 10:33:00.001,-0.003,-0.044,0.998
2026/05/14 10:33:00.021,-0.006,-0.038,0.989
2026/05/14 10:33:00.041,-0.005,-0.037,0.993
2026/05/14 10:33:00.061,-0.002,-0.037,0.99
2026/05/14 10:33:00.081,0.0,-0.04,0.992
2026/05/14 10:33:00.101,-0.002,-0.043,0.998
2026/05/14 10:33:00.121,0.002,-0.043,0.988
2026/05/14 10:33:00.141,0.001,-0.048,0.993
2026/05/14 10:33:00.161,0.008,-0.042,0.997
2026/05/14 10:33:00.180,0.012,-0.044,0.991
2026/05/14 10:33:00.200,0.009,-0.041,0.989
2026/05/14 10:33:00.220,0.006,-0.045,0.995
2026/05/14 10:33:00.240,0.007,-0.043,0.996
2026/05/14 10:33:00.260,0.001,-0.043,0.99
2026/05/14 10:33:00.280,-0.002,-0.04,0.99
2026/05/14 10:33:00.300,0.0,-0.038,0.988
2026/05/14 10:33:00.320,-0.002,-0.04,0.993
2026/05/14 10:33:00.340,-0.001,-0.039,0.993
2026/05/14 10:33:00.360,-0.004,-0.042,0.989
2026/05/14 10:33:00.380,-0.005,-0.044,0.995
2026/05/14 10:33:00.399,0.001,-0.046,0.994
2026/05/14 10:33:00.419,0.007,-0.05,0.993
2026/05/14 10:33:00.439,0.006,-0.041,0.991
2026/05/14 10:33:00.459,0.008,-0.043,0.991
2026/05/14 10:33:00.479,0.011,-0.042,0.996
2026/05/14 10:33:00.499,0.007,-0.047,0.99
2026/05/14 10:33:00.519,0.002,-0.049,0.991
2026/05/14 10:33:00.539,0.0,-0.045,0.993
2026/05/14 10:33:00.559,0.004,-0.044,0.994
2026/05/14 10:33:00.579,-0.001,-0.039,0.994
2026/05/14 10:33:00.599,0.002,-0.038,0.991
2026/05/14 10:33:00.618,0.001,-0.04,0.991
2026/05/14 10:33:00.638,0.0,-0.041,0.995
2026/05/14 10:33:00.658,0.001,-0.044,0.992
2026/05/14 10:33:00.678,0.001,-0.044,0.99
2026/05/14 10:33:00.698,0.004,-0.044,0.991
2026/05/14 10:33:00.718,0.003,-0.043,0.994
2026/05/14 10:33:00.738,0.007,-0.048,0.991
2026/05/14 10:33:00.758,0.01,-0.043,0.987
2026/05/14 10:33:00.778,0.006,-0.043,0.995
2026/05/14 10:33:00.798,0.008,-0.043,0.997
2026/05/14 10:33:00.818,0.002,-0.047,0.993
2026/05/14 10:33:00.837,-0.002,-0.038,0.987
2026/05/14 10:33:00.857,0.002,-0.044,0.992
2026/05/14 10:33:00.877,0.0,-0.039,0.989
2026/05/14 10:33:00.897,-0.003,-0.039,0.989
2026/05/14 10:33:00.917,-0.001,-0.043,0.99
2026/05/14 10:33:00.937,-0.003,-0.045,0.991
2026/05/14 10:33:00.957,0.002,-0.046,0.994
2026/05/14 10:33:00.977,0.003,-0.042,0.991
2026/05/14 10:33:00.997,0.005,-0.041,0.988
2026/05/14 10:33:01.017,0.003,-0.042,0.997
2026/05/14 10:33:01.037,0.004,-0.042,0.993
2026/05/14 10:33:01.056,0.01,-0.044,0.993
2026/05/14 10:33:01.076,0.006,-0.045,0.99
2026/05/14 10:33:01.096,0.0,-0.044,0.996
2026/05/14 10:33:01.116,0.003,-0.041,0.995
2026/05/14 10:33:01.136,0.002,-0.043,0.987
2026/05/14 10:33:01.156,0.002,-0.04,0.994
2026/05/14 10:33:01.176,0.001,-0.044,0.988
2026/05/14 10:33:01.196,0.0,-0.042,0.987
2026/05/14 10:33:01.216,0.0,-0.04,0.992
2026/05/14 10:33:01.236,0.004,-0.043,0.996
2026/05/14 10:33:01.256,0.004,-0.043,0.991
2026/05/14 10:33:01.276,0.007,-0.043,0.994
2026/05/14 10:33:01.295,0.005,-0.043,0.991
2026/05/14 10:33:01.315,0.008,-0.041,0.99
2026/05/14 10:33:01.335,0.007,-0.04,0.991
2026/05/14 10:33:01.355,0.004,-0.042,0.993
2026/05/14 10:33:01.375,0.007,-0.041,0.993
2026/05/14 10:33:01.395,0.004,-0.045,0.993
2026/05/14 10:33:01.415,-0.001,-0.043,0.993
2026/05/14 10:33:01.435,0.001,-0.042,0.99
2026/05/14 10:33:01.455,-0.003,-0.042,0.991
2026/05/14 10:33:01.475,0.004,-0.038,0.991
2026/05/14 10:33:01.495,-0.037,-0.22,1.031
2026/05/14 10:33:01.514,-0.09,-0.117,1.506
2026/05/14 10:33:01.534,-0.059,-0.096,1.405
2026/05/14 10:33:01.554,0.016,0.165,1.137
2026/05/14 10:33:01.574,-0.05,0.073,0.854
2026/05/14 10:33:01.594,-0.059,0.02,0.951
2026/05/14 10:33:01.614,-0.039,-0.028,1.046
2026/05/14 10:33:01.634,0.039,-0.037,0.991
2026/05/14 10:33:01.654,-0.032,-0.029,1.133
2026/05/14 10:33:01.674,-0.023,-0.16,1.17
2026/05/14 10:33:01.694,0.036,-0.067,0.967
2026/05/14 10:33:01.714,0.002,-0.089,1.033
2026/05/14 10:33:01.733,0.012,-0.042,0.966
2026/05/14 10:33:01.753,0.006,-0.069,1.087
2026/05/14 10:33:01.773,0.064,-0.033,1.005
2026/05/14 10:33:01.793,0.048,-0.041,0.996
2026/05/14 10:33:01.813,0.032,-0.029,1.014
2026/05/14 10:33:01.833,0.009,-0.043,0.975
2026/05/14 10:33:01.853,-0.027,-0.042,0.973
2026/05/14 10:33:01.873,-0.012,-0.057,1.024
2026/05/14 10:33:01.893,-0.008,-0.043,0.958
2026/05/14 10:33:01.913,-0.009,-0.045,1.002
2026/05/14 10:33:01.933,0.003,-0.028,0.984
2026/05/14 10:33:01.952,-0.001,-0.03,0.964
2026/05/14 10:33:01.972,-0.007,-0.032,0.997
2026/05/14 10:33:01.992,-0.01,-0.037,0.999
2026/05/14 10:33:02.012,-0.005,-0.047,0.983
2026/05/14 10:33:02.032,0.009,-0.04,0.996
2026/05/14 10:33:02.052,0.017,-0.051,0.986
2026/05/14 10:33:02.072,0.015,-0.046,0.99
2026/05/14 10:33:02.092,0.008,-0.048,0.991
2026/05/14 10:33:02.112,0.004,-0.051,0.989
2026/05/14 10:33:02.132,0.003,-0.042,0.99
2026/05/14 10:33:02.152,0.003,-0.037,0.987
2026/05/14 10:33:02.172,0.003,-0.037,0.999
2026/05/14 10:33:02.191,0.002,-0.035,0.989
2026/05/14 10:33:02.211,-0.005,-0.039,0.988
2026/05/14 10:33:02.231,-0.01,-0.04,0.994
2026/05/14 10:33:02.251,-0.006,-0.044,0.996
2026/05/14 10:33:02.271,0.001,-0.041,0.99
2026/05/14 10:33:02.291,0.005,-0.039,0.984
2026/05/14 10:33:02.311,0.009,-0.042,0.988
2026/05/14 10:33:02.331,0.013,-0.045,0.993
2026/05/14 10:33:02.351,0.004,-0.042,0.991
2026/05/14 10:33:02.371,0.002,-0.044,0.99
2026/05/14 10:33:02.391,0.001,-0.046,0.997
2026/05/14 10:33:02.410,0.003,-0.045,0.994
2026/05/14 10:33:02.430,0.001,-0.04,0.991
2026/05/14 10:33:02.450,-0.005,-0.04,0.995
2026/05/14 10:33:02.470,-0.002,-0.038,0.996
2026/05/14 10:33:02.490,-0.006,-0.038,0.99
2026/05/14 10:33:02.510,-0.004,-0.04,0.989
2026/05/14 10:33:02.530,0.0,-0.041,0.993
2026/05/14 10:33:02.550,0.002,-0.041,0.992
2026/05/14 10:33:02.570,0.006,-0.043,0.994
2026/05/14 10:33:02.590,0.002,-0.046,0.988
2026/05/14 10:33:02.610,0.003,-0.044,0.992
2026/05/14 10:33:02.630,0.001,-0.043,0.993
2026/05/14 10:33:02.649,0.003,-0.041,0.993
2026/05/14 10:33:02.669,0.003,-0.038,0.987
2026/05/14 10:33:02.689,0.005,-0.041,0.993
2026/05/14 10:33:02.709,-0.002,-0.043,0.996
2026/05/14 10:33:02.729,-0.007,-0.039,0.988
2026/05/14 10:33:02.749,-0.003,-0.04,0.99
2026/05/14 10:33:02.769,0.0,-0.038,0.993
2026/05/14 10:33:02.789,0.003,-0.04,0.997
2026/05/14 10:33:02.809,0.003,-0.041,0.99
2026/05/14 10:33:02.829,0.004,-0.044,0.987
2026/05/14 10:33:02.849,0.002,-0.042,0.991
2026/05/14 10:33:02.868,0.005,-0.04,0.997
2026/05/14 10:33:02.888,0.004,-0.045,0.997
2026/05/14 10:33:02.908,0.002,-0.045,0.992
2026/05/14 10:33:02.928,0.002,-0.042,0.99
2026/05/14 10:33:02.948,-0.002,-0.038,0.989
2026/05/14 10:33:02.968,-0.003,-0.037,0.991
2026/05/14 10:33:02.988,-0.004,-0.038,0.996
2026/05/14 10:33:03.008,-0.001,-0.042,0.995
2026/05/14 10:33:03.028,-0.002,-0.04,0.992
2026/05/14 10:33:03.048,0.004,-0.045,0.997
2026/05/14 10:33:03.068,0.007,-0.043,0.993
2026/05/14 10:33:03.087,0.007,-0.043,0.995
2026/05/14 10:33:03.107,0.006,-0.044,0.992
2026/05/14 10:33:03.127,0.0,-0.045,0.989
2026/05/14 10:33:03.147,0.002,-0.04,0.994
2026/05/14 10:33:03.167,0.0,-0.039,0.993
2026/05/14 10:33:03.187,-0.005,-0.042,0.99
2026/05/14 10:33:03.207,-0.003,-0.035,0.994
2026/05/14 10:33:03.227,-0.001,-0.033,0.991
2026/05/14 10:33:03.247,-0.004,-0.04,0.993
2026/05/14 10:33:03.267,0.004,-0.041,0.99
2026/05/14 10:33:03.287,0.007,-0.043,0.988
2026/05/14 10:33:03.307,0.008,-0.046,0.991
2026/05/14 10:33:03.326,0.01,-0.046,0.991
2026/05/14 10:33:03.346,0.004,-0.042,0.993
2026/05/14 10:33:03.366,0.01,-0.044,0.991
2026/05/14 10:33:03.386,0.0,-0.04,0.995
2026/05/14 10:33:03.406,-0.002,-0.039,0.993
2026/05/14 10:33:03.426,-0.004,-0.035,0.995
2026/05/14 10:33:03.446,-0.004,-0.039,0.99
2026/05/14 10:33:03.466,-0.005,-0.037,0.993
2026/05/14 10:33:03.486,-0.004,-0.039,0.99
2026/05/14 10:33:03.506,0.0,-0.042,0.992
2026/05/14 10:33:03.526,0.004,-0.04,0.992
2026/05/14 10:33:03.545,0.011,-0.044,0.993
2026/05/14 10:33:03.565,0.01,-0.043,0.989
2026/05/14 10:33:03.585,0.008,-0.047,0.994
2026/05/14 10:33:03.605,0.007,-0.045,0.992
2026/05/14 10:33:03.625,0.001,-0.044,0.992
2026/05/14 10:33:03.645,-0.001,-0.043,0.992
2026/05/14 10:33:03.665,0.001,-0.038,0.997
2026/05/14 10:33:03.685,-0.003,-0.037,0.989
2026/05/14 10:33:03.705,-0.006,-0.036,0.994
2026/05/14 10:33:03.725,-0.004,-0.039,0.992
2026/05/14 10:33:03.745,-0.004,-0.039,0.993
2026/05/14 10:33:03.764,-0.002,-0.044,0.99
2026/05/14 10:33:03.784,0.0,-0.044,0.994
2026/05/14 10:33:03.804,0.006,-0.044,0.99
2026/05/14 10:33:03.824,0.01,-0.042,0.99
2026/05/14 10:33:03.844,0.008,-0.04,0.994
2026/05/14 10:33:03.864,0.007,-0.043,0.993
2026/05/14 10:33:03.884,0.003,-0.04,0.991
2026/05/14 10:33:03.904,0.001,-0.042,0.993
2026/05/14 10:33:03.924,-0.006,-0.042,0.99
2026/05/14 10:33:03.944,-0.002,-0.04,0.991
2026/05/14 10:33:03.964,-0.003,-0.037,0.996
2026/05/14 10:33:03.984,-0.002,-0.038,0.993
2026/05/14 10:33:04.003,-0.004,-0.034,0.991
2026/05/14 10:33:04.023,0.002,-0.039,0.992
2026/05/14 10:33:04.043,0.004,-0.044,0.993
2026/05/14 10:33:04.063,0.004,-0.046,0.991
2026/05/14 10:33:04.083,0.007,-0.045,0.991
2026/05/14 10:33:04.103,0.003,-0.044,0.994
2026/05/14 10:33:04.123,0.006,-0.045,0.989
2026/05/14 10:33:04.143,0.006,-0.043,0.995
2026/05/14 10:33:04.163,0.004,-0.044,0.99
2026/05/14 10:33:04.183,0.0,-0.04,0.993
2026/05/14 10:33:04.203,-0.004,-0.04,0.99
2026/05/14 10:33:04.222,-0.003,-0.043,0.988
2026/05/14 10:33:04.242,-0.002,-0.037,0.994
2026/05/14 10:33:04.262,-0.001,-0.042,0.995
2026/05/14 10:33:04.282,0.002,-0.043,0.991
2026/05/14 10:33:04.302,0.005,-0.044,0.988
2026/05/14 10:33:04.322,0.005,-0.046,0.99
2026/05/14 10:33:04.342,0.007,-0.047,0.997
2026/05/14 10:33:04.362,0.005,-0.046,0.993
2026/05/14 10:33:04.382,0.003,-0.045,0.994
2026/05/14 10:33:04.402,0.003,-0.045,0.99
2026/05/14 10:33:04.422,0.001,-0.04,0.994
2026/05/14 10:33:04.442,-0.002,-0.04,0.996
2026/05/14 10:33:04.461,-0.003,-0.04,0.988
2026/05/14 10:33:04.481,-0.003,-0.037,0.989
2026/05/14 10:33:04.501,-0.003,-0.041,0.992
2026/05/14 10:33:04.521,0.001,-0.039,0.993
2026/05/14 10:33:04.541,0.002,-0.041,0.991
2026/05/14 10:33:04.561,0.005,-0.044,0.993
2026/05/14 10:33:04.581,0.001,-0.044,0.989
2026/05/14 10:33:04.601,0.006,-0.046,0.994
2026/05/14 10:33:04.621,0.008,-0.045,0.996
2026/05/14 10:33:04.641,0.006,-0.043,0.994
2026/05/14 10:33:04.661,0.003,-0.046,0.991
2026/05/14 10:33:04.680,0.0,-0.04,0.991
2026/05/14 10:33:04.700,0.001,-0.044,0.992
2026/05/14 10:33:04.720,-0.006,-0.039,0.992
2026/05/14 10:33:04.740,0.001,-0.04,0.99
2026/05/14 10:33:04.760,0.0,-0.04,0.992
2026/05/14 10:33:04.780,0.0,-0.042,0.994
2026/05/14 10:33:04.800,0.002,-0.043,0.989
2026/05/14 10:33:04.820,0.003,-0.044,0.991
2026/05/14 10:33:04.840,0.003,-0.044,0.988
2026/05/14 10:33:04.860,0.006,-0.041,0.994
2026/05/14 10:33:04.880,0.006,-0.043,0.995
2026/05/14 10:33:04.899,0.003,-0.041,0.989
2026/05/14 10:33:04.919,0.0,-0.04,0.99
2026/05/14 10:33:04.939,-0.001,-0.035,0.992
2026/05/14 10:33:04.959,0.003,-0.043,0.987
2026/05/14 10:33:04.979,-0.001,-0.041,0.996
2026/05/14 10:33:04.999,0.001,-0.042,0.988
2026/05/14 10:33:05.019,0.0,-0.039,0.994
2026/05/14 10:33:05.039,0.0,-0.042,0.992
2026/05/14 10:33:05.059,0.001,-0.042,0.987
2026/05/14 10:33:05.079,0.002,-0.04,0.991
2026/05/14 10:33:05.099,0.004,-0.042,0.993
2026/05/14 10:33:05.119,0.007,-0.044,0.992
2026/05/14 10:33:05.138,0.002,-0.045,0.991
2026/05/14 10:33:05.158,0.001,-0.043,0.997
2026/05/14 10:33:05.178,0.001,-0.042,0.989
2026/05/14 10:33:05.198,-0.002,-0.043,0.987
2026/05/14 10:33:05.218,-0.001,-0.044,0.992
2026/05/14 10:33:05.238,0.001,-0.042,0.992
2026/05/14 10:33:05.258,0.002,-0.041,0.991
2026/05/14 10:33:05.278,-0.001,-0.045,0.992
2026/05/14 10:33:05.298,0.001,-0.041,0.993
2026/05/14 10:33:05.318,0.003,-0.042,0.99
2026/05/14 10:33:05.338,0.002,-0.043,0.994
2026/05/14 10:33:05.357,0.005,-0.042,0.992
2026/05/14 10:33:05.377,0.004,-0.043,0.994
2026/05/14 10:33:05.397,0.003,-0.048,0.992
2026/05/14 10:33:05.417,0.002,-0.038,0.989
2026/05/14 10:33:05.437,-0.004,-0.043,0.995
2026/05/14 10:33:05.457,-0.001,-0.044,0.991
2026/05/14 10:33:05.477,0.0,-0.043,0.99
2026/05/14 10:33:05.497,-0.002,-0.039,0.992
2026/05/14 10:33:05.517,0.001,-0.037,0.992
2026/05/14 10:33:05.537,0.001,-0.04,0.994
2026/05/14 10:33:05.557,0.005,-0.042,0.991
2026/05/14 10:33:05.576,0.005,-0.044,0.994
2026/05/14 10:33:05.596,0.003,-0.045,0.992
2026/05/14 10:33:05.616,0.004,-0.041,0.994
2026/05/14 10:33:05.636,-0.001,-0.042,0.99
2026/05/14 10:33:05.656,0.002,-0.04,0.989
2026/05/14 10:33:05.676,0.0,-0.04,0.989
2026/05/14 10:33:05.696,-0.002,-0.04,0.992
2026/05/14 10:33:05.716,0.001,-0.044,0.994
2026/05/14 10:33:05.736,-0.004,-0.037,0.993
2026/05/14 10:33:05.756,0.002,-0.043,0.994
2026/05/14 10:33:05.776,0.004,-0.043,0.995
2026/05/14 10:33:05.796,0.001,-0.04,0.994
2026/05/14 10:33:05.815,0.001,-0.041,0.99
2026/05/14 10:33:05.835,0.0,-0.042,0.992
2026/05/14 10:33:05.855,0.003,-0.043,0.993
2026/05/14 10:33:05.875,0.003,-0.046,0.994
2026/05/14 10:33:05.895,0.001,-0.042,0.993
2026/05/14 10:33:05.915,0.001,-0.038,0.992
2026/05/14 10:33:05.935,0.005,-0.041,0.994
2026/05/14 10:33:05.955,-0.002,-0.046,0.993
2026/05/14 10:33:05.975,-0.002,-0.039,0.995
2026/05/14 10:33:05.995,0.001,-0.044,0.99
2026/05/14 10:33:06.015,0.0,-0.04,0.992
2026/05/14 10:33:06.034,-0.001,-0.042,0.993
2026/05/14 10:33:06.054,0.001,-0.042,0.99
2026/05/14 10:33:06.074,0.001,-0.045,0.994
2026/05/14 10:33:06.094,0.004,-0.043,0.996
2026/05/14 10:33:06.114,0.003,-0.041,0.993
2026/05/14 10:33:06.134,0.003,-0.041,0.991
2026/05/14 10:33:06.154,0.002,-0.041,0.991
2026/05/14 10:33:06.174,0.001,-0.039,0.994
2026/05/14 10:33:06.194,-0.002,-0.04,0.992
2026/05/14 10:33:06.214,-0.002,-0.042,0.991
2026/05/14 10:33:06.234,-0.003,-0.042,0.99
2026/05/14 10:33:06.254,0.006,-0.048,0.993
2026/05/14 10:33:06.273,0.001,-0.042,0.994
2026/05/14 10:33:06.293,0.005,-0.037,0.992
2026/05/14 10:33:06.313,0.005,-0.045,0.994
2026/05/14 10:33:06.333,0.0,-0.04,0.991
2026/05/14 10:33:06.353,0.003,-0.044,0.99
2026/05/14 10:33:06.373,0.003,-0.04,0.994
2026/05/14 10:33:06.393,0.002,-0.043,0.992
2026/05/14 10:33:06.413,-0.001,-0.037,0.992
2026/05/14 10:33:06.433,-0.002,-0.041,0.992
2026/05/14 10:33:06.453,-0.004,-0.044,0.99
2026/05/14 10:33:06.473,-0.002,-0.043,0.994
2026/05/14 10:33:06.492,0.0,-0.039,0.993
2026/05/14 10:33:06.512,0.003,-0.042,0.991
2026/05/14 10:33:06.532,0.003,-0.039,0.991
2026/05/14 10:33:06.552,0.001,-0.045,0.994
2026/05/14 10:33:06.572,0.005,-0.046,0.992
2026/05/14 10:33:06.592,0.005,-0.045,0.996
2026/05/14 10:33:06.612,0.0,-0.041,0.993
2026/05/14 10:33:06.632,0.004,-0.042,0.993
2026/05/14 10:33:06.652,0.001,-0.042,0.994
2026/05/14 10:33:06.672,0.001,-0.039,0.991
2026/05/14 10:33:06.692,0.001,-0.043,0.991
2026/05/14 10:33:06.711,0.001,-0.04,0.99
2026/05/14 10:33:06.731,-0.002,-0.045,0.993
2026/05/14 10:33:06.751,0.002,-0.04,0.99
2026/05/14 10:33:06.771,-0.002,-0.039,0.99
2026/05/14 10:33:06.791,0.004,-0.039,0.993
2026/05/14 10:33:06.811,0.005,-0.04,0.994
2026/05/14 10:33:06.831,0.003,-0.041,0.993
2026/05/14 10:33:06.851,0.003,-0.041,0.994
2026/05/14 10:33:06.871,0.003,-0.039,0.995
2026/05/14 10:33:06.891,0.0,-0.041,0.994
2026/05/14 10:33:06.911,0.001,-0.042,0.992
2026/05/14 10:33:06.931,0.001,-0.04,0.988
2026/05/14 10:33:06.950,-0.001,-0.04,0.99
2026/05/14 10:33:06.970,-0.003,-0.042,0.99
2026/05/14 10:33:06.990,0.001,-0.039,0.993
2026/05/14 10:33:07.010,0.002,-0.041,0.99
2026/05/14 10:33:07.030,0.001,-0.042,0.994
2026/05/14 10:33:07.050,-0.001,-0.042,0.992
2026/05/14 10:33:07.070,0.0,-0.045,0.992
2026/05/14 10:33:07.090,0.002,-0.042,0.989
2026/05/14 10:33:07.110,0.005,-0.042,0.995
2026/05/14 10:33:07.130,0.004,-0.043,0.992
2026/05/14 10:33:07.150,0.003,-0.041,0.991
2026/05/14 10:33:07.169,0.001,-0.042,0.991
2026/05/14 10:33:07.189,0.0,-0.041,0.992
2026/05/14 10:33:07.209,0.003,-0.041,0.991
2026/05/14 10:33:07.229,0.0,-0.041,0.988
2026/05/14 10:33:07.249,-0.001,-0.04,0.992
2026/05/14 10:33:07.269,0.001,-0.039,0.991
2026/05/14 10:33:07.289,0.002,-0.039,0.994
2026/05/14 10:33:07.309,0.004,-0.041,0.994
2026/05/14 10:33:07.329,0.006,-0.045,0.994
2026/05/14 10:33:07.349,0.004,-0.042,0.991
2026/05/14 10:33:07.369,0.002,-0.042,0.992
2026/05/14 10:33:07.388,0.005,-0.041,0.989
2026/05/14 10:33:07.408,-0.002,-0.039,0.994
2026/05/14 10:33:07.428,0.003,-0.04,0.994
2026/05/14 10:33:07.448,0.0,-0.041,0.993
2026/05/14 10:33:07.468,0.001,-0.043,0.995
2026/05/14 10:33:07.488,0.001,-0.042,0.99
2026/05/14 10:33:07.508,0.002,-0.041,0.992
2026/05/14 10:33:07.528,0.003,-0.04,0.993
2026/05/14 10:33:07.548,0.003,-0.042,0.99
2026/05/14 10:33:07.568,0.002,-0.039,0.993
2026/05/14 10:33:07.588,0.004,-0.04,0.991
2026/05/14 10:33:07.608,0.002,-0.041,0.994
2026/05/14 10:33:07.627,0.0,-0.044,0.991
2026/05/14 10:33:07.647,0.003,-0.044,0.991
2026/05/14 10:33:07.667,0.001,-0.04,0.994
2026/05/14 10:33:07.687,0.004,-0.045,0.991
2026/05/14 10:33:07.707,0.0,-0.041,0.99
2026/05/14 10:33:07.727,0.0,-0.042,0.994
2026/05/14 10:33:07.747,0.004,-0.039,0.987
2026/05/14 10:33:07.767,0.0,-0.044,0.99
2026/05/14 10:33:07.787,0.001,-0.041,0.989
2026/05/14 10:33:07.807,0.004,-0.038,0.99
2026/05/14 10:33:07.827,0.001,-0.042,0.992
2026/05/14 10:33:07.846,0.002,-0.041,0.992
2026/05/14 10:33:07.866,-0.002,-0.043,0.995
2026/05/14 10:33:07.886,-0.002,-0.043,0.994
2026/05/14 10:33:07.906,0.001,-0.044,0.987
2026/05/14 10:33:07.926,-0.001,-0.04,0.994
2026/05/14 10:33:07.946,0.0,-0.042,0.993
2026/05/14 10:33:07.966,0.001,-0.04,0.992
2026/05/14 10:33:07.986,0.001,-0.04,0.994
2026/05/14 10:33:08.006,0.003,-0.045,0.997
2026/05/14 10:33:08.026,0.006,-0.041,0.987
2026/05/14 10:33:08.046,0.0,-0.042,0.988
2026/05/14 10:33:08.066,0.002,-0.04,0.99
2026/05/14 10:33:08.085,0.004,-0.05,0.991
2026/05/14 10:33:08.105,0.001,-0.04,0.994
2026/05/14 10:33:08.125,0.002,-0.043,0.992
2026/05/14 10:33:08.145,0.002,-0.042,0.995
2026/05/14 10:33:08.165,0.004,-0.041,0.989
2026/05/14 10:33:08.185,0.004,-0.043,0.996
2026/05/14 10:33:08.205,-0.001,-0.048,0.991
2026/05/14 10:33:08.225,0.0,-0.041,0.994
2026/05/14 10:33:08.245,0.003,-0.044,0.994
2026/05/14 10:33:08.265,0.002,-0.042,0.991
2026/05/14 10:33:08.285,0.004,-0.043,0.994
2026/05/14 10:33:08.304,0.003,-0.045,0.989
2026/05/14 10:33:08.324,-0.001,-0.042,0.991
2026/05/14 10:33:08.344,0.001,-0.042,0.991
2026/05/14 10:33:08.364,0.002,-0.046,0.988
2026/05/14 10:33:08.384,0.001,-0.038,0.992
2026/05/14 10:33:08.404,-0.002,-0.042,0.992
2026/05/14 10:33:08.424,-0.002,-0.041,0.996
2026/05/14 10:33:08.444,0.001,-0.043,0.994
2026/05/14 10:33:08.464,0.0,-0.04,0.998
2026/05/14 10:33:08.484,0.002,-0.041,0.989
2026/05/14 10:33:08.504,0.0,-0.041,0.989
2026/05/14 10:33:08.523,0.003,-0.042,0.987
2026/05/14 10:33:08.543,-0.001,-0.042,0.992
2026/05/14 10:33:08.563,0.002,-0.047,0.992
2026/05/14 10:33:08.583,0.002,-0.044,0.992
2026/05/14 10:33:08.603,0.002,-0.044,0.993
2026/05/14 10:33:08.623,0.001,-0.037,0.992
2026/05/14 10:33:08.643,-0.001,-0.042,0.996
2026/05/14 10:33:08.663,0.0,-0.04,0.99
2026/05/14 10:33:08.683,0.004,-0.039,0.992
2026/05/14 10:33:08.703,0.003,-0.04,0.991
2026/05/14 10:33:08.723,0.0,-0.038,0.994
2026/05/14 10:33:08.743,0.001,-0.039,0.988
2026/05/14 10:33:08.762,0.001,-0.045,0.995
2026/05/14 10:33:08.782,0.0,-0.039,0.993
2026/05/14 10:33:08.802,-0.001,-0.041,0.991
2026/05/14 10:33:08.822,0.004,-0.042,0.99
2026/05/14 10:33:08.842,0.001,-0.043,0.993
2026/05/14 10:33:08.862,0.004,-0.039,0.996
2026/05/14 10:33:08.882,-0.001,-0.041,0.99
2026/05/14 10:33:08.902,-0.001,-0.041,0.993
2026/05/14 10:33:08.922,0.002,-0.043,0.99
2026/05/14 10:33:08.942,0.003,-0.041,0.994
2026/05/14 10:33:08.962,0.002,-0.045,0.994
2026/05/14 10:33:08.981,0.005,-0.038,0.991
2026/05/14 10:33:09.001,0.002,-0.041,0.994
2026/05/14 10:33:09.021,0.003,-0.04,0.99
2026/05/14 10:33:09.041,0.001,-0.04,0.991
2026/05/14 10:33:09.061,0.003,-0.038,0.995
2026/05/14 10:33:09.081,0.0,-0.04,0.989
2026/05/14 10:33:09.101,0.003,-0.041,0.997
2026/05/14 10:33:09.121,-0.001,-0.04,0.994
2026/05/14 10:33:09.141,0.002,-0.042,0.994
2026/05/14 10:33:09.161,-0.001,-0.041,0.988
2026/05/14 10:33:09.181,0.001,-0.04,0.996
2026/05/14 10:33:09.200,0.002,-0.04,0.992
2026/05/14 10:33:09.220,0.007,-0.042,0.99
2026/05/14 10:33:09.240,0.004,-0.042,0.995
2026/05/14 10:33:09.260,0.002,-0.039,0.996
2026/05/14 10:33:09.280,0.004,-0.045,0.988
2026/05/14 10:33:09.300,0.001,-0.043,0.992
2026/05/14 10:33:09.320,0.002,-0.037,0.992
2026/05/14 10:33:09.340,0.002,-0.041,0.992
2026/05/14 10:33:09.360,0.005,-0.039,0.992
2026/05/14 10:33:09.380,-0.001,-0.039,0.992
2026/05/14 10:33:09.400,-0.001,-0.043,0.988
2026/05/14 10:33:09.420,0.002,-0.042,0.996
2026/05/14 10:33:09.439,0.0,-0.043,0.994
2026/05/14 10:33:09.459,0.003,-0.041,0.99
2026/05/14 10:33:09.479,0.006,-0.042,0.99
2026/05/14 10:33:09.499,0.001,-0.038,0.991
2026/05/14 10:33:09.519,0.004,-0.039,0.989
2026/05/14 10:33:09.539,0.003,-0.041,0.994
2026/05/14 10:33:09.559,0.003,-0.042,0.988
2026/05/14 10:33:09.579,0.003,-0.042,0.99
2026/05/14 10:33:09.599,0.0,-0.044,0.991
2026/05/14 10:33:09.619,0.004,-0.042,0.997
2026/05/14 10:33:09.639,-0.001,-0.038,0.991
2026/05/14 10:33:09.658,0.003,-0.039,0.994
2026/05/14 10:33:09.678,0.002,-0.043,0.995
2026/05/14 10:33:09.698,0.004,-0.042,0.99
2026/05/14 10:33:09.718,0.002,-0.038,0.99
2026/05/14 10:33:09.738,0.002,-0.044,0.994
2026/05/14 10:33:09.758,0.002,-0.044,0.994
2026/05/14 10:33:09.778,-0.002,-0.045,0.991
2026/05/14 10:33:09.798,0.002,-0.042,0.992
2026/05/14 10:33:09.818,0.004,-0.04,0.989
2026/05/14 10:33:09.838,0.004,-0.039,0.992
2026/05/14 10:33:09.858,0.001,-0.04,0.994
2026/05/14 10:33:09.878,0.002,-0.038,0.995
2026/05/14 10:33:09.897,0.001,-0.041,0.995
2026/05/14 10:33:09.917,-0.001,-0.041,0.991
2026/05/14 10:33:09.937,0.004,-0.038,0.992
2026/05/14 10:33:09.957,0.003,-0.038,0.992
2026/05/14 10:33:09.977,0.003,-0.04,0.993
2026/05/14 10:33:09.997,-0.002,-0.043,0.992
2026/05/14 10:33:10.017,0.002,-0.044,0.99
2026/05/14 10:33:10.037,0.0,-0.041,0.996
2026/05/14 10:33:10.057,0.003,-0.039,0.994
2026/05/14 10:33:10.077,0.001,-0.04,0.988
2026/05/14 10:33:10.097,0.002,-0.041,0.993
2026/05/14 10:33:10.116,0.002,-0.041,0.994
2026/05/14 10:33:10.136,0.004,-0.042,0.994
2026/05/14 10:33:10.156,0.002,-0.041,0.992
2026/05/14 10:33:10.176,0.0,-0.04,0.994
2026/05/14 10:33:10.196,0.001,-0.04,0.994
2026/05/14 10:33:10.216,0.003,-0.043,0.994
2026/05/14 10:33:10.236,-0.003,-0.043,0.992
2026/05/14 10:33:10.256,0.001,-0.043,0.992
2026/05/14 10:33:10.276,0.001,-0.04,0.992
2026/05/14 10:33:10.296,-0.001,-0.044,0.99
2026/05/14 10:33:10.316,0.003,-0.041,0.992
2026/05/14 10:33:10.335,0.0,-0.041,0.991
2026/05/14 10:33:10.355,0.001,-0.039,0.993
2026/05/14 10:33:10.375,-0.002,-0.042,0.993
2026/05/14 10:33:10.395,-0.001,-0.041,0.988
2026/05/14 10:33:10.415,0.003,-0.039,0.99
2026/05/14 10:33:10.435,-0.003,-0.044,0.991
2026/05/14 10:33:10.455,0.005,-0.04,0.991
2026/05/14 10:33:10.475,0.002,-0.039,0.994
2026/05/14 10:33:10.495,0.004,-0.046,0.991
2026/05/14 10:33:10.515,0.001,-0.039,0.989
2026/05/14 10:33:10.535,0.001,-0.04,0.993
2026/05/14 10:33:10.555,0.002,-0.041,0.989
2026/05/14 10:33:10.574,0.001,-0.044,0.99
2026/05/14 10:33:10.594,0.002,-0.043,0.991
2026/05/14 10:33:10.614,-0.001,-0.042,0.991
2026/05/14 10:33:10.634,0.0,-0.041,0.992
2026/05/14 10:33:10.654,0.003,-0.04,0.992
2026/05/14 10:33:10.674,0.001,-0.043,0.989
2026/05/14 10:33:10.694,-0.002,-0.04,0.987
2026/05/14 10:33:10.714,0.0,-0.044,0.991
2026/05/14 10:33:10.734,0.004,-0.041,0.989
2026/05/14 10:33:10.754,0.002,-0.036,0.991
2026/05/14 10:33:10.774,0.0,-0.041,0.991
2026/05/14 10:33:10.793,0.001,-0.04,0.995
2026/05/14 10:33:10.813,0.003,-0.041,0.991
2026/05/14 10:33:10.833,-0.001,-0.041,0.994
2026/05/14 10:33:10.853,0.004,-0.044,0.986
2026/05/14 10:33:10.873,0.001,-0.041,0.99
2026/05/14 10:33:10.893,0.003,-0.043,0.992
2026/05/14 10:33:10.913,-0.001,-0.041,0.994
2026/05/14 10:33:10.933,0.0,-0.048,0.991
2026/05/14 10:33:10.953,0.006,-0.044,0.993
2026/05/14 10:33:10.973,0.001,-0.044,0.994
2026/05/14 10:33:10.993,0.002,-0.045,0.989
2026/05/14 10:33:11.013,-0.002,-0.044,0.99
2026/05/14 10:33:11.032,0.003,-0.042,0.994
2026/05/14 10:33:11.052,0.004,-0.04,0.994
2026/05/14 10:33:11.072,0.004,-0.04,0.99
2026/05/14 10:33:11.092,0.001,-0.042,0.991
2026/05/14 10:33:11.112,0.003,-0.046,0.992
2026/05/14 10:33:11.132,0.002,-0.04,0.994
2026/05/14 10:33:11.152,-0.001,-0.042,0.991
2026/05/14 10:33:11.172,0.002,-0.04,0.99
2026/05/14 10:33:11.192,0.003,-0.044,0.992
2026/05/14 10:33:11.212,0.004,-0.044,0.988
2026/05/14 10:33:11.232,0.001,-0.045,0.99
2026/05/14 10:33:11.251,0.001,-0.041,0.995
2026/05/14 10:33:11.271,0.003,-0.045,0.992
2026/05/14 10:33:11.291,-0.001,-0.039,0.989
2026/05/14 10:33:11.311,0.0,-0.044,0.991
2026/05/14 10:33:11.331,-0.001,-0.044,0.992
2026/05/14 10:33:11.351,0.002,-0.039,0.993
2026/05/14 10:33:11.371,0.001,-0.041,0.994
2026/05/14 10:33:11.391,-0.001,-0.042,0.992
2026/05/14 10:33:11.411,0.003,-0.044,0.995
2026/05/14 10:33:11.431,0.0,-0.04,0.992
2026/05/14 10:33:11.451,0.001,-0.042,0.991
2026/05/14 10:33:11.470,0.0,-0.046,0.996
2026/05/14 10:33:11.490,0.003,-0.042,0.987
2026/05/14 10:33:11.510,0.004,-0.039,0.995
2026/05/14 10:33:11.530,0.006,-0.041,0.989
2026/05/14 10:33:11.550,0.002,-0.042,0.989
2026/05/14 10:33:11.570,0.0,-0.044,0.996
2026/05/14 10:33:11.590,0.0,-0.043,0.994
2026/05/14 10:33:11.610,0.001,-0.041,0.991
2026/05/14 10:33:11.630,0.005,-0.041,0.992
2026/05/14 10:33:11.650,0.002,-0.046,0.987
2026/05/14 10:33:11.670,0.003,-0.044,0.995
2026/05/14 10:33:11.690,0.001,-0.043,0.996
2026/05/14 10:33:11.709,0.002,-0.042,0.992
2026/05/14 10:33:11.729,0.004,-0.041,0.995
2026/05/14 10:33:11.749,0.001,-0.043,0.995
2026/05/14 10:33:11.769,0.002,-0.04,0.992
2026/05/14 10:33:11.789,-0.002,-0.044,0.994
2026/05/14 10:33:11.809,-0.001,-0.04,0.995
2026/05/14 10:33:11.829,0.0,-0.04,0.992
2026/05/14 10:33:11.849,0.003,-0.042,0.992
2026/05/14 10:33:11.869,-0.003,-0.04,0.994
2026/05/14 10:33:11.889,0.001,-0.042,0.993
2026/05/14 10:33:11.909,0.001,-0.043,0.993
2026/05/14 10:33:11.928,0.0,-0.039,0.991
2026/05/14 10:33:11.948,-0.001,-0.043,0.993
2026/05/14 10:33:11.968,-0.002,-0.044,0.993
2026/05/14 10:33:11.988,0.0,-0.045,0.988
2026/05/14 10:33:12.008,0.0,-0.04,0.992
2026/05/14 10:33:12.028,-0.001,-0.043,0.991
2026/05/14 10:33:12.048,0.002,-0.045,0.995
2026/05/14 10:33:12.068,-0.001,-0.044,0.991
2026/05/14 10:33:12.088,0.002,-0.04,0.991
2026/05/14 10:33:12.108,0.007,-0.043,0.993
2026/05/14 10:33:12.128,0.003,-0.041,0.99
2026/05/14 10:33:12.148,0.001,-0.041,0.989
2026/05/14 10:33:12.167,0.003,-0.041,0.992
2026/05/14 10:33:12.187,0.001,-0.043,0.991
2026/05/14 10:33:12.207,-0.002,-0.042,0.988
2026/05/14 10:33:12.227,0.001,-0.042,0.994
2026/05/14 10:33:12.247,0.002,-0.044,0.992
2026/05/14 10:33:12.267,0.003,-0.04,0.993
2026/05/14 10:33:12.287,0.003,-0.045,0.988
2026/05/14 10:33:12.307,-0.004,-0.042,0.993
2026/05/14 10:33:12.327,0.004,-0.043,0.991
2026/05/14 10:33:12.347,0.0,-0.04,0.99
2026/05/14 10:33:12.367,0.003,-0.041,0.99
2026/05/14 10:33:12.386,0.003,-0.044,0.987
2026/05/14 10:33:12.406,-0.003,-0.039,0.994
2026/05/14 10:33:12.426,0.003,-0.04,0.99
2026/05/14 10:33:12.446,0.005,-0.041,0.992
2026/05/14 10:33:12.466,-0.002,-0.038,0.99
2026/05/14 10:33:12.486,0.001,-0.044,0.995
2026/05/14 10:33:12.506,0.004,-0.044,0.991
2026/05/14 10:33:12.526,0.001,-0.043,0.99
2026/05/14 10:33:12.546,0.004,-0.043,0.991
2026/05/14 10:33:12.566,-0.002,-0.045,0.998
2026/05/14 10:33:12.586,0.003,-0.041,0.994
2026/05/14 10:33:12.605,0.004,-0.043,0.992
2026/05/14 10:33:12.625,0.001,-0.041,0.992
2026/05/14 10:33:12.645,0.001,-0.043,0.991
2026/05/14 10:33:12.665,0.002,-0.04,0.992
2026/05/14 10:33:12.685,0.002,-0.041,0.994
2026/05/14 10:33:12.705,0.0,-0.044,0.992
2026/05/14 10:33:12.725,-0.003,-0.042,0.993
2026/05/14 10:33:12.745,0.003,-0.045,0.992
2026/05/14 10:33:12.765,-0.002,-0.038,0.99
2026/05/14 10:33:12.785,0.003,-0.045,0.992
2026/05/14 10:33:12.805,0.002,-0.04,0.991
2026/05/14 10:33:12.825,0.003,-0.043,0.995
2026/05/14 10:33:12.844,-0.003,-0.041,0.991
2026/05/14 10:33:12.864,0.002,-0.043,0.995
2026/05/14 10:33:12.884,0.002,-0.039,0.992
2026/05/14 10:33:12.904,0.003,-0.041,0.996
2026/05/14 10:33:12.924,0.005,-0.043,0.99
2026/05/14 10:33:12.944,0.0,-0.043,0.991
2026/05/14 10:33:12.964,0.001,-0.043,0.993
2026/05/14 10:33:12.984,0.003,-0.039,0.991
2026/05/14 10:33:13.004,0.002,-0.041,0.991
2026/05/14 10:33:13.024,0.003,-0.043,0.99
2026/05/14 10:33:13.044,0.0,-0.04,0.991
2026/05/14 10:33:13.063,0.005,-0.04,0.99
2026/05/14 10:33:13.083,-0.002,-0.037,0.991
2026/05/14 10:33:13.103,0.002,-0.043,0.993
2026/05/14 10:33:13.123,0.002,-0.044,0.99
2026/05/14 10:33:13.143,0.0,-0.042,0.989
2026/05/14 10:33:13.163,0.0,-0.038,0.992
2026/05/14 10:33:13.183,0.001,-0.039,0.992
2026/05/14 10:33:13.203,0.002,-0.044,0.998
2026/05/14 10:33:13.223,0.001,-0.043,0.99
2026/05/14 10:33:13.243,0.002,-0.042,0.992
2026/05/14 10:33:13.263,0.004,-0.04,0.994
2026/05/14 10:33:13.283,0.003,-0.042,0.992
2026/05/14 10:33:13.302,0.001,-0.04,0.994
2026/05/14 10:33:13.322,0.002,-0.037,0.996
2026/05/14 10:33:13.342,0.002,-0.042,0.991
2026/05/14 10:33:13.362,0.004,-0.042,0.989
2026/05/14 10:33:13.382,0.004,-0.042,0.996
2026/05/14 10:33:13.402,-0.002,-0.04,0.991
2026/05/14 10:33:13.422,0.001,-0.041,0.992
2026/05/14 10:33:13.442,0.0,-0.043,0.991
2026/05/14 10:33:13.462,0.0,-0.039,0.992
2026/05/14 10:33:13.482,0.005,-0.041,0.993
2026/05/14 10:33:13.502,0.002,-0.043,0.992
2026/05/14 10:33:13.521,0.002,-0.04,0.992
2026/05/14 10:33:13.541,0.001,-0.042,0.993
2026/05/14 10:33:13.561,-0.001,-0.042,0.991
2026/05/14 10:33:13.581,0.002,-0.038,0.99
2026/05/14 10:33:13.601,0.002,-0.046,0.993
2026/05/14 10:33:13.621,0.001,-0.039,0.996
2026/05/14 10:33:13.641,-0.001,-0.044,0.99
2026/05/14 10:33:13.661,0.001,-0.044,0.99
2026/05/14 10:33:13.681,0.001,-0.039,0.99
2026/05/14 10:33:13.701,0.0,-0.042,0.997
2026/05/14 10:33:13.721,0.0,-0.044,0.992
2026/05/14 10:33:13.740,0.004,-0.045,0.99
2026/05/14 10:33:13.760,0.002,-0.042,0.995
2026/05/14 10:33:13.780,0.001,-0.042,0.991
2026/05/14 10:33:13.800,0.001,-0.046,0.99
2026/05/14 10:33:13.820,0.003,-0.041,0.991
2026/05/14 10:33:13.840,0.001,-0.042,0.99
2026/05/14 10:33:13.860,0.005,-0.04,0.991
2026/05/14 10:33:13.880,0.0,-0.043,0.994
2026/05/14 10:33:13.900,-0.003,-0.042,0.994
2026/05/14 10:33:13.920,0.002,-0.04,0.988
2026/05/14 10:33:13.940,0.0,-0.042,0.985
2026/05/14 10:33:13.960,-0.001,-0.044,0.99
2026/05/14 10:33:13.979,-0.002,-0.047,0.993
2026/05/14 10:33:13.999,0.0,-0.042,0.995
2026/05/14 10:33:14.019,0.0,-0.039,0.989
2026/05/14 10:33:14.039,-0.001,-0.042,0.995
2026/05/14 10:33:14.059,0.0,-0.043,0.995
2026/05/14 10:33:14.079,0.001,-0.044,0.991
2026/05/14 10:33:14.099,-0.001,-0.042,0.992
2026/05/14 10:33:14.119,0.001,-0.042,0.993
2026/05/14 10:33:14.139,0.003,-0.042,0.997
2026/05/14 10:33:14.159,0.002,-0.04,0.99
2026/05/14 10:33:14.179,-0.002,-0.043,0.993
2026/05/14 10:33:14.198,0.001,-0.041,0.992
2026/05/14 10:33:14.218,-0.002,-0.042,0.994
2026/05/14 10:33:14.238,-0.001,-0.04,0.995
2026/05/14 10:33:14.258,0.002,-0.042,0.991
2026/05/14 10:33:14.278,0.003,-0.041,0.99
2026/05/14 10:33:14.298,0.004,-0.041,0.988
2026/05/14 10:33:14.318,0.001,-0.04,0.993
2026/05/14 10:33:14.338,-0.002,-0.041,0.991
2026/05/14 10:33:14.358,0.001,-0.044,0.992
2026/05/14 10:33:14.378,-0.001,-0.04,0.989
2026/05/14 10:33:14.398,0.003,-0.043,0.993
2026/05/14 10:33:14.418,0.002,-0.043,0.995
2026/05/14 10:33:14.437,0.003,-0.045,0.993
2026/05/14 10:33:14.457,0.002,-0.043,0.993
2026/05/14 10:33:14.477,0.004,-0.041,0.994
2026/05/14 10:33:14.497,0.004,-0.04,0.992
2026/05/14 10:33:14.517,0.003,-0.039,0.991
2026/05/14 10:33:14.537,-0.001,-0.042,0.991
2026/05/14 10:33:14.557,0.0,-0.043,0.989
2026/05/14 10:33:14.577,0.002,-0.045,0.992
2026/05/14 10:33:14.597,0.005,-0.044,0.994
2026/05/14 10:33:14.617,0.003,-0.044,0.991
2026/05/14 10:33:14.637,0.004,-0.041,0.99
2026/05/14 10:33:14.656,0.004,-0.044,0.992
2026/05/14 10:33:14.676,0.004,-0.044,0.992
2026/05/14 10:33:14.696,-0.001,-0.042,0.993
2026/05/14 10:33:14.716,0.0,-0.041,0.989
2026/05/14 10:33:14.736,0.004,-0.039,0.991
2026/05/14 10:33:14.756,0.002,-0.039,0.99
2026/05/14 10:33:14.776,0.001,-0.04,0.992
2026/05/14 10:33:14.796,0.003,-0.041,0.995
2026/05/14 10:33:14.816,0.001,-0.046,0.994
2026/05/14 10:33:14.836,0.002,-0.043,0.997
2026/05/14 10:33:14.856,0.003,-0.042,0.991
2026/05/14 10:33:14.875,0.006,-0.043,0.993
2026/05/14 10:33:14.895,0.004,-0.042,0.989
2026/05/14 10:33:14.915,0.0,-0.042,0.993
2026/05/14 10:33:14.935,0.002,-0.041,0.993
2026/05/14 10:33:14.955,0.002,-0.04,0.995
2026/05/14 10:33:14.975,0.0,-0.041,0.994
2026/05/14 10:33:14.995,0.002,-0.043,0.988
2026/05/14 10:33:15.015,0.002,-0.043,0.993
2026/05/14 10:33:15.035,0.002,-0.041,0.992
2026/05/14 10:33:15.055,0.001,-0.038,0.996
2026/05/14 10:33:15.075,-0.002,-0.041,0.99
2026/05/14 10:33:15.095,0.002,-0.041,0.99
2026/05/14 10:33:15.114,-0.001,-0.039,0.992
2026/05/14 10:33:15.134,0.002,-0.043,0.995
2026/05/14 10:33:15.154,-0.001,-0.039,0.993
2026/05/14 10:33:15.174,0.003,-0.038,0.992
2026/05/14 10:33:15.194,0.0,-0.038,0.992
2026/05/14 10:33:15.214,-0.001,-0.042,0.989
2026/05/14 10:33:15.234,0.001,-0.04,0.992
2026/05/14 10:33:15.254,0.002,-0.044,0.992
2026/05/14 10:33:15.274,-0.001,-0.04,0.991
2026/05/14 10:33:15.294,0.001,-0.042,0.992
2026/05/14 10:33:15.314,0.0,-0.042,0.996
2026/05/14 10:33:15.333,0.005,-0.044,0.991
2026/05/14 10:33:15.353,0.001,-0.04,0.995
2026/05/14 10:33:15.373,0.002,-0.042,0.993
2026/05/14 10:33:15.393,0.003,-0.038,0.993
2026/05/14 10:33:15.413,0.003,-0.043,0.989
2026/05/14 10:33:15.433,0.001,-0.04,0.993
2026/05/14 10:33:15.453,0.0,-0.038,0.991
2026/05/14 10:33:15.473,0.002,-0.04,0.992
2026/05/14 10:33:15.493,0.002,-0.044,0.993
2026/05/14 10:33:15.513,-0.003,-0.044,0.991
2026/05/14 10:33:15.533,0.002,-0.041,0.989
2026/05/14 10:33:15.553,0.001,-0.045,0.992
2026/05/14 10:33:15.572,0.003,-0.039,0.991
2026/05/14 10:33:15.592,0.002,-0.04,0.992
2026/05/14 10:33:15.612,-0.002,-0.04,0.994
2026/05/14 10:33:15.632,0.002,-0.042,0.994
2026/05/14 10:33:15.652,0.002,-0.041,0.995
2026/05/14 10:33:15.672,0.006,-0.039,0.99
2026/05/14 10:33:15.692,-0.001,-0.045,0.994
2026/05/14 10:33:15.712,0.003,-0.042,0.988
2026/05/14 10:33:15.732,0.002,-0.04,0.989
2026/05/14 10:33:15.752,-0.001,-0.045,0.992
2026/05/14 10:33:15.772,0.001,-0.041,0.99
2026/05/14 10:33:15.791,0.003,-0.04,0.992
2026/05/14 10:33:15.811,0.0,-0.044,0.992
2026/05/14 10:33:15.831,0.001,-0.042,0.992
2026/05/14 10:33:15.851,-0.001,-0.043,0.995
2026/05/14 10:33:15.871,0.002,-0.041,0.989
2026/05/14 10:33:15.891,0.003,-0.038,0.99
2026/05/14 10:33:15.911,0.002,-0.042,0.99
2026/05/14 10:33:15.931,0.003,-0.046,0.994
2026/05/14 10:33:15.951,0.002,-0.044,0.995
2026/05/14 10:33:15.971,0.003,-0.038,0.99
2026/05/14 10:33:15.991,0.0,-0.039,0.992
2026/05/14 10:33:16.010,0.002,-0.043,0.99
2026/05/14 10:33:16.030,0.003,-0.042,0.987
2026/05/14 10:33:16.050,0.001,-0.043,0.992
2026/05/14 10:33:16.070,0.003,-0.043,0.99
2026/05/14 10:33:16.090,0.0,-0.042,0.992
2026/05/14 10:33:16.110,0.002,-0.043,0.993
2026/05/14 10:33:16.130,0.003,-0.044,0.995
2026/05/14 10:33:16.150,0.001,-0.042,0.991
2026/05/14 10:33:16.170,-0.001,-0.04,0.996
2026/05/14 10:33:16.190,0.0,-0.039,0.994
2026/05/14 10:33:16.210,-0.002,-0.038,0.993
2026/05/14 10:33:16.230,0.002,-0.046,0.993
2026/05/14 10:33:16.249,0.0,-0.045,0.996
2026/05/14 10:33:16.269,-0.001,-0.042,0.989
2026/05/14 10:33:16.289,0.003,-0.04,0.991
2026/05/14 10:33:16.309,0.004,-0.04,0.991
2026/05/14 10:33:16.329,-0.001,-0.04,0.994
2026/05/14 10:33:16.349,0.001,-0.044,0.99
2026/05/14 10:33:16.369,0.0,-0.042,0.989
2026/05/14 10:33:16.389,-0.001,-0.043,0.995
2026/05/14 10:33:16.409,0.002,-0.042,0.99
2026/05/14 10:33:16.429,-0.001,-0.043,0.991
2026/05/14 10:33:16.449,0.001,-0.043,0.99
2026/05/14 10:33:16.468,-0.001,-0.042,0.99
2026/05/14 10:33:16.488,0.0,-0.042,0.99
2026/05/14 10:33:16.508,0.002,-0.046,0.992
2026/05/14 10:33:16.528,0.003,-0.042,0.994
2026/05/14 10:33:16.548,0.005,-0.04,0.993
2026/05/14 10:33:16.568,0.001,-0.04,0.99
2026/05/14 10:33:16.588,0.0,-0.04,0.995
2026/05/14 10:33:16.608,0.003,-0.043,0.993
2026/05/14 10:33:16.628,-0.001,-0.045,0.991
2026/05/14 10:33:16.648,0.002,-0.04,0.992
2026/05/14 10:33:16.668,0.002,-0.044,0.994
2026/05/14 10:33:16.687,0.002,-0.041,0.992
2026/05/14 10:33:16.707,0.002,-0.041,0.994
2026/05/14 10:33:16.727,0.003,-0.039,0.993
2026/05/14 10:33:16.747,-0.001,-0.041,0.988
2026/05/14 10:33:16.767,0.002,-0.041,0.991
2026/05/14 10:33:16.787,0.003,-0.044,0.998
2026/05/14 10:33:16.807,0.0,-0.043,0.992
2026/05/14 10:33:16.827,0.003,-0.042,0.993
2026/05/14 10:33:16.847,-0.002,-0.043,0.994
2026/05/14 10:33:16.867,0.002,-0.04,0.996
2026/05/14 10:33:16.887,0.0,-0.044,0.993
2026/05/14 10:33:16.907,0.0,-0.042,0.988
2026/05/14 10:33:16.926,-0.002,-0.038,0.993
2026/05/14 10:33:16.946,0.0,-0.046,0.993
2026/05/14 10:33:16.966,0.004,-0.043,0.993
2026/05/14 10:33:16.986,0.0,-0.045,0.998
2026/05/14 10:33:17.006,0.001,-0.044,0.989
2026/05/14 10:33:17.026,0.004,-0.042,0.989
2026/05/14 10:33:17.046,0.0,-0.038,0.987
2026/05/14 10:33:17.066,0.003,-0.044,0.993
2026/05/14 10:33:17.086,0.004,-0.045,0.994
2026/05/14 10:33:17.106,0.002,-0.041,0.99
2026/05/14 10:33:17.126,0.002,-0.043,0.987
2026/05/14 10:33:17.145,0.0,-0.041,0.993
2026/05/14 10:33:17.165,-0.002,-0.042,0.995
2026/05/14 10:33:17.185,0.004,-0.044,0.99
2026/05/14 10:33:17.205,0.0,-0.044,0.991
2026/05/14 10:33:17.225,0.001,-0.041,0.993
2026/05/14 10:33:17.245,0.003,-0.043,0.991
2026/05/14 10:33:17.265,0.002,-0.042,0.99
2026/05/14 10:33:17.285,0.002,-0.042,0.993
2026/05/14 10:33:17.305,0.002,-0.039,0.992
2026/05/14 10:33:17.325,0.002,-0.046,0.992
2026/05/14 10:33:17.345,-0.002,-0.043,0.991
2026/05/14 10:33:17.364,0.003,-0.043,0.993
2026/05/14 10:33:17.384,0.001,-0.042,0.993
2026/05/14 10:33:17.404,0.003,-0.044,0.99
2026/05/14 10:33:17.424,-0.001,-0.043,0.993
2026/05/14 10:33:17.444,0.004,-0.039,0.99
2026/05/14 10:33:17.464,0.0,-0.043,0.986
2026/05/14 10:33:17.484,-0.001,-0.042,0.991
2026/05/14 10:33:17.504,0.003,-0.042,0.994
2026/05/14 10:33:17.524,0.003,-0.041,0.991
2026/05/14 10:33:17.544,0.002,-0.042,0.995
2026/05/14 10:33:17.564,0.0,-0.041,0.99
2026/05/14 10:33:17.584,0.003,-0.039,0.991
2026/05/14 10:33:17.603,0.002,-0.042,0.992
2026/05/14 10:33:17.623,0.001,-0.036,0.994
2026/05/14 10:33:17.643,0.003,-0.045,0.992
2026/05/14 10:33:17.663,0.003,-0.044,0.996
2026/05/14 10:33:17.683,-0.001,-0.042,0.993
2026/05/14 10:33:17.703,0.001,-0.041,0.99
2026/05/14 10:33:17.723,0.004,-0.041,0.988
2026/05/14 10:33:17.743,-0.002,-0.046,0.993
2026/05/14 10:33:17.763,-0.001,-0.039,0.992
2026/05/14 10:33:17.783,0.001,-0.039,0.99
2026/05/14 10:33:17.803,0.002,-0.042,0.992
2026/05/14 10:33:17.822,0.003,-0.04,0.992
2026/05/14 10:33:17.842,-0.002,-0.042,0.99
2026/05/14 10:33:17.862,0.001,-0.044,0.996
2026/05/14 10:33:17.882,-0.003,-0.043,0.992
2026/05/14 10:33:17.902,0.0,-0.041,0.992
2026/05/14 10:33:17.922,0.0,-0.038,0.992
2026/05/14 10:33:17.942,-0.002,-0.044,0.987
2026/05/14 10:33:17.962,0.002,-0.043,0.988
2026/05/14 10:33:17.982,0.002,-0.045,0.992
2026/05/14 10:33:18.002,0.001,-0.039,0.993
2026/05/14 10:33:18.022,0.004,-0.04,0.99
2026/05/14 10:33:18.041,0.005,-0.04,0.989
2026/05/14 10:33:18.061,0.005,-0.036,0.992
2026/05/14 10:33:18.081,0.001,-0.038,0.994
2026/05/14 10:33:18.101,-0.002,-0.042,0.991
2026/05/14 10:33:18.121,0.001,-0.046,0.994
2026/05/14 10:33:18.141,0.004,-0.045,0.993
2026/05/14 10:33:18.161,0.006,-0.049,0.991
2026/05/14 10:33:18.181,0.007,-0.044,0.99
2026/05/14 10:33:18.201,0.006,-0.038,0.993
2026/05/14 10:33:18.221,0.001,-0.04,0.994
2026/05/14 10:33:18.241,0.004,-0.042,0.994
2026/05/14 10:33:18.261,-0.001,-0.042,0.993
2026/05/14 10:33:18.280,-0.001,-0.036,0.992
2026/05/14 10:33:18.300,-0.003,-0.039,0.993
2026/05/14 10:33:18.320,0.0,-0.04,0.993
2026/05/14 10:33:18.340,-0.003,-0.038,0.994
2026/05/14 10:33:18.360,0.003,-0.043,0.997
2026/05/14 10:33:18.380,0.002,-0.041,0.988
2026/05/14 10:33:18.400,0.009,-0.045,0.993
2026/05/14 10:33:18.420,0.006,-0.044,0.993
2026/05/14 10:33:18.440,0.005,-0.046,0.994
2026/05/14 10:33:18.460,0.003,-0.04,0.994
2026/05/14 10:33:18.480,0.002,-0.043,0.992
2026/05/14 10:33:18.499,-0.002,-0.039,0.989
2026/05/14 10:33:18.519,0.002,-0.04,0.991
2026/05/14 10:33:18.539,-0.003,-0.038,0.994
2026/05/14 10:33:18.559,0.0,-0.04,0.994
2026/05/14 10:33:18.579,-0.002,-0.038,0.989
2026/05/14 10:33:18.599,-0.001,-0.042,0.987
2026/05/14 10:33:18.619,0.002,-0.04,0.993
2026/05/14 10:33:18.639,0.003,-0.04,0.991
2026/05/14 10:33:18.659,0.005,-0.043,0.993
2026/05/14 10:33:18.679,0.009,-0.045,0.992
2026/05/14 10:33:18.699,0.005,-0.044,0.994
2026/05/14 10:33:18.719,0.0,-0.044,0.991
2026/05/14 10:33:18.738,0.001,-0.04,0.99
2026/05/14 10:33:18.758,0.001,-0.041,0.989
2026/05/14 10:33:18.778,0.001,-0.036,0.99
2026/05/14 10:33:18.798,-0.003,-0.042,0.992
2026/05/14 10:33:18.818,-0.004,-0.042,0.993
2026/05/14 10:33:18.838,-0.002,-0.042,0.991
2026/05/14 10:33:18.858,0.001,-0.04,0.99
2026/05/14 10:33:18.878,0.007,-0.043,0.993
2026/05/14 10:33:18.898,0.003,-0.045,0.99
2026/05/14 10:33:18.918,0.003,-0.043,0.998
2026/05/14 10:33:18.938,0.01,-0.036,0.997
2026/05/14 10:33:18.957,0.005,-0.034,0.998
2026/05/14 10:33:18.977,0.001,-0.034,0.991
2026/05/14 10:33:18.997,0.005,-0.034,0.991
2026/05/14 10:33:19.017,0.001,-0.039,0.99
2026/05/14 10:33:19.037,0.0,-0.042,0.992
2026/05/14 10:33:19.057,-0.004,-0.046,0.992
2026/05/14 10:33:19.077,0.002,-0.047,0.989
2026/05/14 10:33:19.097,0.003,-0.046,0.994
2026/05/14 10:33:19.117,0.005,-0.045,0.995
2026/05/14 10:33:19.137,0.004,-0.04,0.994
2026/05/14 10:33:19.157,0.007,-0.04,0.991
2026/05/14 10:33:19.177,0.004,-0.04,0.994
2026/05/14 10:33:19.196,0.006,-0.041,0.992
2026/05/14 10:33:19.216,-0.002,-0.043,0.992
2026/05/14 10:33:19.236,-0.005,-0.045,0.99
2026/05/14 10:33:19.256,-0.007,-0.041,0.991
2026/05/14 10:33:19.276,0.002,-0.039,0.991
2026/05/14 10:33:19.296,-0.001,-0.038,0.993
2026/05/14 10:33:19.316,0.005,-0.039,0.993
2026/05/14 10:33:19.336,0.002,-0.042,0.992
2026/05/14 10:33:19.356,0.003,-0.041,0.99
2026/05/14 10:33:19.376,0.003,-0.044,0.996
2026/05/14 10:33:19.396,0.007,-0.046,0.987
2026/05/14 10:33:19.415,0.002,-0.045,0.991
2026/05/14 10:33:19.435,0.005,-0.038,0.991
2026/05/14 10:33:19.455,0.003,-0.041,0.994
2026/05/14 10:33:19.475,-0.001,-0.038,0.992
2026/05/14 10:33:19.495,0.002,-0.039,0.993
2026/05/14 10:33:19.515,-0.003,-0.037,0.987
2026/05/14 10:33:19.535,-0.001,-0.041,0.993
2026/05/14 10:33:19.555,-0.002,-0.038,0.989
2026/05/14 10:33:19.575,0.001,-0.037,0.993
2026/05/14 10:33:19.595,0.003,-0.045,1.001
2026/05/14 10:33:19.615,0.003,-0.043,0.998
