Timestamp,ACC X,ACC Y,ACC Z
2026/05/14 10:30:14.149,0.024,-0.008,0.984
2026/05/14 10:30:14.168,0.022,-0.006,0.989
2026/05/14 10:30:14.187,0.022,-0.006,0.986
2026/05/14 10:30:14.207,0.02,-0.007,0.988
2026/05/14 10:30:14.226,0.024,-0.008,0.984
2026/05/14 10:30:14.245,0.02,-0.008,0.985
2026/05/14 10:30:14.264,0.021,-0.006,0.989
2026/05/14 10:30:14.283,0.025,-0.008,0.985
2026/05/14 10:30:14.303,0.022,-0.004,0.983
2026/05/14 10:30:14.322,0.025,-0.006,0.983
2026/05/14 10:30:14.341,0.027,-0.007,0.988
2026/05/14 10:30:14.360,0.023,-0.007,0.986
2026/05/14 10:30:14.380,0.023,-0.003,0.98
2026/05/14 10:30:14.399,0.025,-0.002,0.983
2026/05/14 10:30:14.418,0.021,-0.007,0.982
2026/05/14 10:30:14.437,0.026,-0.005,0.986
2026/05/14 10:30:14.457,0.025,-0.006,0.986
2026/05/14 10:30:14.476,0.023,-0.007,0.985
2026/05/14 10:30:14.495,0.023,-0.006,0.986
2026/05/14 10:30:14.514,0.023,-0.005,0.984
2026/05/14 10:30:14.533,0.025,-0.005,0.987
2026/05/14 10:30:14.553,0.022,-0.008,0.985
2026/05/14 10:30:14.572,0.024,-0.009,0.987
2026/05/14 10:30:14.591,0.02,-0.006,0.982
2026/05/14 10:30:14.610,0.022,-0.006,0.985
2026/05/14 10:30:14.630,0.025,-0.007,0.984
2026/05/14 10:30:14.649,0.023,-0.005,0.982
2026/05/14 10:30:14.668,0.023,-0.004,0.986
2026/05/14 10:30:14.687,0.025,-0.007,0.981
2026/05/14 10:30:14.707,0.025,-0.007,0.986
2026/05/14 10:30:14.726,0.021,-0.011,0.988
2026/05/14 10:30:14.745,0.02,-0.01,0.988
2026/05/14 10:30:14.764,0.023,-0.003,0.985
2026/05/14 10:30:14.783,0.021,-0.009,0.984
2026/05/14 10:30:14.803,0.022,-0.006,0.989
2026/05/14 10:30:14.822,0.026,-0.011,0.984
2026/05/14 10:30:14.841,0.021,-0.005,0.987
2026/05/14 10:30:14.860,0.023,-0.004,0.984
2026/05/14 10:30:14.880,0.022,-0.012,0.986
2026/05/14 10:30:14.899,0.022,-0.007,0.983
2026/05/14 10:30:14.918,0.02,-0.007,0.988
2026/05/14 10:30:14.937,0.022,-0.005,0.99
2026/05/14 10:30:14.957,0.021,-0.005,0.985
2026/05/14 10:30:14.976,0.02,-0.007,0.98
2026/05/14 10:30:14.995,0.023,-0.006,0.985
2026/05/14 10:30:15.014,0.022,-0.008,0.983
2026/05/14 10:30:15.033,0.021,-0.005,0.981
2026/05/14 10:30:15.053,0.024,-0.004,0.987
2026/05/14 10:30:15.072,0.021,-0.008,0.985
2026/05/14 10:30:15.091,0.025,-0.007,0.989
2026/05/14 10:30:15.110,0.022,-0.003,0.985
2026/05/14 10:30:15.130,0.025,-0.009,0.986
2026/05/14 10:30:15.149,0.026,-0.005,0.982
2026/05/14 10:30:15.168,0.022,-0.008,0.983
2026/05/14 10:30:15.187,0.024,-0.008,0.983
2026/05/14 10:30:15.207,0.025,-0.001,0.987
2026/05/14 10:30:15.226,0.022,-0.007,0.982
2026/05/14 10:30:15.245,0.025,-0.003,0.985
2026/05/14 10:30:15.264,0.022,-0.01,0.987
2026/05/14 10:30:15.283,0.019,-0.008,0.989
2026/05/14 10:30:15.303,0.023,-0.008,0.985
2026/05/14 10:30:15.322,0.023,-0.008,0.986
2026/05/14 10:30:15.341,0.021,-0.003,0.983
2026/05/14 10:30:15.360,0.024,-0.006,0.985
2026/05/14 10:30:15.380,0.023,-0.005,0.985
2026/05/14 10:30:15.399,0.024,-0.005,0.983
2026/05/14 10:30:15.418,0.026,-0.006,0.985
2026/05/14 10:30:15.437,0.023,-0.008,0.987
2026/05/14 10:30:15.457,0.022,-0.01,0.988
2026/05/14 10:30:15.476,0.02,-0.007,0.983
2026/05/14 10:30:15.495,0.019,-0.006,0.985
2026/05/14 10:30:15.514,0.022,-0.006,0.982
2026/05/14 10:30:15.533,0.022,-0.004,0.984
2026/05/14 10:30:15.553,0.02,-0.01,0.985
2026/05/14 10:30:15.572,0.024,-0.006,0.988
2026/05/14 10:30:15.591,0.023,-0.008,0.989
2026/05/14 10:30:15.610,0.025,-0.002,0.983
2026/05/14 10:30:15.630,0.025,-0.008,0.984
2026/05/14 10:30:15.649,0.023,-0.004,0.982
2026/05/14 10:30:15.668,0.023,-0.005,0.983
2026/05/14 10:30:15.687,0.021,-0.006,0.99
2026/05/14 10:30:15.707,0.024,-0.005,0.982
2026/05/14 10:30:15.726,0.022,-0.005,0.982
2026/05/14 10:30:15.745,0.024,-0.005,0.986
2026/05/14 10:30:15.764,0.023,-0.005,0.987
2026/05/14 10:30:15.783,0.022,-0.005,0.986
2026/05/14 10:30:15.803,0.021,-0.009,0.984
2026/05/14 10:30:15.822,0.026,-0.003,0.983
2026/05/14 10:30:15.841,0.02,-0.008,0.984
2026/05/14 10:30:15.860,0.025,-0.004,0.984
2026/05/14 10:30:15.880,0.024,-0.007,0.99
2026/05/14 10:30:15.899,0.026,-0.008,0.984
2026/05/14 10:30:15.918,0.024,-0.004,0.985
2026/05/14 10:30:15.937,0.021,-0.003,0.987
2026/05/14 10:30:15.957,0.023,-0.008,0.983
2026/05/14 10:30:15.976,0.025,-0.008,0.989
2026/05/14 10:30:15.995,0.023,-0.007,0.983
2026/05/14 10:30:16.014,0.024,-0.004,0.985
2026/05/14 10:30:16.033,0.02,-0.004,0.986
2026/05/14 10:30:16.053,0.024,-0.004,0.985
2026/05/14 10:30:16.072,0.026,-0.008,0.988
2026/05/14 10:30:16.091,0.023,-0.005,0.986
2026/05/14 10:30:16.110,0.022,-0.007,0.986
2026/05/14 10:30:16.130,0.025,-0.007,0.985
2026/05/14 10:30:16.149,0.023,-0.003,0.981
2026/05/14 10:30:16.168,0.024,-0.007,0.986
2026/05/14 10:30:16.187,0.021,-0.006,0.981
2026/05/14 10:30:16.207,0.024,-0.008,0.983
2026/05/14 10:30:16.226,0.021,-0.007,0.986
2026/05/14 10:30:16.245,0.027,-0.009,0.986
2026/05/14 10:30:16.264,0.023,-0.009,0.984
2026/05/14 10:30:16.283,0.019,-0.006,0.982
2026/05/14 10:30:16.303,0.023,-0.005,0.983
2026/05/14 10:30:16.322,0.023,-0.01,0.989
2026/05/14 10:30:16.341,0.021,-0.005,0.986
2026/05/14 10:30:16.360,0.022,-0.005,0.984
2026/05/14 10:30:16.380,0.021,-0.004,0.983
2026/05/14 10:30:16.399,0.018,-0.007,0.98
2026/05/14 10:30:16.418,0.023,-0.006,0.984
2026/05/14 10:30:16.437,0.022,-0.005,0.987
2026/05/14 10:30:16.457,0.022,-0.005,0.984
2026/05/14 10:30:16.476,0.025,-0.006,0.983
2026/05/14 10:30:16.495,0.025,-0.008,0.979
2026/05/14 10:30:16.514,0.024,-0.007,0.988
2026/05/14 10:30:16.533,0.023,-0.006,0.989
2026/05/14 10:30:16.553,0.022,-0.005,0.984
2026/05/14 10:30:16.572,0.025,-0.009,0.983
2026/05/14 10:30:16.591,0.021,-0.002,0.985
2026/05/14 10:30:16.610,0.023,-0.005,0.985
2026/05/14 10:30:16.630,0.021,-0.006,0.98
2026/05/14 10:30:16.649,0.022,-0.007,0.985
2026/05/14 10:30:16.668,0.024,-0.006,0.992
2026/05/14 10:30:16.687,0.025,-0.007,0.984
2026/05/14 10:30:16.707,0.023,-0.006,0.987
2026/05/14 10:30:16.726,0.021,-0.009,0.987
2026/05/14 10:30:16.745,0.021,-0.008,0.987
2026/05/14 10:30:16.764,0.022,-0.006,0.983
2026/05/14 10:30:16.783,0.025,-0.004,0.988
2026/05/14 10:30:16.803,0.022,-0.007,0.989
2026/05/14 10:30:16.822,0.023,-0.007,0.982
2026/05/14 10:30:16.841,0.026,-0.004,0.986
2026/05/14 10:30:16.861,0.024,-0.006,0.986
2026/05/14 10:30:16.880,0.023,-0.009,0.992
2026/05/14 10:30:16.900,0.023,-0.004,0.987
2026/05/14 10:30:16.920,0.025,-0.005,0.984
2026/05/14 10:30:16.939,0.025,-0.006,0.984
2026/05/14 10:30:16.959,0.026,-0.011,0.982
2026/05/14 10:30:16.979,0.025,-0.001,0.987
2026/05/14 10:30:16.998,0.022,-0.005,0.986
2026/05/14 10:30:17.018,0.024,-0.006,0.986
2026/05/14 10:30:17.038,0.019,-0.004,0.986
2026/05/14 10:30:17.057,0.022,-0.006,0.984
2026/05/14 10:30:17.077,0.025,-0.006,0.985
2026/05/14 10:30:17.096,0.024,-0.007,0.987
2026/05/14 10:30:17.116,0.027,-0.006,0.988
2026/05/14 10:30:17.136,0.021,-0.005,0.982
2026/05/14 10:30:17.155,0.017,-0.009,0.985
2026/05/14 10:30:17.175,0.021,-0.007,0.984
2026/05/14 10:30:17.195,0.022,-0.008,0.987
2026/05/14 10:30:17.214,0.026,-0.007,0.987
2026/05/14 10:30:17.234,0.022,-0.004,0.985
2026/05/14 10:30:17.254,0.024,-0.005,0.986
2026/05/14 10:30:17.273,0.021,-0.005,0.986
2026/05/14 10:30:17.293,0.027,-0.01,0.985
2026/05/14 10:30:17.312,0.023,-0.011,0.987
2026/05/14 10:30:17.332,0.024,-0.002,0.99
2026/05/14 10:30:17.352,0.023,-0.007,0.986
2026/05/14 10:30:17.371,0.024,-0.006,0.989
2026/05/14 10:30:17.391,0.022,-0.006,0.986
2026/05/14 10:30:17.411,0.024,-0.006,0.983
2026/05/14 10:30:17.430,0.022,-0.003,0.987
2026/05/14 10:30:17.450,0.023,-0.01,0.98
2026/05/14 10:30:17.470,0.022,-0.007,0.985
2026/05/14 10:30:17.489,0.022,-0.007,0.982
2026/05/14 10:30:17.509,0.024,-0.006,0.985
2026/05/14 10:30:17.528,0.019,-0.006,0.99
2026/05/14 10:30:17.548,0.023,-0.008,0.983
2026/05/14 10:30:17.568,0.02,-0.004,0.982
2026/05/14 10:30:17.587,0.023,-0.005,0.987
2026/05/14 10:30:17.607,0.022,-0.007,0.986
2026/05/14 10:30:17.627,0.024,-0.008,0.987
2026/05/14 10:30:17.646,0.025,-0.008,0.98
2026/05/14 10:30:17.666,0.022,-0.008,0.984
2026/05/14 10:30:17.685,0.025,-0.004,0.984
2026/05/14 10:30:17.705,0.021,-0.007,0.986
2026/05/14 10:30:17.725,0.019,-0.005,0.988
2026/05/14 10:30:17.744,0.021,-0.007,0.986
2026/05/14 10:30:17.764,0.021,-0.006,0.988
2026/05/14 10:30:17.784,0.025,-0.003,0.986
2026/05/14 10:30:17.803,0.022,-0.006,0.984
2026/05/14 10:30:17.823,0.019,-0.005,0.986
2026/05/14 10:30:17.843,0.022,-0.008,0.989
2026/05/14 10:30:17.862,0.027,-0.001,0.987
2026/05/14 10:30:17.882,0.022,-0.008,0.983
2026/05/14 10:30:17.901,0.024,-0.005,0.984
2026/05/14 10:30:17.921,0.022,-0.009,0.983
2026/05/14 10:30:17.941,0.022,-0.007,0.986
2026/05/14 10:30:17.960,0.02,-0.004,0.982
2026/05/14 10:30:17.980,0.023,-0.008,0.988
2026/05/14 10:30:18.000,0.025,-0.006,0.987
2026/05/14 10:30:18.019,0.024,-0.003,0.987
2026/05/14 10:30:18.039,0.025,-0.009,0.984
2026/05/14 10:30:18.059,0.024,-0.006,0.987
2026/05/14 10:30:18.078,0.024,-0.009,0.986
2026/05/14 10:30:18.098,0.025,-0.007,0.985
2026/05/14 10:30:18.117,0.024,-0.003,0.986
2026/05/14 10:30:18.137,0.021,-0.007,0.984
2026/05/14 10:30:18.157,0.023,-0.003,0.986
2026/05/14 10:30:18.176,0.023,-0.006,0.985
2026/05/14 10:30:18.196,0.025,-0.002,0.986
2026/05/14 10:30:18.216,0.019,-0.005,0.986
2026/05/14 10:30:18.235,0.024,-0.005,0.986
2026/05/14 10:30:18.255,0.026,-0.008,0.99
2026/05/14 10:30:18.275,0.023,-0.01,0.985
2026/05/14 10:30:18.294,0.021,-0.008,0.986
2026/05/14 10:30:18.314,0.02,-0.004,0.986
2026/05/14 10:30:18.333,0.018,-0.003,0.984
2026/05/14 10:30:18.353,0.019,-0.005,0.988
2026/05/14 10:30:18.373,0.025,-0.003,0.99
2026/05/14 10:30:18.392,0.02,-0.003,0.983
2026/05/14 10:30:18.412,0.022,-0.009,0.982
2026/05/14 10:30:18.432,0.025,-0.005,0.988
2026/05/14 10:30:18.451,0.023,-0.006,0.988
2026/05/14 10:30:18.471,0.027,-0.005,0.986
2026/05/14 10:30:18.491,0.023,-0.007,0.988
2026/05/14 10:30:18.510,0.023,-0.006,0.989
2026/05/14 10:30:18.530,0.021,-0.009,0.99
2026/05/14 10:30:18.549,0.02,-0.007,0.985
2026/05/14 10:30:18.569,0.02,-0.008,0.987
2026/05/14 10:30:18.589,0.021,-0.005,0.988
2026/05/14 10:30:18.608,0.022,-0.005,0.986
2026/05/14 10:30:18.628,0.022,-0.008,0.986
2026/05/14 10:30:18.648,0.023,-0.006,0.987
2026/05/14 10:30:18.667,0.022,-0.009,0.988
2026/05/14 10:30:18.687,0.025,-0.005,0.986
2026/05/14 10:30:18.707,0.026,-0.005,0.99
2026/05/14 10:30:18.726,0.025,-0.014,0.978
2026/05/14 10:30:18.746,0.025,-0.002,0.983
2026/05/14 10:30:18.765,0.02,-0.008,0.99
2026/05/14 10:30:18.785,0.026,-0.003,0.988
2026/05/14 10:30:18.805,0.019,-0.004,0.987
2026/05/14 10:30:18.824,0.024,-0.005,0.996
2026/05/14 10:30:18.844,0.022,0.002,0.985
2026/05/14 10:30:18.864,0.019,-0.002,0.981
2026/05/14 10:30:18.883,0.022,-0.009,0.985
2026/05/14 10:30:18.903,0.023,-0.008,0.986
2026/05/14 10:30:18.923,0.025,-0.006,0.979
2026/05/14 10:30:18.942,0.026,-0.006,0.994
2026/05/14 10:30:18.962,0.026,-0.004,0.985
2026/05/14 10:30:18.981,0.024,-0.009,0.991
2026/05/14 10:30:19.001,0.025,-0.005,0.983
2026/05/14 10:30:19.021,0.02,-0.004,0.98
2026/05/14 10:30:19.040,0.02,-0.001,0.98
2026/05/14 10:30:19.060,0.02,-0.004,0.995
2026/05/14 10:30:19.080,0.023,-0.01,0.982
2026/05/14 10:30:19.099,0.02,-0.004,0.985
2026/05/14 10:30:19.119,0.019,-0.006,0.99
2026/05/14 10:30:19.139,0.02,-0.005,0.994
2026/05/14 10:30:19.158,0.024,-0.007,1.001
2026/05/14 10:30:19.178,0.023,-0.003,0.982
2026/05/14 10:30:19.197,0.024,-0.007,0.995
2026/05/14 10:30:19.217,0.022,-0.005,0.985
2026/05/14 10:30:19.237,0.022,-0.004,0.98
2026/05/14 10:30:19.256,0.025,-0.008,0.987
2026/05/14 10:30:19.276,0.021,-0.004,0.993
2026/05/14 10:30:19.296,0.023,-0.003,0.993
2026/05/14 10:30:19.315,0.02,-0.004,0.981
2026/05/14 10:30:19.335,0.019,-0.005,0.987
2026/05/14 10:30:19.354,0.024,-0.008,0.98
2026/05/14 10:30:19.374,0.022,-0.007,0.985
2026/05/14 10:30:19.394,0.021,-0.008,0.985
2026/05/14 10:30:19.413,0.022,-0.008,0.981
2026/05/14 10:30:19.433,0.023,0.002,0.978
2026/05/14 10:30:19.453,0.026,-0.002,0.982
2026/05/14 10:30:19.472,0.025,-0.005,0.987
2026/05/14 10:30:19.492,0.026,-0.001,0.983
2026/05/14 10:30:19.512,0.026,-0.009,0.989
2026/05/14 10:30:19.531,0.02,-0.01,0.973
2026/05/14 10:30:19.551,0.02,-0.004,0.985
2026/05/14 10:30:19.570,0.022,-0.004,0.985
2026/05/14 10:30:19.590,0.021,-0.006,0.987
2026/05/14 10:30:19.610,0.022,-0.007,0.986
2026/05/14 10:30:19.629,0.019,-0.007,0.979
2026/05/14 10:30:19.649,0.019,-0.006,0.984
2026/05/14 10:30:19.669,0.026,-0.008,0.982
2026/05/14 10:30:19.688,0.023,-0.003,0.982
2026/05/14 10:30:19.708,0.026,-0.01,0.981
2026/05/14 10:30:19.728,0.021,-0.005,0.98
2026/05/14 10:30:19.747,0.02,-0.009,0.984
2026/05/14 10:30:19.767,0.022,-0.01,0.989
2026/05/14 10:30:19.786,0.022,-0.009,0.979
2026/05/14 10:30:19.806,0.019,-0.006,0.985
2026/05/14 10:30:19.826,0.027,-0.005,0.994
2026/05/14 10:30:19.845,0.019,-0.004,0.984
2026/05/14 10:30:19.865,0.018,-0.006,0.989
2026/05/14 10:30:19.885,0.025,-0.006,0.987
2026/05/14 10:30:19.904,0.022,-0.004,0.993
2026/05/14 10:30:19.924,0.022,-0.004,0.984
2026/05/14 10:30:19.944,0.025,-0.008,0.985
2026/05/14 10:30:19.963,0.025,-0.01,0.98
2026/05/14 10:30:19.983,0.025,-0.009,0.983
2026/05/14 10:30:20.002,0.025,-0.009,0.984
2026/05/14 10:30:20.022,0.025,-0.003,0.982
2026/05/14 10:30:20.042,0.022,-0.004,0.987
2026/05/14 10:30:20.061,0.021,-0.004,0.985
2026/05/14 10:30:20.081,0.017,-0.011,0.998
2026/05/14 10:30:20.101,0.02,-0.008,0.99
2026/05/14 10:30:20.120,0.026,-0.004,0.986
2026/05/14 10:30:20.140,0.022,-0.008,0.99
2026/05/14 10:30:20.160,0.022,-0.008,1.001
2026/05/14 10:30:20.179,0.025,-0.009,0.993
2026/05/14 10:30:20.199,0.023,-0.008,0.983
2026/05/14 10:30:20.218,0.019,-0.009,0.977
2026/05/14 10:30:20.238,0.025,-0.002,0.978
2026/05/14 10:30:20.258,0.023,-0.007,0.995
2026/05/14 10:30:20.277,0.022,-0.01,0.996
2026/05/14 10:30:20.297,0.023,-0.005,0.982
2026/05/14 10:30:20.317,0.023,-0.007,0.998
2026/05/14 10:30:20.336,0.02,-0.006,0.989
2026/05/14 10:30:20.356,0.024,-0.005,0.983
2026/05/14 10:30:20.376,0.018,-0.003,0.982
2026/05/14 10:30:20.395,0.022,-0.006,0.975
2026/05/14 10:30:20.415,0.025,-0.007,0.976
2026/05/14 10:30:20.434,0.021,-0.008,0.987
2026/05/14 10:30:20.454,0.023,-0.006,0.99
2026/05/14 10:30:20.474,0.024,-0.007,0.985
2026/05/14 10:30:20.493,0.022,-0.008,0.984
2026/05/14 10:30:20.513,0.021,-0.006,0.984
2026/05/14 10:30:20.533,0.02,-0.004,0.979
2026/05/14 10:30:20.552,0.02,-0.008,0.983
2026/05/14 10:30:20.572,0.017,-0.008,0.979
2026/05/14 10:30:20.592,0.024,-0.007,0.99
2026/05/14 10:30:20.611,0.021,-0.001,0.989
2026/05/14 10:30:20.631,0.022,-0.007,0.98
2026/05/14 10:30:20.650,0.024,-0.008,0.994
2026/05/14 10:30:20.670,0.024,-0.007,0.981
2026/05/14 10:30:20.690,0.023,-0.007,0.993
2026/05/14 10:30:20.709,0.023,-0.008,0.985
2026/05/14 10:30:20.729,0.024,-0.011,0.988
2026/05/14 10:30:20.749,0.024,-0.005,0.988
2026/05/14 10:30:20.768,0.022,-0.005,0.98
2026/05/14 10:30:20.788,0.02,-0.007,0.977
2026/05/14 10:30:20.808,0.021,-0.002,0.985
2026/05/14 10:30:20.827,0.024,-0.006,0.988
2026/05/14 10:30:20.847,0.024,-0.004,0.985
2026/05/14 10:30:20.866,0.021,-0.005,0.986
2026/05/14 10:30:20.886,0.023,-0.005,0.981
2026/05/14 10:30:20.906,0.024,-0.005,0.987
2026/05/14 10:30:20.925,0.022,-0.006,0.986
2026/05/14 10:30:20.945,0.025,-0.008,0.985
2026/05/14 10:30:20.965,0.027,-0.011,0.989
2026/05/14 10:30:20.984,0.022,-0.004,0.986
2026/05/14 10:30:21.004,0.024,-0.007,0.988
2026/05/14 10:30:21.024,0.022,-0.004,0.989
2026/05/14 10:30:21.043,0.025,-0.009,0.987
2026/05/14 10:30:21.063,0.023,-0.009,0.994
2026/05/14 10:30:21.082,0.023,-0.007,0.977
2026/05/14 10:30:21.102,0.02,-0.007,0.984
2026/05/14 10:30:21.122,0.02,-0.005,0.991
2026/05/14 10:30:21.141,0.02,-0.005,0.981
2026/05/14 10:30:21.161,0.025,-0.004,0.982
2026/05/14 10:30:21.181,0.022,-0.005,0.982
2026/05/14 10:30:21.200,0.025,-0.006,0.986
2026/05/14 10:30:21.220,0.024,-0.008,0.985
2026/05/14 10:30:21.240,0.023,-0.007,0.984
2026/05/14 10:30:21.259,0.021,-0.007,0.982
2026/05/14 10:30:21.279,0.02,-0.008,0.987
2026/05/14 10:30:21.298,0.024,-0.005,0.984
2026/05/14 10:30:21.318,0.023,-0.008,0.988
2026/05/14 10:30:21.338,0.022,-0.006,0.987
2026/05/14 10:30:21.357,0.022,-0.008,0.99
2026/05/14 10:30:21.377,0.022,-0.008,0.985
2026/05/14 10:30:21.397,0.023,-0.006,0.989
2026/05/14 10:30:21.416,0.022,-0.007,0.987
2026/05/14 10:30:21.436,0.024,-0.008,0.98
2026/05/14 10:30:21.456,0.02,-0.007,0.982
2026/05/14 10:30:21.475,0.026,-0.006,0.989
2026/05/14 10:30:21.495,0.025,-0.002,0.983
2026/05/14 10:30:21.514,0.024,-0.004,0.983
2026/05/14 10:30:21.534,0.021,-0.006,0.984
2026/05/14 10:30:21.554,0.024,-0.005,0.989
2026/05/14 10:30:21.573,0.019,-0.007,0.988
2026/05/14 10:30:21.593,0.017,-0.005,0.986
2026/05/14 10:30:21.613,0.022,-0.007,0.987
2026/05/14 10:30:21.632,0.018,-0.005,0.984
2026/05/14 10:30:21.652,0.026,-0.009,0.988
2026/05/14 10:30:21.671,0.026,-0.003,0.985
2026/05/14 10:30:21.691,0.023,-0.007,0.988
2026/05/14 10:30:21.711,0.025,-0.008,0.985
2026/05/14 10:30:21.730,0.026,-0.006,0.983
2026/05/14 10:30:21.750,0.019,-0.001,0.981
2026/05/14 10:30:21.770,0.02,-0.008,0.985
2026/05/14 10:30:21.789,0.024,-0.007,0.989
2026/05/14 10:30:21.809,0.025,-0.005,0.986
2026/05/14 10:30:21.829,0.02,-0.005,0.984
2026/05/14 10:30:21.848,0.023,-0.006,0.987
2026/05/14 10:30:21.868,0.019,-0.004,0.985
2026/05/14 10:30:21.887,0.024,-0.005,0.982
2026/05/14 10:30:21.907,0.022,-0.009,0.983
2026/05/14 10:30:21.927,0.026,-0.005,0.991
2026/05/14 10:30:21.946,0.022,-0.005,0.987
2026/05/14 10:30:21.966,0.025,-0.004,0.988
2026/05/14 10:30:21.986,0.026,-0.007,0.982
2026/05/14 10:30:22.005,0.02,-0.005,0.986
2026/05/14 10:30:22.025,0.019,-0.007,0.987
2026/05/14 10:30:22.045,0.021,-0.008,0.983
2026/05/14 10:30:22.064,0.022,-0.006,0.983
2026/05/14 10:30:22.084,0.023,-0.007,0.983
2026/05/14 10:30:22.103,0.02,-0.005,0.988
2026/05/14 10:30:22.123,0.023,-0.003,0.987
2026/05/14 10:30:22.143,0.022,-0.007,0.983
2026/05/14 10:30:22.162,0.025,-0.005,0.987
2026/05/14 10:30:22.182,0.025,-0.005,0.986
2026/05/14 10:30:22.202,0.024,-0.003,0.985
2026/05/14 10:30:22.221,0.023,-0.006,0.987
2026/05/14 10:30:22.241,0.023,-0.009,0.983
2026/05/14 10:30:22.261,0.02,-0.006,0.989
2026/05/14 10:30:22.280,0.022,-0.009,0.987
2026/05/14 10:30:22.300,0.022,-0.008,0.988
2026/05/14 10:30:22.319,0.025,-0.003,0.986
2026/05/14 10:30:22.339,0.024,-0.007,0.983
2026/05/14 10:30:22.359,0.021,-0.007,0.989
2026/05/14 10:30:22.378,0.02,-0.007,0.984
2026/05/14 10:30:22.398,0.023,-0.007,0.979
2026/05/14 10:30:22.418,0.024,-0.006,0.986
2026/05/14 10:30:22.437,0.022,-0.006,0.99
2026/05/14 10:30:22.457,0.023,-0.009,0.989
2026/05/14 10:30:22.477,0.026,-0.007,0.988
2026/05/14 10:30:22.496,0.023,-0.003,0.988
2026/05/14 10:30:22.516,0.023,-0.005,0.985
2026/05/14 10:30:22.535,0.02,-0.006,0.983
2026/05/14 10:30:22.555,0.022,-0.005,0.985
2026/05/14 10:30:22.575,0.021,-0.006,0.983
2026/05/14 10:30:22.594,0.022,-0.006,0.986
2026/05/14 10:30:22.614,0.023,-0.006,0.985
2026/05/14 10:30:22.634,0.024,-0.007,0.991
2026/05/14 10:30:22.653,0.021,-0.004,0.987
2026/05/14 10:30:22.673,0.021,-0.004,0.988
2026/05/14 10:30:22.692,0.025,-0.006,0.986
2026/05/14 10:30:22.712,0.023,-0.006,0.988
2026/05/14 10:30:22.732,0.019,-0.008,0.989
2026/05/14 10:30:22.751,0.024,-0.005,0.988
2026/05/14 10:30:22.771,0.02,-0.002,0.987
2026/05/14 10:30:22.791,0.025,-0.005,0.984
2026/05/14 10:30:22.810,0.027,-0.005,0.982
2026/05/14 10:30:22.830,0.021,-0.005,0.987
2026/05/14 10:30:22.850,0.021,-0.002,0.986
2026/05/14 10:30:22.869,0.024,-0.008,0.983
2026/05/14 10:30:22.889,0.021,-0.009,0.988
2026/05/14 10:30:22.908,0.022,-0.006,0.984
2026/05/14 10:30:22.928,0.022,-0.006,0.977
2026/05/14 10:30:22.948,0.024,-0.006,0.989
2026/05/14 10:30:22.967,0.024,-0.005,0.986
2026/05/14 10:30:22.987,0.024,-0.009,0.983
2026/05/14 10:30:23.007,0.025,-0.008,0.99
2026/05/14 10:30:23.026,0.025,-0.008,0.986
2026/05/14 10:30:23.046,0.024,-0.004,0.985
2026/05/14 10:30:23.066,0.024,-0.008,0.984
2026/05/14 10:30:23.085,0.023,-0.008,0.982
2026/05/14 10:30:23.105,0.025,-0.007,0.985
2026/05/14 10:30:23.124,0.022,-0.003,0.988
2026/05/14 10:30:23.144,0.026,-0.004,0.988
2026/05/14 10:30:23.164,0.021,-0.009,0.983
2026/05/14 10:30:23.183,0.023,-0.005,0.989
2026/05/14 10:30:23.203,0.022,-0.007,0.987
2026/05/14 10:30:23.223,0.022,-0.006,0.986
2026/05/14 10:30:23.242,0.021,-0.008,0.982
2026/05/14 10:30:23.262,0.024,-0.006,0.986
2026/05/14 10:30:23.282,0.026,-0.006,0.983
2026/05/14 10:30:23.301,0.022,-0.007,0.986
2026/05/14 10:30:23.321,0.023,-0.009,0.987
2026/05/14 10:30:23.340,0.027,-0.007,0.991
2026/05/14 10:30:23.360,0.024,-0.008,0.987
2026/05/14 10:30:23.380,0.025,-0.003,0.985
2026/05/14 10:30:23.399,0.025,-0.003,0.985
2026/05/14 10:30:23.419,0.025,-0.009,0.984
2026/05/14 10:30:23.439,0.023,-0.002,0.989
2026/05/14 10:30:23.458,0.025,-0.006,0.985
2026/05/14 10:30:23.478,0.024,-0.008,0.988
2026/05/14 10:30:23.498,0.022,-0.001,0.987
2026/05/14 10:30:23.517,0.019,-0.008,0.985
2026/05/14 10:30:23.537,0.024,-0.004,0.984
2026/05/14 10:30:23.556,0.025,-0.008,0.983
2026/05/14 10:30:23.576,0.02,-0.009,0.985
2026/05/14 10:30:23.596,0.024,-0.002,0.987
2026/05/14 10:30:23.615,0.024,-0.006,0.983
2026/05/14 10:30:23.635,0.025,-0.007,0.986
2026/05/14 10:30:23.655,0.025,-0.006,0.988
2026/05/14 10:30:23.674,0.023,-0.007,0.981
2026/05/14 10:30:23.694,0.023,-0.005,0.982
2026/05/14 10:30:23.713,0.022,-0.008,0.982
2026/05/14 10:30:23.733,0.038,0.0,1.024
2026/05/14 10:30:23.753,-0.022,-0.064,1.007
2026/05/14 10:30:23.772,0.029,0.006,1.017
2026/05/14 10:30:23.792,0.02,0.005,0.988
2026/05/14 10:30:23.812,0.028,-0.004,0.968
2026/05/14 10:30:23.831,0.031,-0.009,0.993
2026/05/14 10:30:23.851,0.049,-0.009,1.056
2026/05/14 10:30:23.871,0.03,0.002,0.968
2026/05/14 10:30:23.890,0.029,-0.005,0.982
2026/05/14 10:30:23.910,0.027,-0.002,0.992
2026/05/14 10:30:23.929,0.026,-0.008,0.98
2026/05/14 10:30:23.949,0.016,-0.01,0.987
2026/05/14 10:30:23.969,0.012,-0.013,0.993
2026/05/14 10:30:23.988,0.02,0.003,1.015
2026/05/14 10:30:24.008,0.011,0.014,0.968
2026/05/14 10:30:24.028,0.004,0.001,0.949
2026/05/14 10:30:24.047,0.024,-0.001,0.982
2026/05/14 10:30:24.067,0.029,-0.01,0.982
2026/05/14 10:30:24.087,0.038,-0.019,0.996
2026/05/14 10:30:24.106,0.034,-0.022,0.936
2026/05/14 10:30:24.126,0.04,-0.012,0.986
2026/05/14 10:30:24.145,0.033,-0.008,0.998
2026/05/14 10:30:24.165,0.021,0.009,0.976
2026/05/14 10:30:24.185,0.017,0.007,0.973
2026/05/14 10:30:24.204,0.015,0.01,0.992
2026/05/14 10:30:24.224,0.018,-0.005,0.986
2026/05/14 10:30:24.244,0.018,-0.009,0.983
2026/05/14 10:30:24.263,0.017,-0.012,0.986
2026/05/14 10:30:24.283,0.02,-0.015,0.988
2026/05/14 10:30:24.303,0.017,-0.011,0.984
2026/05/14 10:30:24.322,0.018,-0.008,0.985
2026/05/14 10:30:24.342,0.023,0.002,0.983
2026/05/14 10:30:24.361,0.026,0.006,0.993
2026/05/14 10:30:24.381,0.032,0.003,0.983
2026/05/14 10:30:24.401,0.031,-0.002,0.982
2026/05/14 10:30:24.420,0.029,-0.015,0.987
2026/05/14 10:30:24.440,0.026,-0.018,0.989
2026/05/14 10:30:24.460,0.023,-0.023,0.985
2026/05/14 10:30:24.479,0.017,-0.012,0.966
2026/05/14 10:30:24.499,0.02,-0.011,0.995
2026/05/14 10:30:24.518,0.01,0.007,0.982
2026/05/14 10:30:24.538,0.013,0.008,0.988
2026/05/14 10:30:24.558,0.018,0.007,0.973
2026/05/14 10:30:24.577,0.019,0.003,0.988
2026/05/14 10:30:24.597,0.023,-0.009,0.983
2026/05/14 10:30:24.617,0.025,-0.021,0.986
2026/05/14 10:30:24.636,0.033,-0.022,0.985
2026/05/14 10:30:24.656,0.036,-0.015,0.989
2026/05/14 10:30:24.676,0.029,-0.002,0.991
2026/05/14 10:30:24.695,0.018,0.008,0.988
2026/05/14 10:30:24.715,0.006,-0.008,0.972
2026/05/14 10:30:24.734,0.015,0.002,1.099
2026/05/14 10:30:24.754,-0.168,-0.115,0.974
2026/05/14 10:30:24.774,-0.287,-0.098,0.895
2026/05/14 10:30:24.793,-0.017,0.037,1.074
2026/05/14 10:30:24.813,0.202,0.145,0.953
2026/05/14 10:30:24.833,0.214,-0.081,1.115
2026/05/14 10:30:24.852,0.157,0.0,1.036
2026/05/14 10:30:24.872,0.079,-0.058,1.004
2026/05/14 10:30:24.892,0.057,-0.007,0.996
2026/05/14 10:30:24.911,0.035,-0.005,0.962
2026/05/14 10:30:24.931,0.042,0.01,0.978
2026/05/14 10:30:24.950,0.032,0.006,0.978
2026/05/14 10:30:24.970,-0.031,-0.015,1.004
2026/05/14 10:30:24.990,-0.004,-0.041,0.997
2026/05/14 10:30:25.009,-0.029,0.008,0.962
2026/05/14 10:30:25.029,0.1,0.037,0.955
2026/05/14 10:30:25.049,0.021,-0.029,0.998
2026/05/14 10:30:25.068,0.016,-0.013,0.988
2026/05/14 10:30:25.088,0.02,0.001,0.973
2026/05/14 10:30:25.107,0.036,0.007,1.002
2026/05/14 10:30:25.127,0.031,0.003,0.964
2026/05/14 10:30:25.147,0.018,-0.008,0.961
2026/05/14 10:30:25.166,0.023,-0.008,0.99
2026/05/14 10:30:25.186,0.016,-0.007,0.975
2026/05/14 10:30:25.206,0.02,-0.009,1.005
2026/05/14 10:30:25.225,0.016,-0.015,0.995
2026/05/14 10:30:25.245,0.029,-0.007,0.98
2026/05/14 10:30:25.265,0.021,0.0,0.911
2026/05/14 10:30:25.284,0.022,-0.006,1.041
2026/05/14 10:30:25.304,-0.006,-0.017,1.029
2026/05/14 10:30:25.323,0.015,-0.001,0.929
2026/05/14 10:30:25.343,-0.129,0.108,0.942
2026/05/14 10:30:25.363,0.049,0.041,0.879
2026/05/14 10:30:25.382,0.047,-0.001,0.989
2026/05/14 10:30:25.402,0.021,-0.012,1.012
2026/05/14 10:30:25.422,-0.215,-0.132,1.01
2026/05/14 10:30:25.441,0.023,0.019,0.942
2026/05/14 10:30:25.461,0.0,-0.013,0.958
2026/05/14 10:30:25.481,-0.003,0.001,0.979
2026/05/14 10:30:25.500,0.013,0.013,0.98
2026/05/14 10:30:25.520,0.028,0.007,0.983
2026/05/14 10:30:25.539,0.038,-0.005,0.997
2026/05/14 10:30:25.559,0.038,-0.008,0.984
2026/05/14 10:30:25.579,0.036,-0.005,0.999
2026/05/14 10:30:25.598,0.031,-0.02,0.986
2026/05/14 10:30:25.618,0.033,-0.035,0.991
2026/05/14 10:30:25.638,0.033,-0.017,1.007
2026/05/14 10:30:25.657,0.014,-0.012,0.991
2026/05/14 10:30:25.677,0.0,0.011,0.938
2026/05/14 10:30:25.696,-0.008,-0.133,0.963
2026/05/14 10:30:25.716,0.085,-0.171,1.401
2026/05/14 10:30:25.736,0.012,0.058,0.854
2026/05/14 10:30:25.755,0.021,-0.014,0.999
2026/05/14 10:30:25.775,0.024,0.011,0.972
2026/05/14 10:30:25.795,0.026,-0.008,0.978
2026/05/14 10:30:25.814,0.026,-0.022,0.987
2026/05/14 10:30:25.834,0.023,-0.033,0.995
2026/05/14 10:30:25.854,0.024,-0.016,0.989
2026/05/14 10:30:25.873,-0.054,0.048,0.251
2026/05/14 10:30:25.893,0.015,0.009,0.948
2026/05/14 10:30:25.912,0.025,0.025,1.013
2026/05/14 10:30:25.932,0.01,0.015,1.008
2026/05/14 10:30:25.952,0.006,0.005,0.971
2026/05/14 10:30:25.971,0.01,-0.011,0.977
2026/05/14 10:30:25.991,-0.161,0.056,1.01
2026/05/14 10:30:26.011,-0.174,0.058,0.944
2026/05/14 10:30:26.030,-0.144,-0.036,1.023
2026/05/14 10:30:26.050,0.127,-0.365,1.002
2026/05/14 10:30:26.070,0.218,-0.102,0.972
2026/05/14 10:30:26.089,0.176,0.107,0.995
2026/05/14 10:30:26.109,0.211,0.285,1.256
2026/05/14 10:30:26.128,0.015,0.018,0.966
2026/05/14 10:30:26.148,0.028,-0.063,1.038
2026/05/14 10:30:26.168,0.016,0.016,0.967
2026/05/14 10:30:26.187,0.011,0.001,0.968
2026/05/14 10:30:26.207,0.014,-0.021,0.986
2026/05/14 10:30:26.227,0.021,-0.021,0.983
2026/05/14 10:30:26.246,0.174,0.113,0.996
2026/05/14 10:30:26.266,0.18,0.132,1.05
2026/05/14 10:30:26.286,-0.137,-0.087,1.0
2026/05/14 10:30:26.305,-0.172,-0.217,0.984
2026/05/14 10:30:26.325,0.079,0.005,1.115
2026/05/14 10:30:26.344,0.254,0.092,1.039
2026/05/14 10:30:26.364,0.478,0.103,1.104
2026/05/14 10:30:26.384,0.131,-0.252,1.017
2026/05/14 10:30:26.403,-0.114,-0.059,0.156
2026/05/14 10:30:26.423,-0.377,-0.225,0.748
2026/05/14 10:30:26.443,0.191,0.054,0.868
2026/05/14 10:30:26.462,-0.033,0.134,0.808
2026/05/14 10:30:26.482,0.226,-0.124,0.931
2026/05/14 10:30:26.502,0.028,-0.045,0.773
2026/05/14 10:30:26.521,-0.104,-0.028,0.985
2026/05/14 10:30:26.541,-0.016,0.011,0.963
2026/05/14 10:30:26.560,0.024,0.016,0.954
2026/05/14 10:30:26.580,0.021,-0.007,0.971
2026/05/14 10:30:26.600,0.024,-0.009,0.963
2026/05/14 10:30:26.619,0.031,0.001,0.967
2026/05/14 10:30:26.639,0.044,0.004,0.986
2026/05/14 10:30:26.659,0.03,-0.016,1.015
2026/05/14 10:30:26.678,0.042,-0.01,1.005
2026/05/14 10:30:26.698,0.048,-0.006,0.993
2026/05/14 10:30:26.718,0.043,-0.028,0.977
2026/05/14 10:30:26.737,0.029,-0.029,0.981
2026/05/14 10:30:26.757,0.027,-0.017,0.983
2026/05/14 10:30:26.776,0.021,-0.007,0.972
2026/05/14 10:30:26.796,0.02,0.005,0.996
2026/05/14 10:30:26.816,0.026,0.012,0.99
2026/05/14 10:30:26.835,0.024,0.007,0.988
2026/05/14 10:30:26.855,0.021,-0.005,0.985
2026/05/14 10:30:26.875,0.018,-0.011,0.99
2026/05/14 10:30:26.894,0.018,-0.019,0.98
2026/05/14 10:30:26.914,0.024,-0.017,0.982
2026/05/14 10:30:26.933,0.027,-0.014,0.987
2026/05/14 10:30:26.953,0.033,-0.009,0.989
2026/05/14 10:30:26.973,0.042,-0.001,0.993
2026/05/14 10:30:26.992,0.039,0.002,0.986
2026/05/14 10:30:27.012,0.035,0.0,0.986
2026/05/14 10:30:27.032,0.027,-0.004,0.988
2026/05/14 10:30:27.051,0.025,-0.014,0.987
2026/05/14 10:30:27.071,0.021,-0.013,0.974
2026/05/14 10:30:27.091,0.018,-0.012,0.985
2026/05/14 10:30:27.110,0.02,-0.006,0.985
2026/05/14 10:30:27.130,0.018,-0.003,0.985
2026/05/14 10:30:27.149,0.02,0.005,0.984
2026/05/14 10:30:27.169,0.02,0.004,0.986
2026/05/14 10:30:27.189,0.025,0.002,0.978
2026/05/14 10:30:27.208,0.029,-0.011,0.985
2026/05/14 10:30:27.228,0.03,-0.01,0.987
2026/05/14 10:30:27.248,0.033,-0.009,0.982
2026/05/14 10:30:27.267,0.034,-0.011,0.983
2026/05/14 10:30:27.287,0.036,-0.01,0.985
2026/05/14 10:30:27.307,0.028,-0.006,0.989
2026/05/14 10:30:27.326,0.029,-0.007,0.981
2026/05/14 10:30:27.346,0.025,-0.002,0.986
2026/05/14 10:30:27.365,0.025,-0.003,0.986
2026/05/14 10:30:27.385,0.02,-0.006,0.985
2026/05/14 10:30:27.405,0.022,-0.009,0.985
2026/05/14 10:30:27.424,0.022,-0.01,0.985
2026/05/14 10:30:27.444,0.022,-0.013,0.983
2026/05/14 10:30:27.464,0.022,-0.005,0.979
2026/05/14 10:30:27.483,0.026,-0.007,0.982
2026/05/14 10:30:27.503,0.03,-0.001,0.986
2026/05/14 10:30:27.523,0.03,-0.002,0.985
2026/05/14 10:30:27.542,0.032,-0.008,0.987
2026/05/14 10:30:27.562,0.028,-0.01,0.986
2026/05/14 10:30:27.581,0.028,-0.011,0.982
2026/05/14 10:30:27.601,0.029,-0.013,0.985
2026/05/14 10:30:27.621,0.024,-0.006,0.987
2026/05/14 10:30:27.640,0.023,-0.009,0.984
2026/05/14 10:30:27.660,0.027,-0.002,0.982
2026/05/14 10:30:27.680,0.021,-0.002,0.987
2026/05/14 10:30:27.699,0.023,-0.002,0.987
2026/05/14 10:30:27.719,0.023,-0.004,0.98
2026/05/14 10:30:27.739,0.024,-0.008,0.986
2026/05/14 10:30:27.758,0.029,-0.004,0.974
2026/05/14 10:30:27.778,0.028,-0.011,0.994
2026/05/14 10:30:27.797,0.03,-0.006,0.992
2026/05/14 10:30:27.817,0.027,-0.008,0.982
2026/05/14 10:30:27.837,0.033,-0.002,0.985
2026/05/14 10:30:27.856,0.031,-0.007,0.99
2026/05/14 10:30:27.876,0.027,-0.001,0.989
2026/05/14 10:30:27.896,0.023,-0.006,0.979
2026/05/14 10:30:27.915,0.024,-0.009,0.982
2026/05/14 10:30:27.935,0.022,-0.007,0.984
2026/05/14 10:30:27.955,0.027,-0.007,0.986
2026/05/14 10:30:27.974,0.019,-0.005,0.98
2026/05/14 10:30:27.994,0.025,-0.002,0.987
2026/05/14 10:30:28.013,0.027,-0.002,0.979
2026/05/14 10:30:28.033,0.031,-0.005,0.983
2026/05/14 10:30:28.053,0.028,-0.006,0.987
2026/05/14 10:30:28.072,0.029,-0.007,0.983
2026/05/14 10:30:28.092,0.03,-0.006,0.987
2026/05/14 10:30:28.112,0.029,-0.015,0.983
2026/05/14 10:30:28.131,0.026,-0.005,0.99
2026/05/14 10:30:28.151,0.026,-0.011,0.983
2026/05/14 10:30:28.171,0.028,-0.001,0.986
2026/05/14 10:30:28.190,0.026,-0.004,0.977
2026/05/14 10:30:28.210,0.024,-0.006,0.984
2026/05/14 10:30:28.229,0.029,-0.004,0.985
2026/05/14 10:30:28.249,0.025,-0.006,0.985
2026/05/14 10:30:28.269,0.027,-0.009,0.988
2026/05/14 10:30:28.288,0.026,-0.003,0.978
2026/05/14 10:30:28.308,0.026,-0.01,0.979
2026/05/14 10:30:28.328,0.028,-0.004,0.986
2026/05/14 10:30:28.347,0.028,-0.01,0.983
2026/05/14 10:30:28.367,0.029,-0.008,0.984
2026/05/14 10:30:28.387,0.028,-0.006,0.989
2026/05/14 10:30:28.406,0.025,-0.011,0.985
2026/05/14 10:30:28.426,0.022,-0.008,0.982
2026/05/14 10:30:28.445,0.025,-0.008,0.991
2026/05/14 10:30:28.465,0.021,-0.007,0.963
2026/05/14 10:30:28.485,0.016,-0.01,0.881
2026/05/14 10:30:28.504,0.046,-0.022,1.084
2026/05/14 10:30:28.524,0.072,0.01,0.93
2026/05/14 10:30:28.544,0.05,0.024,1.024
2026/05/14 10:30:28.563,0.041,0.029,0.865
2026/05/14 10:30:28.583,0.022,-0.011,0.986
2026/05/14 10:30:28.602,0.069,0.0,1.147
2026/05/14 10:30:28.622,0.023,-0.014,0.906
2026/05/14 10:30:28.642,0.0,-0.011,0.895
2026/05/14 10:30:28.661,0.008,-0.015,1.008
2026/05/14 10:30:28.681,0.026,0.009,0.969
2026/05/14 10:30:28.701,0.034,0.018,0.978
2026/05/14 10:30:28.720,0.01,0.034,1.045
2026/05/14 10:30:28.740,0.046,0.025,1.114
2026/05/14 10:30:28.760,0.016,-0.022,1.0
2026/05/14 10:30:28.779,0.021,-0.028,0.989
2026/05/14 10:30:28.799,0.027,-0.038,0.984
2026/05/14 10:30:28.818,0.035,-0.036,0.968
2026/05/14 10:30:28.838,0.036,-0.021,0.969
2026/05/14 10:30:28.858,0.037,0.008,0.979
2026/05/14 10:30:28.877,0.036,0.026,0.98
2026/05/14 10:30:28.897,0.029,0.017,0.997
2026/05/14 10:30:28.917,0.031,0.003,0.984
2026/05/14 10:30:28.936,0.022,-0.018,0.979
2026/05/14 10:30:28.956,0.019,-0.026,0.987
2026/05/14 10:30:28.976,0.012,-0.029,0.982
2026/05/14 10:30:28.995,0.011,-0.016,0.983
2026/05/14 10:30:29.015,0.019,0.0,0.987
2026/05/14 10:30:29.034,0.112,0.053,1.102
2026/05/14 10:30:29.054,0.031,0.0,1.026
2026/05/14 10:30:29.074,0.038,0.011,0.985
2026/05/14 10:30:29.093,0.041,-0.002,0.993
2026/05/14 10:30:29.113,0.03,-0.014,0.981
2026/05/14 10:30:29.133,0.025,-0.017,0.965
2026/05/14 10:30:29.152,0.258,0.036,2.012
2026/05/14 10:30:29.172,0.012,-0.024,0.953
2026/05/14 10:30:29.192,0.032,-0.018,1.0
2026/05/14 10:30:29.211,0.048,0.007,1.005
2026/05/14 10:30:29.231,0.031,0.023,1.015
2026/05/14 10:30:29.250,0.015,0.1,1.165
2026/05/14 10:30:29.270,0.073,0.043,1.043
2026/05/14 10:30:29.290,0.028,-0.004,0.992
2026/05/14 10:30:29.309,0.022,-0.021,0.979
2026/05/14 10:30:29.329,0.021,-0.032,0.972
2026/05/14 10:30:29.349,0.041,-0.002,0.979
2026/05/14 10:30:29.368,0.042,0.02,1.124
2026/05/14 10:30:29.388,0.034,0.018,0.974
2026/05/14 10:30:29.408,0.005,0.008,0.917
2026/05/14 10:30:29.427,0.058,0.025,1.007
2026/05/14 10:30:29.447,0.017,-0.014,0.983
2026/05/14 10:30:29.466,0.067,0.061,0.914
2026/05/14 10:30:29.486,0.019,-0.025,0.96
2026/05/14 10:30:29.506,0.006,-0.019,0.971
2026/05/14 10:30:29.525,0.014,-0.01,0.948
2026/05/14 10:30:29.545,-0.006,-0.01,0.977
2026/05/14 10:30:29.565,0.023,0.004,0.96
2026/05/14 10:30:29.584,0.032,0.001,1.005
2026/05/14 10:30:29.604,0.029,0.005,0.987
2026/05/14 10:30:29.623,0.031,-0.006,0.972
2026/05/14 10:30:29.643,0.02,-0.015,0.955
2026/05/14 10:30:29.663,0.029,-0.026,0.961
2026/05/14 10:30:29.682,0.03,-0.029,0.998
2026/05/14 10:30:29.702,0.029,-0.013,0.99
2026/05/14 10:30:29.722,0.027,-0.011,0.975
2026/05/14 10:30:29.741,0.033,-0.001,0.989
2026/05/14 10:30:29.761,0.029,0.007,0.995
2026/05/14 10:30:29.781,0.003,0.017,1.034
2026/05/14 10:30:29.800,0.016,-0.02,1.031
2026/05/14 10:30:29.820,0.017,-0.021,0.983
2026/05/14 10:30:29.839,0.024,-0.009,0.971
2026/05/14 10:30:29.859,0.036,-0.008,0.986
2026/05/14 10:30:29.879,0.038,0.002,0.983
2026/05/14 10:30:29.898,0.031,0.016,0.991
2026/05/14 10:30:29.918,0.046,0.004,0.976
2026/05/14 10:30:29.938,0.017,-0.003,0.964
2026/05/14 10:30:29.957,0.065,0.005,0.964
2026/05/14 10:30:29.977,0.55,-0.14,2.265
2026/05/14 10:30:29.997,0.049,0.026,0.899
2026/05/14 10:30:30.016,-0.055,0.043,1.088
2026/05/14 10:30:30.036,0.092,0.059,1.008
2026/05/14 10:30:30.055,0.045,0.019,0.968
2026/05/14 10:30:30.075,0.038,0.015,0.976
2026/05/14 10:30:30.095,0.028,0.0,0.991
2026/05/14 10:30:30.114,0.03,-0.005,0.95
2026/05/14 10:30:30.134,0.022,-0.026,0.949
2026/05/14 10:30:30.154,0.02,-0.022,0.965
2026/05/14 10:30:30.173,0.018,-0.026,0.983
2026/05/14 10:30:30.193,0.021,-0.01,0.983
2026/05/14 10:30:30.212,0.031,-0.004,0.979
2026/05/14 10:30:30.232,0.034,0.004,0.978
2026/05/14 10:30:30.252,0.033,0.004,0.976
2026/05/14 10:30:30.271,0.028,-0.002,0.965
2026/05/14 10:30:30.291,0.029,-0.007,0.993
2026/05/14 10:30:30.311,0.028,-0.019,0.981
2026/05/14 10:30:30.330,0.034,-0.016,0.985
2026/05/14 10:30:30.350,0.07,-0.083,1.384
2026/05/14 10:30:30.370,-0.023,0.01,0.799
2026/05/14 10:30:30.389,0.035,0.008,0.943
2026/05/14 10:30:30.409,0.02,-0.007,1.002
2026/05/14 10:30:30.428,0.043,0.04,1.035
2026/05/14 10:30:30.448,-0.096,0.015,0.734
2026/05/14 10:30:30.468,-0.003,0.048,0.999
2026/05/14 10:30:30.487,0.026,-0.049,0.976
2026/05/14 10:30:30.507,0.019,-0.015,0.95
2026/05/14 10:30:30.527,0.022,-0.015,0.976
2026/05/14 10:30:30.546,0.03,-0.011,1.023
2026/05/14 10:30:30.566,0.03,0.0,0.994
2026/05/14 10:30:30.586,0.032,0.002,0.99
2026/05/14 10:30:30.605,0.032,0.001,0.992
2026/05/14 10:30:30.625,0.038,-0.001,0.993
2026/05/14 10:30:30.644,0.006,-0.032,0.716
2026/05/14 10:30:30.664,-0.052,-0.003,0.832
2026/05/14 10:30:30.684,0.042,0.011,1.123
2026/05/14 10:30:30.703,0.068,0.018,1.04
2026/05/14 10:30:30.723,0.033,-0.01,1.018
2026/05/14 10:30:30.743,0.128,-0.081,1.088
2026/05/14 10:30:30.762,0.041,0.005,1.029
2026/05/14 10:30:30.782,0.028,-0.002,0.982
2026/05/14 10:30:30.802,0.026,0.027,1.053
2026/05/14 10:30:30.821,0.013,-0.029,0.937
2026/05/14 10:30:30.841,0.028,-0.024,0.985
2026/05/14 10:30:30.860,0.049,-0.013,1.076
2026/05/14 10:30:30.880,0.028,0.001,0.934
2026/05/14 10:30:30.900,0.025,-0.004,0.963
2026/05/14 10:30:30.919,0.028,-0.005,0.984
2026/05/14 10:30:30.939,0.024,-0.004,0.988
2026/05/14 10:30:30.959,0.026,0.03,0.999
2026/05/14 10:30:30.978,0.017,0.003,0.924
2026/05/14 10:30:30.998,0.049,0.022,0.85
2026/05/14 10:30:31.017,0.033,-0.007,0.981
2026/05/14 10:30:31.037,0.027,-0.007,0.99
2026/05/14 10:30:31.057,0.018,-0.008,0.983
2026/05/14 10:30:31.076,0.036,0.011,0.988
2026/05/14 10:30:31.096,0.046,0.002,0.976
2026/05/14 10:30:31.116,0.007,0.004,0.896
2026/05/14 10:30:31.135,0.03,-0.002,0.986
2026/05/14 10:30:31.155,0.022,-0.006,0.978
2026/05/14 10:30:31.175,0.042,-0.019,1.044
2026/05/14 10:30:31.194,0.03,-0.004,1.055
2026/05/14 10:30:31.214,0.027,-0.002,0.97
2026/05/14 10:30:31.233,0.024,-0.002,1.007
2026/05/14 10:30:31.253,0.036,-0.031,1.044
2026/05/14 10:30:31.273,0.019,-0.011,0.913
2026/05/14 10:30:31.292,0.031,-0.02,0.978
2026/05/14 10:30:31.312,0.04,-0.012,0.93
2026/05/14 10:30:31.332,0.016,-0.016,1.035
2026/05/14 10:30:31.351,0.029,0.001,1.009
2026/05/14 10:30:31.371,0.035,0.006,1.01
2026/05/14 10:30:31.391,0.028,0.014,0.986
2026/05/14 10:30:31.410,0.02,0.0,0.983
2026/05/14 10:30:31.430,0.018,-0.003,0.976
2026/05/14 10:30:31.449,0.021,-0.02,0.965
2026/05/14 10:30:31.469,0.018,-0.015,0.985
2026/05/14 10:30:31.489,-0.033,-0.002,0.257
2026/05/14 10:30:31.508,0.023,0.04,0.862
2026/05/14 10:30:31.528,0.163,-0.02,1.226
2026/05/14 10:30:31.548,0.157,0.102,0.93
2026/05/14 10:30:31.567,0.034,-0.002,0.995
2026/05/14 10:30:31.587,0.055,0.01,1.062
2026/05/14 10:30:31.607,0.03,-0.029,1.021
2026/05/14 10:30:31.626,0.026,-0.015,0.985
2026/05/14 10:30:31.646,0.026,-0.01,0.974
2026/05/14 10:30:31.665,0.024,-0.003,0.981
2026/05/14 10:30:31.685,0.027,0.001,0.983
2026/05/14 10:30:31.705,0.03,0.002,0.988
2026/05/14 10:30:31.724,0.028,-0.003,0.988
2026/05/14 10:30:31.744,0.024,-0.008,0.98
2026/05/14 10:30:31.764,0.024,-0.013,0.986
2026/05/14 10:30:31.783,0.037,0.011,1.007
2026/05/14 10:30:31.803,0.031,0.004,1.055
2026/05/14 10:30:31.822,0.021,-0.017,0.838
2026/05/14 10:30:31.842,0.055,0.02,1.059
2026/05/14 10:30:31.862,0.028,-0.018,1.014
2026/05/14 10:30:31.881,0.038,0.0,0.99
2026/05/14 10:30:31.901,0.042,-0.002,0.963
2026/05/14 10:30:31.921,0.032,-0.003,0.996
2026/05/14 10:30:31.940,0.004,-0.009,1.035
2026/05/14 10:30:31.960,0.028,-0.008,0.923
2026/05/14 10:30:31.980,-0.005,-0.006,1.016
2026/05/14 10:30:31.999,0.023,0.0,0.963
2026/05/14 10:30:32.019,0.018,-0.011,0.973
2026/05/14 10:30:32.038,0.023,-0.012,0.989
2026/05/14 10:30:32.058,0.023,-0.004,0.987
2026/05/14 10:30:32.078,0.029,-0.005,0.995
2026/05/14 10:30:32.097,0.043,-0.025,1.056
2026/05/14 10:30:32.117,0.078,0.033,1.167
2026/05/14 10:30:32.137,-0.004,-0.005,0.948
2026/05/14 10:30:32.156,0.027,-0.009,0.976
2026/05/14 10:30:32.176,0.025,-0.012,0.988
2026/05/14 10:30:32.196,0.025,-0.017,0.997
2026/05/14 10:30:32.215,0.027,-0.008,0.983
2026/05/14 10:30:32.235,0.025,0.001,0.982
2026/05/14 10:30:32.254,0.028,-0.005,0.964
2026/05/14 10:30:32.274,-0.017,-0.024,0.871
2026/05/14 10:30:32.294,0.064,0.022,0.931
2026/05/14 10:30:32.313,0.025,-0.005,0.98
2026/05/14 10:30:32.333,0.028,-0.009,0.985
2026/05/14 10:30:32.353,0.033,-0.006,0.992
2026/05/14 10:30:32.372,0.029,0.001,0.958
2026/05/14 10:30:32.392,0.001,-0.003,0.893
2026/05/14 10:30:32.412,0.06,-0.061,1.061
2026/05/14 10:30:32.431,-0.021,-0.101,0.794
2026/05/14 10:30:32.451,0.039,-0.035,1.201
2026/05/14 10:30:32.470,-0.001,-0.023,0.983
2026/05/14 10:30:32.490,0.013,-0.001,0.921
2026/05/14 10:30:32.510,0.036,0.015,0.993
2026/05/14 10:30:32.529,0.099,-0.06,1.231
2026/05/14 10:30:32.549,0.015,0.018,1.047
2026/05/14 10:30:32.569,0.104,0.147,1.026
2026/05/14 10:30:32.588,0.057,-0.078,0.949
2026/05/14 10:30:32.608,0.035,-0.072,1.315
2026/05/14 10:30:32.627,0.012,-0.019,0.941
2026/05/14 10:30:32.647,0.036,0.003,0.999
2026/05/14 10:30:32.667,0.029,-0.003,0.984
2026/05/14 10:30:32.686,0.025,-0.006,0.991
2026/05/14 10:30:32.706,0.029,-0.004,0.995
2026/05/14 10:30:32.726,0.025,-0.003,0.983
2026/05/14 10:30:32.745,0.0,-0.163,1.153
2026/05/14 10:30:32.765,0.042,0.002,1.059
2026/05/14 10:30:32.785,0.015,0.004,0.963
2026/05/14 10:30:32.804,0.045,0.019,1.096
2026/05/14 10:30:32.824,0.025,-0.009,0.963
2026/05/14 10:30:32.843,0.03,0.006,0.962
2026/05/14 10:30:32.863,0.037,-0.01,0.977
2026/05/14 10:30:32.883,0.031,-0.005,0.969
2026/05/14 10:30:32.902,0.028,-0.002,0.992
2026/05/14 10:30:32.922,-0.052,-0.012,0.125
2026/05/14 10:30:32.942,0.055,-0.045,1.178
2026/05/14 10:30:32.961,0.003,-0.028,1.015
2026/05/14 10:30:32.981,0.077,-0.019,1.181
2026/05/14 10:30:33.001,0.024,0.002,0.951
2026/05/14 10:30:33.020,0.016,-0.004,0.976
2026/05/14 10:30:33.040,0.013,0.004,0.971
2026/05/14 10:30:33.059,0.024,-0.006,0.969
2026/05/14 10:30:33.079,0.007,-0.018,0.861
2026/05/14 10:30:33.099,0.037,-0.015,1.004
2026/05/14 10:30:33.118,0.039,-0.009,0.986
2026/05/14 10:30:33.138,0.038,-0.011,0.959
2026/05/14 10:30:33.158,0.0,-0.031,0.985
2026/05/14 10:30:33.177,0.027,-0.027,0.968
2026/05/14 10:30:33.197,0.031,-0.014,1.0
2026/05/14 10:30:33.217,0.024,-0.005,0.987
2026/05/14 10:30:33.236,0.016,-0.006,1.008
2026/05/14 10:30:33.256,0.062,-0.02,0.905
2026/05/14 10:30:33.275,0.016,-0.002,0.98
2026/05/14 10:30:33.295,0.016,-0.005,0.99
2026/05/14 10:30:33.315,0.023,-0.005,0.987
2026/05/14 10:30:33.334,0.014,0.009,0.98
2026/05/14 10:30:33.354,0.022,-0.008,0.96
2026/05/14 10:30:33.374,0.042,-0.004,1.009
2026/05/14 10:30:33.393,0.035,-0.007,0.981
2026/05/14 10:30:33.413,0.044,0.011,1.015
2026/05/14 10:30:33.432,0.029,-0.003,0.981
2026/05/14 10:30:33.452,0.032,-0.048,1.035
2026/05/14 10:30:33.472,0.032,-0.024,0.986
2026/05/14 10:30:33.491,0.014,0.013,0.956
2026/05/14 10:30:33.511,0.064,0.032,1.063
2026/05/14 10:30:33.531,0.022,0.001,1.019
2026/05/14 10:30:33.550,0.023,0.002,0.98
2026/05/14 10:30:33.570,0.028,-0.002,1.002
2026/05/14 10:30:33.590,0.025,-0.006,0.977
2026/05/14 10:30:33.609,0.028,-0.007,0.982
2026/05/14 10:30:33.629,0.031,-0.007,0.983
2026/05/14 10:30:33.648,0.094,0.031,1.079
2026/05/14 10:30:33.668,0.031,0.001,0.959
2026/05/14 10:30:33.688,0.027,-0.017,0.98
2026/05/14 10:30:33.707,0.031,-0.015,0.985
2026/05/14 10:30:33.727,0.029,-0.01,0.964
2026/05/14 10:30:33.747,0.025,-0.003,0.995
2026/05/14 10:30:33.766,0.035,-0.013,1.018
2026/05/14 10:30:33.786,0.024,-0.007,0.993
2026/05/14 10:30:33.806,0.041,-0.045,0.98
2026/05/14 10:30:33.825,0.016,0.012,0.954
2026/05/14 10:30:33.845,0.027,-0.007,0.979
2026/05/14 10:30:33.864,0.026,-0.011,0.981
2026/05/14 10:30:33.884,0.025,-0.009,0.978
2026/05/14 10:30:33.904,0.026,-0.006,0.989
2026/05/14 10:30:33.923,0.032,-0.007,0.985
2026/05/14 10:30:33.943,0.036,0.006,0.907
2026/05/14 10:30:33.963,0.029,-0.012,1.004
2026/05/14 10:30:33.982,0.028,-0.009,0.993
2026/05/14 10:30:34.002,0.031,0.006,0.976
2026/05/14 10:30:34.022,0.027,-0.012,0.973
2026/05/14 10:30:34.041,0.029,-0.007,0.986
2026/05/14 10:30:34.061,0.027,-0.008,0.979
2026/05/14 10:30:34.080,0.018,-0.031,0.847
2026/05/14 10:30:34.100,0.036,-0.028,1.05
2026/05/14 10:30:34.120,0.016,-0.009,0.912
2026/05/14 10:30:34.139,0.025,0.003,1.033
2026/05/14 10:30:34.159,0.014,-0.034,0.823
2026/05/14 10:30:34.179,0.022,-0.026,0.844
2026/05/14 10:30:34.198,0.015,-0.013,1.096
2026/05/14 10:30:34.218,0.025,-0.008,0.984
2026/05/14 10:30:34.238,-0.087,-0.09,0.143
2026/05/14 10:30:34.257,0.059,0.009,0.865
2026/05/14 10:30:34.277,0.02,0.009,0.895
2026/05/14 10:30:34.296,0.047,-0.009,1.043
2026/05/14 10:30:34.316,0.039,-0.08,1.099
2026/05/14 10:30:34.336,0.042,-0.006,0.932
2026/05/14 10:30:34.355,0.027,-0.007,0.991
2026/05/14 10:30:34.375,0.025,-0.003,0.989
2026/05/14 10:30:34.395,0.02,-0.001,0.965
2026/05/14 10:30:34.414,0.022,-0.005,0.979
2026/05/14 10:30:34.434,0.029,-0.006,0.988
2026/05/14 10:30:34.453,0.022,-0.005,0.985
2026/05/14 10:30:34.473,0.025,-0.012,0.985
2026/05/14 10:30:34.493,0.027,-0.008,0.983
2026/05/14 10:30:34.512,0.027,-0.004,0.981
2026/05/14 10:30:34.532,0.033,-0.006,0.985
2026/05/14 10:30:34.552,0.022,-0.007,0.977
2026/05/14 10:30:34.571,0.092,0.026,1.171
2026/05/14 10:30:34.591,0.024,-0.004,1.054
2026/05/14 10:30:34.611,0.028,0.0,0.988
2026/05/14 10:30:34.630,0.032,-0.009,0.963
2026/05/14 10:30:34.650,0.016,0.004,1.001
2026/05/14 10:30:34.669,0.015,-0.018,0.994
2026/05/14 10:30:34.689,0.025,-0.001,0.993
2026/05/14 10:30:34.709,0.035,0.002,0.998
2026/05/14 10:30:34.728,0.035,0.002,0.987
2026/05/14 10:30:34.748,0.031,-0.003,0.977
2026/05/14 10:30:34.768,0.025,-0.018,0.997
2026/05/14 10:30:34.787,0.038,-0.001,1.043
2026/05/14 10:30:34.807,-0.073,-0.006,0.134
2026/05/14 10:30:34.827,-0.023,0.09,0.546
2026/05/14 10:30:34.846,0.017,0.022,0.9
2026/05/14 10:30:34.866,0.077,-0.012,1.094
2026/05/14 10:30:34.885,0.012,0.023,0.959
2026/05/14 10:30:34.905,0.045,0.0,1.098
2026/05/14 10:30:34.925,0.044,-0.002,1.014
2026/05/14 10:30:34.944,0.034,-0.009,0.905
2026/05/14 10:30:34.964,0.023,-0.011,0.956
2026/05/14 10:30:34.984,0.024,-0.01,0.982
2026/05/14 10:30:35.003,0.019,-0.003,0.997
2026/05/14 10:30:35.023,0.036,0.006,1.002
2026/05/14 10:30:35.043,0.038,0.002,0.985
2026/05/14 10:30:35.062,0.029,-0.011,0.964
2026/05/14 10:30:35.082,0.027,-0.019,0.972
2026/05/14 10:30:35.101,0.022,-0.012,0.991
2026/05/14 10:30:35.121,0.028,-0.001,0.991
2026/05/14 10:30:35.141,0.033,0.006,0.99
2026/05/14 10:30:35.160,0.056,0.032,1.059
2026/05/14 10:30:35.180,0.036,-0.001,0.999
2026/05/14 10:30:35.200,0.03,-0.013,0.991
2026/05/14 10:30:35.219,0.003,-0.055,0.963
2026/05/14 10:30:35.239,0.024,-0.016,1.015
2026/05/14 10:30:35.259,0.024,-0.012,0.952
2026/05/14 10:30:35.278,0.043,0.004,1.034
2026/05/14 10:30:35.298,0.001,-0.14,1.277
2026/05/14 10:30:35.317,0.033,-0.016,1.211
2026/05/14 10:30:35.337,-0.017,-0.035,1.082
2026/05/14 10:30:35.357,0.024,-0.001,1.014
2026/05/14 10:30:35.376,0.219,-0.08,1.785
2026/05/14 10:30:35.396,0.001,0.027,1.217
2026/05/14 10:30:35.416,0.033,-0.021,0.885
2026/05/14 10:30:35.435,0.013,-0.003,0.93
2026/05/14 10:30:35.455,0.008,-0.016,0.896
2026/05/14 10:30:35.474,0.033,-0.001,0.975
2026/05/14 10:30:35.494,0.055,-0.022,1.113
2026/05/14 10:30:35.514,-0.002,-0.032,0.965
2026/05/14 10:30:35.533,0.025,-0.008,0.996
2026/05/14 10:30:35.553,0.025,-0.011,0.996
2026/05/14 10:30:35.573,0.023,-0.014,0.97
2026/05/14 10:30:35.592,0.025,-0.008,0.965
2026/05/14 10:30:35.612,0.021,-0.007,0.986
2026/05/14 10:30:35.632,0.021,-0.001,0.99
2026/05/14 10:30:35.651,0.025,-0.003,0.986
2026/05/14 10:30:35.671,0.027,-0.004,0.982
2026/05/14 10:30:35.690,0.028,-0.008,0.988
2026/05/14 10:30:35.710,0.028,-0.008,0.986
2026/05/14 10:30:35.730,0.03,-0.008,0.983
2026/05/14 10:30:35.749,0.025,-0.008,0.982
2026/05/14 10:30:35.769,0.026,-0.007,0.987
2026/05/14 10:30:35.789,0.029,-0.006,0.993
2026/05/14 10:30:35.808,0.03,-0.008,0.987
2026/05/14 10:30:35.828,0.023,-0.004,0.984
2026/05/14 10:30:35.848,0.022,-0.005,0.986
2026/05/14 10:30:35.867,0.023,-0.005,0.99
2026/05/14 10:30:35.887,0.022,-0.009,0.987
2026/05/14 10:30:35.906,0.024,-0.009,0.987
2026/05/14 10:30:35.926,0.026,-0.012,0.986
2026/05/14 10:30:35.946,0.028,-0.009,0.989
2026/05/14 10:30:35.965,0.026,-0.007,0.986
2026/05/14 10:30:35.985,0.033,-0.001,0.989
2026/05/14 10:30:36.005,0.028,-0.007,0.983
2026/05/14 10:30:36.024,0.031,-0.01,0.984
2026/05/14 10:30:36.044,0.028,-0.01,0.988
2026/05/14 10:30:36.064,0.026,-0.006,0.984
2026/05/14 10:30:36.083,0.024,-0.006,0.983
2026/05/14 10:30:36.103,0.024,-0.009,0.985
2026/05/14 10:30:36.122,0.025,-0.005,0.986
2026/05/14 10:30:36.142,0.028,-0.006,0.988
2026/05/14 10:30:36.162,0.029,-0.006,0.979
2026/05/14 10:30:36.181,0.025,-0.007,0.98
2026/05/14 10:30:36.201,0.026,-0.008,0.985
2026/05/14 10:30:36.221,0.026,-0.006,0.984
2026/05/14 10:30:36.240,0.03,-0.009,0.983
2026/05/14 10:30:36.260,0.028,-0.011,0.983
2026/05/14 10:30:36.280,0.025,-0.004,0.987
2026/05/14 10:30:36.299,0.029,-0.007,0.988
2026/05/14 10:30:36.319,0.025,-0.002,0.984
2026/05/14 10:30:36.338,0.027,-0.008,0.985
2026/05/14 10:30:36.358,0.024,-0.008,0.988
2026/05/14 10:30:36.378,0.026,-0.008,0.985
2026/05/14 10:30:36.397,0.022,-0.005,0.986
2026/05/14 10:30:36.417,0.028,-0.01,0.989
2026/05/14 10:30:36.437,0.027,-0.006,0.982
2026/05/14 10:30:36.456,0.029,-0.007,0.983
2026/05/14 10:30:36.476,0.024,-0.007,0.984
2026/05/14 10:30:36.495,0.028,-0.008,0.985
2026/05/14 10:30:36.515,0.028,-0.006,0.985
2026/05/14 10:30:36.535,0.027,-0.01,0.985
2026/05/14 10:30:36.554,0.028,-0.005,0.985
2026/05/14 10:30:36.574,0.026,-0.01,0.981
2026/05/14 10:30:36.594,0.029,-0.009,0.984
2026/05/14 10:30:36.613,0.026,-0.004,0.987
2026/05/14 10:30:36.633,0.025,-0.004,0.982
2026/05/14 10:30:36.653,0.025,-0.003,0.987
2026/05/14 10:30:36.672,0.025,-0.01,0.987
2026/05/14 10:30:36.692,0.021,-0.007,0.983
2026/05/14 10:30:36.711,0.026,-0.008,0.986
2026/05/14 10:30:36.731,0.025,-0.009,0.982
2026/05/14 10:30:36.751,0.025,-0.01,0.984
2026/05/14 10:30:36.770,0.029,-0.008,0.984
2026/05/14 10:30:36.790,0.027,-0.008,0.982
2026/05/14 10:30:36.810,0.032,-0.001,0.984
2026/05/14 10:30:36.829,0.026,-0.004,0.986
2026/05/14 10:30:36.849,0.028,-0.005,0.985
2026/05/14 10:30:36.869,0.026,-0.005,0.987
2026/05/14 10:30:36.888,0.026,-0.008,0.979
2026/05/14 10:30:36.908,0.025,-0.009,0.984
2026/05/14 10:30:36.927,0.021,-0.007,0.985
2026/05/14 10:30:36.947,0.026,-0.003,0.986
2026/05/14 10:30:36.967,0.027,-0.004,0.984
2026/05/14 10:30:36.986,0.028,-0.005,0.988
2026/05/14 10:30:37.006,0.024,-0.008,0.986
2026/05/14 10:30:37.026,0.028,-0.007,0.985
2026/05/14 10:30:37.045,0.029,-0.005,0.987
2026/05/14 10:30:37.065,0.027,-0.006,0.984
2026/05/14 10:30:37.085,0.025,-0.01,0.986
2026/05/14 10:30:37.104,0.029,-0.008,0.982
2026/05/14 10:30:37.124,0.026,-0.008,0.987
2026/05/14 10:30:37.143,0.026,-0.004,0.983
2026/05/14 10:30:37.163,0.027,-0.007,0.983
2026/05/14 10:30:37.183,0.026,-0.007,0.985
2026/05/14 10:30:37.202,0.028,-0.008,0.982
2026/05/14 10:30:37.222,0.03,-0.008,0.99
2026/05/14 10:30:37.242,0.027,-0.009,0.984
2026/05/14 10:30:37.261,0.029,-0.004,0.986
2026/05/14 10:30:37.281,0.027,-0.008,0.988
2026/05/14 10:30:37.301,0.028,-0.006,0.984
2026/05/14 10:30:37.320,0.029,-0.009,0.987
2026/05/14 10:30:37.340,0.026,-0.008,0.981
2026/05/14 10:30:37.359,0.029,-0.007,0.984
2026/05/14 10:30:37.379,0.024,-0.007,0.984
2026/05/14 10:30:37.399,0.021,-0.008,0.983
2026/05/14 10:30:37.418,0.026,-0.007,0.985
2026/05/14 10:30:37.438,0.025,-0.006,0.982
2026/05/14 10:30:37.458,0.027,-0.008,0.981
2026/05/14 10:30:37.477,0.027,-0.009,0.987
2026/05/14 10:30:37.497,0.029,-0.007,0.984
2026/05/14 10:30:37.517,0.027,-0.007,0.989
2026/05/14 10:30:37.536,0.026,-0.007,0.984
2026/05/14 10:30:37.556,0.026,-0.007,0.987
2026/05/14 10:30:37.575,0.027,-0.005,0.984
2026/05/14 10:30:37.595,0.028,-0.005,0.988
2026/05/14 10:30:37.615,0.026,-0.005,0.983
2026/05/14 10:30:37.634,0.023,-0.005,0.984
2026/05/14 10:30:37.654,0.024,-0.01,0.987
2026/05/14 10:30:37.674,0.025,-0.005,0.98
2026/05/14 10:30:37.693,0.026,-0.007,0.984
2026/05/14 10:30:37.713,0.023,-0.008,0.983
2026/05/14 10:30:37.733,0.028,-0.01,0.983
2026/05/14 10:30:37.752,0.026,-0.004,0.987
2026/05/14 10:30:37.772,0.028,-0.005,0.987
2026/05/14 10:30:37.791,0.033,-0.008,0.984
2026/05/14 10:30:37.811,0.029,-0.009,0.987
2026/05/14 10:30:37.831,0.028,-0.006,0.984
2026/05/14 10:30:37.850,0.026,-0.008,0.985
2026/05/14 10:30:37.870,0.021,-0.005,0.984
2026/05/14 10:30:37.890,0.024,-0.004,0.985
2026/05/14 10:30:37.909,0.027,-0.006,0.981
2026/05/14 10:30:37.929,0.026,-0.008,0.983
2026/05/14 10:30:37.948,0.026,-0.011,0.984
2026/05/14 10:30:37.968,0.028,-0.006,0.983
2026/05/14 10:30:37.988,0.026,-0.006,0.986
2026/05/14 10:30:38.007,0.026,-0.009,0.984
2026/05/14 10:30:38.027,0.029,-0.008,0.987
2026/05/14 10:30:38.047,0.03,-0.006,0.983
2026/05/14 10:30:38.066,0.028,-0.005,0.987
2026/05/14 10:30:38.086,0.028,-0.01,0.984
2026/05/14 10:30:38.106,0.024,-0.007,0.982
2026/05/14 10:30:38.125,0.026,-0.003,0.987
2026/05/14 10:30:38.145,0.026,-0.008,0.984
2026/05/14 10:30:38.164,0.028,-0.008,0.984
2026/05/14 10:30:38.184,0.024,-0.008,0.984
2026/05/14 10:30:38.204,0.023,-0.007,0.985
2026/05/14 10:30:38.223,0.027,-0.005,0.984
2026/05/14 10:30:38.243,0.029,-0.009,0.987
2026/05/14 10:30:38.263,0.028,-0.007,0.982
2026/05/14 10:30:38.282,0.031,-0.009,0.984
2026/05/14 10:30:38.302,0.026,-0.007,0.987
2026/05/14 10:30:38.322,0.024,-0.009,0.985
2026/05/14 10:30:38.341,0.026,-0.008,0.984
2026/05/14 10:30:38.361,0.021,-0.006,0.983
2026/05/14 10:30:38.380,0.029,-0.008,0.985
2026/05/14 10:30:38.400,0.026,-0.008,0.986
2026/05/14 10:30:38.420,0.027,-0.006,0.982
2026/05/14 10:30:38.439,0.026,-0.007,0.984
2026/05/14 10:30:38.459,0.028,-0.008,0.982
2026/05/14 10:30:38.479,0.023,-0.006,0.986
2026/05/14 10:30:38.498,0.029,-0.005,0.984
2026/05/14 10:30:38.518,0.028,-0.004,0.984
2026/05/14 10:30:38.538,0.028,-0.01,0.981
2026/05/14 10:30:38.557,0.027,-0.008,0.984
2026/05/14 10:30:38.577,0.024,-0.009,0.986
2026/05/14 10:30:38.596,0.023,-0.008,0.983
2026/05/14 10:30:38.616,0.025,-0.01,0.984
2026/05/14 10:30:38.636,0.027,-0.005,0.986
2026/05/14 10:30:38.655,0.025,-0.006,0.986
2026/05/14 10:30:38.675,0.026,-0.003,0.983
2026/05/14 10:30:38.695,0.024,-0.004,0.987
2026/05/14 10:30:38.714,0.028,-0.006,0.985
2026/05/14 10:30:38.734,0.026,-0.007,0.986
2026/05/14 10:30:38.754,0.028,-0.009,0.985
2026/05/14 10:30:38.773,0.027,-0.002,0.982
2026/05/14 10:30:38.793,0.026,-0.007,0.985
2026/05/14 10:30:38.812,0.026,-0.007,0.982
2026/05/14 10:30:38.832,0.029,-0.007,0.984
2026/05/14 10:30:38.852,0.026,-0.002,0.986
2026/05/14 10:30:38.871,0.026,-0.005,0.987
2026/05/14 10:30:38.891,0.025,-0.006,0.979
2026/05/14 10:30:38.911,0.023,-0.005,0.988
2026/05/14 10:30:38.930,0.02,-0.008,0.986
2026/05/14 10:30:38.950,0.028,-0.002,0.984
2026/05/14 10:30:38.969,0.028,-0.004,0.988
2026/05/14 10:30:38.989,0.026,-0.003,0.984
2026/05/14 10:30:39.009,0.029,-0.002,0.984
2026/05/14 10:30:39.028,0.031,-0.007,0.989
2026/05/14 10:30:39.048,0.033,-0.003,0.984
2026/05/14 10:30:39.068,0.033,-0.002,0.988
2026/05/14 10:30:39.087,0.038,-0.007,0.984
2026/05/14 10:30:39.107,0.036,-0.007,0.988
2026/05/14 10:30:39.127,0.035,-0.008,0.989
2026/05/14 10:30:39.146,0.035,-0.009,0.987
2026/05/14 10:30:39.166,0.03,-0.008,0.984
2026/05/14 10:30:39.185,0.022,-0.011,0.985
2026/05/14 10:30:39.205,0.021,-0.01,0.986
2026/05/14 10:30:39.225,0.019,-0.007,0.986
2026/05/14 10:30:39.244,0.019,-0.004,0.983
2026/05/14 10:30:39.264,0.019,-0.002,0.985
2026/05/14 10:30:39.284,0.022,-0.005,0.985
2026/05/14 10:30:39.303,0.025,-0.002,0.988
2026/05/14 10:30:39.323,0.026,-0.005,0.988
2026/05/14 10:30:39.343,0.03,-0.007,0.984
2026/05/14 10:30:39.362,0.032,-0.013,0.986
2026/05/14 10:30:39.382,0.032,-0.012,0.986
2026/05/14 10:30:39.401,0.03,-0.011,0.986
2026/05/14 10:30:39.421,0.029,-0.01,0.984
2026/05/14 10:30:39.441,0.028,-0.008,0.985
2026/05/14 10:30:39.460,0.027,-0.004,0.983
2026/05/14 10:30:39.480,0.022,-0.006,0.981
2026/05/14 10:30:39.500,0.018,-0.001,0.985
2026/05/14 10:30:39.519,0.021,-0.006,0.982
2026/05/14 10:30:39.539,0.021,-0.008,0.983
2026/05/14 10:30:39.559,0.02,-0.008,0.986
2026/05/14 10:30:39.578,0.028,-0.004,0.98
2026/05/14 10:30:39.598,0.027,-0.005,0.983
2026/05/14 10:30:39.617,0.033,-0.014,0.988
2026/05/14 10:30:39.637,0.03,-0.007,0.985
2026/05/14 10:30:39.657,0.033,-0.005,0.987
2026/05/14 10:30:39.676,0.03,-0.007,0.985
2026/05/14 10:30:39.696,0.029,-0.011,0.989
2026/05/14 10:30:39.716,0.026,-0.008,0.984
2026/05/14 10:30:39.735,0.023,-0.007,0.982
2026/05/14 10:30:39.755,0.025,-0.007,0.984
2026/05/14 10:30:39.775,0.024,-0.003,0.985
2026/05/14 10:30:39.794,0.026,-0.003,0.983
2026/05/14 10:30:39.814,0.029,-0.008,0.987
2026/05/14 10:30:39.833,0.027,-0.006,0.983
2026/05/14 10:30:39.853,0.029,-0.012,0.982
2026/05/14 10:30:39.873,0.033,-0.011,0.991
2026/05/14 10:30:39.892,0.036,-0.012,0.983
2026/05/14 10:30:39.912,0.032,-0.008,0.985
2026/05/14 10:30:39.932,0.029,-0.009,0.989
2026/05/14 10:30:39.951,0.03,-0.006,0.984
2026/05/14 10:30:39.971,0.032,-0.005,0.99
2026/05/14 10:30:39.990,0.03,-0.01,0.987
2026/05/14 10:30:40.010,0.034,-0.007,0.987
2026/05/14 10:30:40.030,0.028,-0.009,0.987
2026/05/14 10:30:40.049,0.026,-0.003,0.985
2026/05/14 10:30:40.069,0.018,-0.003,0.985
2026/05/14 10:30:40.089,0.02,0.0,0.983
2026/05/14 10:30:40.108,0.017,-0.004,0.985
2026/05/14 10:30:40.128,0.018,-0.007,0.983
2026/05/14 10:30:40.148,0.024,-0.006,0.981
2026/05/14 10:30:40.167,0.027,-0.011,0.982
2026/05/14 10:30:40.187,0.028,-0.013,0.987
2026/05/14 10:30:40.206,0.03,-0.009,0.985
2026/05/14 10:30:40.226,0.029,-0.008,0.982
2026/05/14 10:30:40.246,0.035,-0.011,0.981
2026/05/14 10:30:40.265,0.033,-0.011,0.987
2026/05/14 10:30:40.285,0.027,-0.012,0.987
2026/05/14 10:30:40.305,0.027,-0.004,0.983
2026/05/14 10:30:40.324,0.022,-0.001,0.984
2026/05/14 10:30:40.344,0.023,0.004,0.988
2026/05/14 10:30:40.364,0.019,-0.005,0.981
2026/05/14 10:30:40.383,0.022,-0.008,0.985
2026/05/14 10:30:40.403,0.023,-0.006,0.991
2026/05/14 10:30:40.422,0.027,-0.01,0.984
2026/05/14 10:30:40.442,0.029,-0.011,0.982
2026/05/14 10:30:40.462,0.029,-0.01,0.983
2026/05/14 10:30:40.481,0.034,-0.008,0.986
2026/05/14 10:30:40.501,0.034,-0.008,0.986
2026/05/14 10:30:40.521,0.035,-0.01,0.984
2026/05/14 10:30:40.540,0.032,-0.005,0.988
2026/05/14 10:30:40.560,0.024,-0.008,0.986
2026/05/14 10:30:40.580,0.023,-0.008,0.984
2026/05/14 10:30:40.599,0.022,-0.006,0.984
2026/05/14 10:30:40.619,0.024,-0.002,0.986
2026/05/14 10:30:40.638,0.021,-0.002,0.983
2026/05/14 10:30:40.658,0.024,-0.004,0.984
2026/05/14 10:30:40.678,0.021,-0.002,0.985
2026/05/14 10:30:40.697,0.026,-0.006,0.985
2026/05/14 10:30:40.717,0.031,-0.01,0.988
2026/05/14 10:30:40.737,0.031,-0.01,0.986
2026/05/14 10:30:40.756,0.033,-0.009,0.982
2026/05/14 10:30:40.776,0.033,-0.009,0.981
2026/05/14 10:30:40.796,0.029,-0.007,0.985
2026/05/14 10:30:40.815,0.029,-0.006,0.983
2026/05/14 10:30:40.835,0.025,-0.004,0.985
2026/05/14 10:30:40.854,0.022,-0.007,0.986
2026/05/14 10:30:40.874,0.024,-0.005,0.987
2026/05/14 10:30:40.894,0.023,-0.003,0.985
2026/05/14 10:30:40.913,0.026,-0.006,0.98
2026/05/14 10:30:40.933,0.024,-0.005,0.986
2026/05/14 10:30:40.953,0.029,-0.006,0.982
2026/05/14 10:30:40.972,0.028,-0.007,0.985
2026/05/14 10:30:40.992,0.027,-0.013,0.985
2026/05/14 10:30:41.011,0.032,-0.006,0.989
2026/05/14 10:30:41.031,0.03,-0.006,0.985
2026/05/14 10:30:41.051,0.026,-0.007,0.986
2026/05/14 10:30:41.070,0.032,-0.008,0.982
2026/05/14 10:30:41.090,0.026,-0.006,0.981
2026/05/14 10:30:41.110,0.029,-0.003,0.985
2026/05/14 10:30:41.129,0.024,-0.008,0.989
2026/05/14 10:30:41.149,0.025,-0.006,0.986
2026/05/14 10:30:41.169,0.024,-0.008,0.985
2026/05/14 10:30:41.188,0.026,-0.004,0.985
2026/05/14 10:30:41.208,0.026,-0.006,0.985
2026/05/14 10:30:41.227,0.026,-0.008,0.985
2026/05/14 10:30:41.247,0.03,-0.007,0.986
2026/05/14 10:30:41.267,0.029,-0.008,0.988
2026/05/14 10:30:41.286,0.028,-0.01,0.983
2026/05/14 10:30:41.306,0.028,-0.008,0.985
2026/05/14 10:30:41.326,0.026,-0.006,0.988
2026/05/14 10:30:41.345,0.028,-0.004,0.982
2026/05/14 10:30:41.365,0.027,-0.007,0.986
2026/05/14 10:30:41.385,0.026,-0.004,0.987
2026/05/14 10:30:41.404,0.024,-0.011,0.982
2026/05/14 10:30:41.424,0.024,-0.01,0.981
2026/05/14 10:30:41.443,0.024,-0.009,0.984
2026/05/14 10:30:41.463,0.025,-0.004,0.984
2026/05/14 10:30:41.483,0.028,-0.008,0.985
2026/05/14 10:30:41.502,0.026,-0.007,0.982
2026/05/14 10:30:41.522,0.029,-0.012,0.984
2026/05/14 10:30:41.542,0.032,-0.01,0.984
2026/05/14 10:30:41.561,0.029,-0.008,0.982
2026/05/14 10:30:41.581,0.025,-0.007,0.984
2026/05/14 10:30:41.601,0.027,-0.008,0.981
2026/05/14 10:30:41.620,0.026,-0.008,0.986
2026/05/14 10:30:41.640,0.026,-0.003,0.984
2026/05/14 10:30:41.659,0.027,-0.008,0.982
2026/05/14 10:30:41.679,0.028,-0.006,0.983
2026/05/14 10:30:41.699,0.027,-0.005,0.986
2026/05/14 10:30:41.718,0.025,-0.005,0.983
2026/05/14 10:30:41.738,0.027,-0.003,0.987
2026/05/14 10:30:41.758,0.026,-0.008,0.982
2026/05/14 10:30:41.777,0.029,-0.009,0.984
2026/05/14 10:30:41.797,0.028,-0.008,0.984
2026/05/14 10:30:41.817,0.027,-0.008,0.987
2026/05/14 10:30:41.836,0.027,-0.012,0.986
2026/05/14 10:30:41.856,0.026,-0.004,0.982
2026/05/14 10:30:41.875,0.024,-0.007,0.987
2026/05/14 10:30:41.895,0.027,-0.004,0.986
2026/05/14 10:30:41.915,0.023,-0.005,0.983
2026/05/14 10:30:41.934,0.028,-0.005,0.984
2026/05/14 10:30:41.954,0.028,-0.007,0.986
2026/05/14 10:30:41.974,0.023,-0.01,0.981
2026/05/14 10:30:41.993,0.032,-0.008,0.984
2026/05/14 10:30:42.013,0.027,-0.011,0.985
2026/05/14 10:30:42.032,0.027,-0.007,0.986
2026/05/14 10:30:42.052,0.029,-0.004,0.985
2026/05/14 10:30:42.072,0.029,-0.006,0.986
2026/05/14 10:30:42.091,0.022,-0.005,0.982
2026/05/14 10:30:42.111,0.026,-0.008,0.983
2026/05/14 10:30:42.131,0.032,-0.008,0.985
2026/05/14 10:30:42.150,0.027,-0.005,0.986
2026/05/14 10:30:42.170,0.027,-0.005,0.986
2026/05/14 10:30:42.190,0.03,-0.005,0.984
2026/05/14 10:30:42.209,0.027,-0.006,0.987
2026/05/14 10:30:42.229,0.029,-0.011,0.988
2026/05/14 10:30:42.248,0.027,-0.009,0.985
2026/05/14 10:30:42.268,0.026,-0.009,0.984
2026/05/14 10:30:42.288,0.031,-0.004,0.984
2026/05/14 10:30:42.307,0.029,-0.008,0.984
2026/05/14 10:30:42.327,0.027,-0.008,0.986
2026/05/14 10:30:42.347,0.027,-0.001,0.986
2026/05/14 10:30:42.366,0.027,-0.002,0.985
2026/05/14 10:30:42.386,0.024,-0.005,0.983
2026/05/14 10:30:42.406,0.028,-0.004,0.983
2026/05/14 10:30:42.425,0.025,-0.008,0.986
2026/05/14 10:30:42.445,0.026,-0.007,0.982
2026/05/14 10:30:42.464,0.028,-0.008,0.986
2026/05/14 10:30:42.484,0.03,-0.012,0.99
2026/05/14 10:30:42.504,0.031,-0.007,0.982
2026/05/14 10:30:42.523,0.026,-0.008,0.984
2026/05/14 10:30:42.543,0.026,-0.006,0.989
2026/05/14 10:30:42.563,0.024,-0.008,0.982
2026/05/14 10:30:42.582,0.025,-0.007,0.987
2026/05/14 10:30:42.602,0.026,-0.005,0.986
2026/05/14 10:30:42.622,0.023,-0.008,0.985
2026/05/14 10:30:42.641,0.027,-0.004,0.984
2026/05/14 10:30:42.661,0.026,-0.007,0.984
2026/05/14 10:30:42.680,0.023,-0.006,0.985
2026/05/14 10:30:42.700,0.028,-0.006,0.983
2026/05/14 10:30:42.720,0.027,-0.006,0.986
2026/05/14 10:30:42.739,0.026,-0.007,0.989
2026/05/14 10:30:42.759,0.025,-0.009,0.982
2026/05/14 10:30:42.779,0.025,-0.006,0.981
2026/05/14 10:30:42.798,0.029,-0.008,0.987
2026/05/14 10:30:42.818,0.027,-0.004,0.988
2026/05/14 10:30:42.838,0.028,-0.006,0.983
2026/05/14 10:30:42.857,0.025,-0.011,0.988
2026/05/14 10:30:42.877,0.028,-0.008,0.986
2026/05/14 10:30:42.896,0.026,-0.007,0.982
2026/05/14 10:30:42.916,0.025,-0.005,0.985
2026/05/14 10:30:42.936,0.028,-0.005,0.988
2026/05/14 10:30:42.955,0.026,-0.003,0.985
2026/05/14 10:30:42.975,0.026,-0.006,0.986
2026/05/14 10:30:42.995,0.025,-0.003,0.985
2026/05/14 10:30:43.014,0.027,-0.008,0.981
2026/05/14 10:30:43.034,0.026,-0.005,0.981
2026/05/14 10:30:43.054,0.027,-0.009,0.983
2026/05/14 10:30:43.073,0.025,-0.006,0.985
2026/05/14 10:30:43.093,0.051,-0.027,1.096
2026/05/14 10:30:43.112,0.137,0.195,1.08
2026/05/14 10:30:43.132,-0.095,0.009,1.097
2026/05/14 10:30:43.152,0.078,0.028,1.193
2026/05/14 10:30:43.171,-0.045,0.069,0.952
2026/05/14 10:30:43.191,-0.023,0.023,1.124
2026/05/14 10:30:43.211,0.052,0.047,0.927
2026/05/14 10:30:43.230,0.05,0.013,0.967
2026/05/14 10:30:43.250,0.085,-0.036,0.933
2026/05/14 10:30:43.269,0.067,-0.04,0.983
2026/05/14 10:30:43.289,0.061,-0.083,0.944
2026/05/14 10:30:43.309,0.054,-0.043,0.987
2026/05/14 10:30:43.328,0.057,-0.017,0.967
2026/05/14 10:30:43.348,0.027,0.006,0.926
2026/05/14 10:30:43.368,0.013,-0.002,0.97
2026/05/14 10:30:43.387,0.011,0.003,0.977
2026/05/14 10:30:43.407,0.017,0.015,1.003
2026/05/14 10:30:43.427,0.008,0.014,0.994
2026/05/14 10:30:43.446,0.001,0.006,0.952
2026/05/14 10:30:43.466,-0.004,0.009,1.0
2026/05/14 10:30:43.485,0.0,-0.006,0.999
2026/05/14 10:30:43.505,0.015,-0.02,0.988
2026/05/14 10:30:43.525,0.035,-0.029,1.007
2026/05/14 10:30:43.544,0.048,-0.015,0.979
2026/05/14 10:30:43.564,0.06,-0.003,0.997
2026/05/14 10:30:43.584,0.061,0.003,0.996
2026/05/14 10:30:43.603,0.054,-0.009,0.986
2026/05/14 10:30:43.623,0.041,-0.016,0.991
2026/05/14 10:30:43.643,0.026,-0.02,0.989
2026/05/14 10:30:43.662,0.013,-0.012,0.987
2026/05/14 10:30:43.682,0.008,-0.002,0.985
2026/05/14 10:30:43.701,0.002,0.007,0.977
2026/05/14 10:30:43.721,0.004,0.01,0.989
2026/05/14 10:30:43.741,0.014,0.008,0.985
2026/05/14 10:30:43.760,0.016,-0.007,0.978
2026/05/14 10:30:43.780,0.02,-0.009,0.982
2026/05/14 10:30:43.800,0.024,-0.011,0.981
2026/05/14 10:30:43.819,0.033,-0.007,0.983
2026/05/14 10:30:43.839,0.039,-0.012,0.983
2026/05/14 10:30:43.858,0.044,-0.017,0.984
2026/05/14 10:30:43.878,0.047,-0.02,0.985
2026/05/14 10:30:43.898,0.04,-0.01,0.986
2026/05/14 10:30:43.917,0.032,-0.009,0.984
2026/05/14 10:30:43.937,0.019,-0.001,0.981
2026/05/14 10:30:43.957,0.013,0.004,0.985
2026/05/14 10:30:43.976,0.009,0.004,0.985
2026/05/14 10:30:43.996,0.014,-0.001,0.975
2026/05/14 10:30:44.016,0.014,-0.007,0.988
2026/05/14 10:30:44.035,0.014,-0.014,0.983
2026/05/14 10:30:44.055,0.02,-0.007,0.989
2026/05/14 10:30:44.074,0.031,-0.004,0.987
2026/05/14 10:30:44.094,0.035,-0.009,0.988
2026/05/14 10:30:44.114,0.045,-0.014,0.991
2026/05/14 10:30:44.133,0.045,-0.015,0.984
2026/05/14 10:30:44.153,0.04,-0.012,0.982
2026/05/14 10:30:44.173,0.03,-0.012,0.99
2026/05/14 10:30:44.192,0.018,-0.004,0.987
2026/05/14 10:30:44.212,0.017,-0.002,0.986
2026/05/14 10:30:44.231,0.014,-0.002,0.985
2026/05/14 10:30:44.251,0.019,-0.003,0.981
2026/05/14 10:30:44.271,0.02,-0.001,0.982
2026/05/14 10:30:44.290,0.023,-0.002,0.982
2026/05/14 10:30:44.310,0.027,-0.001,0.983
2026/05/14 10:30:44.330,0.029,-0.011,0.986
2026/05/14 10:30:44.349,0.034,-0.008,0.988
2026/05/14 10:30:44.369,0.037,-0.015,0.984
2026/05/14 10:30:44.389,0.039,-0.011,0.984
2026/05/14 10:30:44.408,0.037,-0.015,0.984
2026/05/14 10:30:44.428,0.033,-0.007,0.988
2026/05/14 10:30:44.447,0.023,0.001,0.986
2026/05/14 10:30:44.467,0.019,-0.004,0.987
2026/05/14 10:30:44.487,0.018,-0.001,0.988
2026/05/14 10:30:44.506,0.019,-0.008,0.985
2026/05/14 10:30:44.526,0.017,-0.001,0.982
2026/05/14 10:30:44.546,0.02,-0.002,0.982
2026/05/14 10:30:44.565,0.027,0.001,0.984
2026/05/14 10:30:44.585,0.036,-0.007,0.986
2026/05/14 10:30:44.605,0.035,-0.013,0.983
2026/05/14 10:30:44.624,0.035,-0.013,0.982
2026/05/14 10:30:44.644,0.034,-0.016,0.983
2026/05/14 10:30:44.663,0.014,-0.018,0.971
2026/05/14 10:30:44.683,-0.09,-0.047,0.705
2026/05/14 10:30:44.703,0.008,0.006,0.798
2026/05/14 10:30:44.722,0.019,0.01,0.875
2026/05/14 10:30:44.742,0.021,0.009,0.955
2026/05/14 10:30:44.762,0.019,-0.004,0.946
2026/05/14 10:30:44.781,0.021,-0.012,0.968
2026/05/14 10:30:44.801,0.019,-0.02,0.975
2026/05/14 10:30:44.820,0.027,-0.019,0.95
2026/05/14 10:30:44.840,0.037,0.028,0.829
2026/05/14 10:30:44.860,0.036,-0.006,0.973
2026/05/14 10:30:44.879,0.036,-0.008,1.006
2026/05/14 10:30:44.899,0.046,-0.01,1.051
2026/05/14 10:30:44.919,0.028,-0.007,1.005
2026/05/14 10:30:44.938,0.004,-0.046,0.959
2026/05/14 10:30:44.958,0.021,-0.028,1.053
2026/05/14 10:30:44.978,0.015,0.006,0.963
2026/05/14 10:30:44.997,0.015,-0.009,0.903
2026/05/14 10:30:45.017,0.019,-0.01,1.012
2026/05/14 10:30:45.036,0.021,-0.006,1.008
2026/05/14 10:30:45.056,0.031,-0.003,0.995
2026/05/14 10:30:45.076,0.032,-0.006,0.991
2026/05/14 10:30:45.095,0.034,-0.007,0.998
2026/05/14 10:30:45.115,0.032,-0.015,0.995
2026/05/14 10:30:45.135,0.038,-0.016,0.993
2026/05/14 10:30:45.154,0.032,-0.014,0.978
2026/05/14 10:30:45.174,0.03,-0.008,0.988
2026/05/14 10:30:45.194,0.019,0.004,0.987
2026/05/14 10:30:45.213,0.017,0.008,0.98
2026/05/14 10:30:45.233,0.009,0.0,0.974
2026/05/14 10:30:45.252,0.02,-0.007,1.114
2026/05/14 10:30:45.272,0.027,-0.013,1.045
2026/05/14 10:30:45.292,0.025,-0.013,0.98
2026/05/14 10:30:45.311,0.03,-0.008,0.976
2026/05/14 10:30:45.331,0.027,-0.002,0.998
2026/05/14 10:30:45.351,0.03,-0.007,1.0
2026/05/14 10:30:45.370,0.036,-0.02,0.951
2026/05/14 10:30:45.390,0.03,-0.01,0.984
2026/05/14 10:30:45.409,0.028,-0.012,0.953
2026/05/14 10:30:45.429,0.026,-0.014,0.937
2026/05/14 10:30:45.449,0.027,-0.01,0.983
2026/05/14 10:30:45.468,0.024,-0.005,0.986
2026/05/14 10:30:45.488,0.024,-0.007,0.985
2026/05/14 10:30:45.508,0.02,-0.005,0.982
2026/05/14 10:30:45.527,0.02,-0.003,0.986
2026/05/14 10:30:45.547,0.022,0.001,0.984
2026/05/14 10:30:45.567,0.02,-0.003,0.988
2026/05/14 10:30:45.586,0.021,-0.01,0.984
2026/05/14 10:30:45.606,0.029,-0.011,0.979
2026/05/14 10:30:45.625,0.032,-0.01,0.982
2026/05/14 10:30:45.645,0.035,-0.003,0.98
2026/05/14 10:30:45.665,0.035,-0.006,0.991
2026/05/14 10:30:45.684,0.028,-0.004,0.985
2026/05/14 10:30:45.704,0.03,-0.004,0.985
2026/05/14 10:30:45.724,0.023,-0.006,0.986
2026/05/14 10:30:45.743,0.018,-0.012,0.98
2026/05/14 10:30:45.763,0.018,-0.011,0.978
2026/05/14 10:30:45.783,0.018,-0.007,0.97
2026/05/14 10:30:45.802,0.037,-0.008,1.043
2026/05/14 10:30:45.822,0.027,-0.012,0.983
2026/05/14 10:30:45.841,0.035,0.0,0.993
2026/05/14 10:30:45.861,0.037,-0.003,0.996
2026/05/14 10:30:45.881,0.028,-0.01,0.987
2026/05/14 10:30:45.900,-0.041,-0.212,0.785
2026/05/14 10:30:45.920,0.015,-0.008,0.944
2026/05/14 10:30:45.940,0.018,0.002,0.987
2026/05/14 10:30:45.959,0.027,-0.008,0.985
2026/05/14 10:30:45.979,-0.022,-0.055,0.852
2026/05/14 10:30:45.998,0.028,0.002,1.023
2026/05/14 10:30:46.018,0.098,0.211,1.222
2026/05/14 10:30:46.038,0.054,0.008,1.168
2026/05/14 10:30:46.057,0.042,0.012,1.155
2026/05/14 10:30:46.077,0.013,-0.03,1.072
2026/05/14 10:30:46.097,0.018,-0.023,0.812
2026/05/14 10:30:46.116,0.032,-0.016,0.945
2026/05/14 10:30:46.136,0.038,0.01,0.976
2026/05/14 10:30:46.156,0.029,0.003,1.014
2026/05/14 10:30:46.175,0.022,-0.004,0.977
2026/05/14 10:30:46.195,0.023,-0.006,0.99
2026/05/14 10:30:46.214,0.028,-0.006,0.99
2026/05/14 10:30:46.234,0.027,-0.005,0.981
2026/05/14 10:30:46.254,0.027,-0.001,0.979
2026/05/14 10:30:46.273,0.049,0.007,1.021
2026/05/14 10:30:46.293,0.022,0.012,1.017
2026/05/14 10:30:46.313,0.011,-0.089,1.116
2026/05/14 10:30:46.332,0.032,0.008,0.97
2026/05/14 10:30:46.352,0.041,0.006,0.996
2026/05/14 10:30:46.372,0.064,-0.007,1.056
2026/05/14 10:30:46.391,0.019,-0.014,0.967
2026/05/14 10:30:46.411,-0.013,-0.13,1.297
2026/05/14 10:30:46.430,0.02,-0.013,1.017
2026/05/14 10:30:46.450,0.013,-0.015,0.992
2026/05/14 10:30:46.470,0.019,-0.008,0.99
2026/05/14 10:30:46.489,0.028,0.019,1.034
2026/05/14 10:30:46.509,-0.165,0.021,0.122
2026/05/14 10:30:46.529,-0.02,-0.002,0.884
2026/05/14 10:30:46.548,0.02,-0.02,1.059
2026/05/14 10:30:46.568,0.034,-0.002,0.972
2026/05/14 10:30:46.587,0.037,-0.02,0.961
2026/05/14 10:30:46.607,0.03,-0.005,0.994
2026/05/14 10:30:46.627,0.066,-0.012,1.044
2026/05/14 10:30:46.646,0.041,0.022,0.929
2026/05/14 10:30:46.666,0.034,-0.007,0.963
2026/05/14 10:30:46.686,0.036,-0.001,0.989
2026/05/14 10:30:46.705,0.026,-0.005,0.966
2026/05/14 10:30:46.725,0.014,-0.004,0.98
2026/05/14 10:30:46.745,0.015,-0.005,0.982
2026/05/14 10:30:46.764,0.017,-0.007,0.986
2026/05/14 10:30:46.784,0.015,-0.003,0.984
2026/05/14 10:30:46.803,0.019,-0.002,0.992
2026/05/14 10:30:46.823,0.035,-0.006,0.987
2026/05/14 10:30:46.843,0.039,-0.006,0.978
2026/05/14 10:30:46.862,0.039,-0.016,0.981
2026/05/14 10:30:46.882,0.035,-0.016,0.99
2026/05/14 10:30:46.902,0.032,-0.014,0.986
2026/05/14 10:30:46.921,0.03,-0.008,0.982
2026/05/14 10:30:46.941,0.024,-0.007,0.983
2026/05/14 10:30:46.961,0.023,-0.002,0.984
2026/05/14 10:30:46.980,0.016,0.004,0.984
2026/05/14 10:30:47.000,0.016,0.0,0.992
2026/05/14 10:30:47.019,0.016,-0.001,0.987
2026/05/14 10:30:47.039,0.015,-0.001,0.967
2026/05/14 10:30:47.059,0.025,-0.012,0.982
2026/05/14 10:30:47.078,0.027,-0.009,0.981
2026/05/14 10:30:47.098,0.037,-0.006,0.97
2026/05/14 10:30:47.118,0.043,-0.008,0.994
2026/05/14 10:30:47.137,0.039,-0.008,0.997
2026/05/14 10:30:47.157,0.05,-0.008,1.153
2026/05/14 10:30:47.177,0.036,-0.019,1.019
2026/05/14 10:30:47.196,0.023,-0.004,0.975
2026/05/14 10:30:47.216,0.013,-0.006,0.985
2026/05/14 10:30:47.235,0.015,0.003,0.994
2026/05/14 10:30:47.255,0.015,-0.004,0.965
2026/05/14 10:30:47.275,0.025,-0.005,0.99
2026/05/14 10:30:47.294,0.028,0.003,0.99
2026/05/14 10:30:47.314,0.032,-0.003,0.975
2026/05/14 10:30:47.334,0.036,-0.003,0.997
2026/05/14 10:30:47.353,-0.023,-0.038,0.893
2026/05/14 10:30:47.373,-0.024,-0.079,1.205
2026/05/14 10:30:47.393,-0.091,0.024,0.526
2026/05/14 10:30:47.412,-0.102,-0.113,0.607
2026/05/14 10:30:47.432,0.038,0.009,0.92
2026/05/14 10:30:47.451,-0.006,-0.032,0.925
2026/05/14 10:30:47.471,0.031,0.021,0.998
2026/05/14 10:30:47.491,0.008,-0.015,1.02
2026/05/14 10:30:47.510,0.07,0.03,1.197
2026/05/14 10:30:47.530,-0.009,0.015,0.83
2026/05/14 10:30:47.550,0.033,0.012,0.789
2026/05/14 10:30:47.569,0.033,-0.006,0.97
2026/05/14 10:30:47.589,-0.088,-0.028,0.958
2026/05/14 10:30:47.608,0.015,-0.005,0.936
2026/05/14 10:30:47.628,0.041,-0.035,1.083
2026/05/14 10:30:47.648,0.071,-0.034,1.118
2026/05/14 10:30:47.667,0.003,-0.025,0.943
2026/05/14 10:30:47.687,0.003,0.006,0.873
2026/05/14 10:30:47.707,-0.007,-0.004,0.932
2026/05/14 10:30:47.726,0.028,-0.003,1.028
2026/05/14 10:30:47.746,0.027,-0.004,0.984
2026/05/14 10:30:47.766,0.025,-0.01,0.972
2026/05/14 10:30:47.785,0.022,-0.011,0.984
2026/05/14 10:30:47.805,0.033,-0.008,0.989
2026/05/14 10:30:47.824,0.035,-0.006,0.983
2026/05/14 10:30:47.844,0.03,-0.009,0.978
2026/05/14 10:30:47.864,0.03,-0.01,0.983
2026/05/14 10:30:47.883,0.03,-0.008,0.988
2026/05/14 10:30:47.903,0.027,-0.004,0.985
2026/05/14 10:30:47.923,0.026,-0.006,0.979
2026/05/14 10:30:47.942,0.025,-0.002,0.985
2026/05/14 10:30:47.962,0.022,-0.002,0.984
2026/05/14 10:30:47.982,0.026,-0.004,0.985
2026/05/14 10:30:48.001,0.023,-0.001,0.983
2026/05/14 10:30:48.021,0.023,-0.006,0.987
2026/05/14 10:30:48.040,0.033,-0.007,0.986
2026/05/14 10:30:48.060,0.029,-0.01,0.984
2026/05/14 10:30:48.080,0.034,-0.007,0.984
2026/05/14 10:30:48.099,0.03,-0.003,1.013
2026/05/14 10:30:48.119,0.037,-0.006,0.996
2026/05/14 10:30:48.139,-0.009,-0.042,1.035
2026/05/14 10:30:48.158,0.041,-0.009,1.122
2026/05/14 10:30:48.178,0.043,0.015,1.033
2026/05/14 10:30:48.198,0.036,0.013,0.97
2026/05/14 10:30:48.217,0.031,-0.005,0.985
2026/05/14 10:30:48.237,0.021,-0.015,0.989
2026/05/14 10:30:48.256,0.015,-0.026,0.974
2026/05/14 10:30:48.276,0.014,-0.026,0.984
2026/05/14 10:30:48.296,0.016,-0.011,1.0
2026/05/14 10:30:48.315,0.026,0.004,0.996
2026/05/14 10:30:48.335,0.032,0.018,0.992
2026/05/14 10:30:48.355,0.03,0.011,0.981
2026/05/14 10:30:48.374,0.03,-0.001,0.988
2026/05/14 10:30:48.394,0.023,-0.018,0.987
2026/05/14 10:30:48.414,0.018,-0.026,0.979
2026/05/14 10:30:48.433,0.029,-0.023,0.978
2026/05/14 10:30:48.453,0.03,-0.015,0.979
2026/05/14 10:30:48.472,0.029,-0.006,0.989
2026/05/14 10:30:48.492,0.035,0.004,0.987
2026/05/14 10:30:48.512,0.032,0.001,0.989
2026/05/14 10:30:48.531,0.027,-0.004,0.987
2026/05/14 10:30:48.551,0.023,-0.003,0.979
2026/05/14 10:30:48.571,0.019,-0.008,0.975
2026/05/14 10:30:48.590,0.016,-0.011,0.984
2026/05/14 10:30:48.610,0.026,-0.011,1.008
2026/05/14 10:30:48.629,0.03,0.015,0.994
2026/05/14 10:30:48.649,0.043,-0.002,0.948
2026/05/14 10:30:48.669,0.05,0.005,0.958
2026/05/14 10:30:48.688,0.042,-0.009,0.951
2026/05/14 10:30:48.708,0.034,-0.021,0.975
2026/05/14 10:30:48.728,0.022,-0.019,1.01
2026/05/14 10:30:48.747,0.019,-0.016,0.99
2026/05/14 10:30:48.767,0.02,-0.004,0.971
2026/05/14 10:30:48.787,0.022,-0.001,0.974
2026/05/14 10:30:48.806,0.022,0.001,0.994
2026/05/14 10:30:48.826,0.017,0.006,0.993
2026/05/14 10:30:48.845,0.001,-0.004,0.987
2026/05/14 10:30:48.865,0.024,-0.013,1.011
2026/05/14 10:30:48.885,0.044,0.014,0.918
2026/05/14 10:30:48.904,0.012,-0.008,0.823
2026/05/14 10:30:48.924,0.058,-0.008,1.037
2026/05/14 10:30:48.944,0.326,0.001,0.879
2026/05/14 10:30:48.963,0.038,-0.004,0.978
2026/05/14 10:30:48.983,-0.221,0.012,1.383
2026/05/14 10:30:49.003,0.071,-0.055,1.019
2026/05/14 10:30:49.022,0.079,-0.119,1.033
2026/05/14 10:30:49.042,-0.204,-0.225,1.46
2026/05/14 10:30:49.061,0.075,-0.076,1.275
2026/05/14 10:30:49.081,-0.038,0.103,1.085
2026/05/14 10:30:49.101,0.044,0.142,0.959
2026/05/14 10:30:49.120,0.042,0.027,0.823
2026/05/14 10:30:49.140,-0.042,0.012,0.67
2026/05/14 10:30:49.160,0.018,-0.048,0.695
2026/05/14 10:30:49.179,0.01,-0.007,0.652
2026/05/14 10:30:49.199,0.074,0.032,0.652
2026/05/14 10:30:49.219,-0.007,0.012,0.906
2026/05/14 10:30:49.238,-0.07,-0.019,1.106
2026/05/14 10:30:49.258,-0.029,-0.094,1.084
2026/05/14 10:30:49.277,0.0,0.099,1.059
2026/05/14 10:30:49.297,0.089,-0.254,0.125
2026/05/14 10:30:49.317,0.079,-0.209,0.78
2026/05/14 10:30:49.336,0.287,-0.271,1.001
2026/05/14 10:30:49.356,0.084,-0.006,1.008
2026/05/14 10:30:49.376,0.096,-0.015,1.168
2026/05/14 10:30:49.395,0.241,-0.199,1.319
2026/05/14 10:30:49.415,0.03,-0.121,1.529
2026/05/14 10:30:49.435,0.062,-0.054,1.323
2026/05/14 10:30:49.454,0.08,-0.092,1.013
2026/05/14 10:30:49.474,0.01,0.08,0.653
2026/05/14 10:30:49.493,0.032,0.131,0.207
2026/05/14 10:30:49.513,0.056,0.014,0.236
2026/05/14 10:30:49.533,-0.002,0.02,0.484
2026/05/14 10:30:49.552,-0.05,0.021,0.708
2026/05/14 10:30:49.572,-0.049,-0.001,0.982
2026/05/14 10:30:49.592,0.073,-0.214,1.023
2026/05/14 10:30:49.611,1.301,0.313,1.489
2026/05/14 10:30:49.631,0.41,-0.418,0.382
2026/05/14 10:30:49.651,0.283,-0.114,1.022
2026/05/14 10:30:49.670,0.157,-0.139,1.484
2026/05/14 10:30:49.690,0.115,0.037,1.393
2026/05/14 10:30:49.709,0.102,-0.168,1.469
2026/05/14 10:30:49.729,0.059,-0.115,1.101
2026/05/14 10:30:49.749,0.065,-0.043,0.695
2026/05/14 10:30:49.768,0.037,0.063,0.45
2026/05/14 10:30:49.788,-0.07,0.081,0.461
2026/05/14 10:30:49.808,-0.176,0.017,0.488
2026/05/14 10:30:49.827,-0.046,0.1,0.422
2026/05/14 10:30:49.847,0.078,0.092,0.57
2026/05/14 10:30:49.867,0.043,0.05,0.699
2026/05/14 10:30:49.886,1.347,-2.424,6.014
2026/05/14 10:30:49.906,0.067,-0.302,1.572
2026/05/14 10:30:49.925,0.155,0.237,1.236
2026/05/14 10:30:49.945,0.26,-0.04,0.55
2026/05/14 10:30:49.965,0.31,-0.262,1.555
2026/05/14 10:30:49.984,0.119,-0.171,1.702
2026/05/14 10:30:50.004,0.03,0.002,1.276
2026/05/14 10:30:50.024,0.057,-0.035,1.014
2026/05/14 10:30:50.043,0.009,-0.01,0.667
2026/05/14 10:30:50.063,-0.061,0.02,0.599
2026/05/14 10:30:50.083,-0.099,0.033,0.348
2026/05/14 10:30:50.102,-0.099,0.042,0.221
2026/05/14 10:30:50.122,0.038,0.113,0.286
2026/05/14 10:30:50.141,-0.114,0.174,0.547
2026/05/14 10:30:50.161,0.082,0.033,1.113
2026/05/14 10:30:50.181,0.082,-0.526,0.517
2026/05/14 10:30:50.200,0.939,-0.429,0.977
2026/05/14 10:30:50.220,0.489,0.226,-1.006
2026/05/14 10:30:50.240,-0.709,2.995,-2.704
2026/05/14 10:30:50.259,-0.019,0.157,0.627
2026/05/14 10:30:50.279,-0.092,0.014,0.535
2026/05/14 10:30:50.299,0.13,0.031,1.07
2026/05/14 10:30:50.318,-0.103,0.061,0.703
2026/05/14 10:30:50.338,-0.084,-0.01,0.61
2026/05/14 10:30:50.357,-0.102,0.037,0.338
2026/05/14 10:30:50.377,-0.126,0.022,0.314
2026/05/14 10:30:50.397,-0.096,0.068,0.376
2026/05/14 10:30:50.416,0.011,0.17,0.493
2026/05/14 10:30:50.436,0.108,0.151,0.568
2026/05/14 10:30:50.456,0.86,-0.061,3.12
2026/05/14 10:30:50.475,0.572,0.053,1.954
2026/05/14 10:30:50.495,0.141,-0.063,-0.696
2026/05/14 10:30:50.515,0.045,0.214,0.187
2026/05/14 10:30:50.534,0.235,0.213,1.172
2026/05/14 10:30:50.554,0.152,0.193,1.53
2026/05/14 10:30:50.573,0.073,0.103,1.132
2026/05/14 10:30:50.593,-0.006,-0.103,0.8
2026/05/14 10:30:50.613,0.047,0.053,0.526
2026/05/14 10:30:50.632,-0.03,0.091,0.545
2026/05/14 10:30:50.652,-0.016,0.044,0.5
2026/05/14 10:30:50.672,-0.129,0.019,0.701
2026/05/14 10:30:50.691,0.006,0.127,0.598
2026/05/14 10:30:50.711,0.139,0.188,0.596
2026/05/14 10:30:50.731,-0.177,0.086,0.255
2026/05/14 10:30:50.750,0.092,0.078,2.665
2026/05/14 10:30:50.770,0.038,0.038,0.673
2026/05/14 10:30:50.789,-0.064,0.026,0.53
2026/05/14 10:30:50.809,0.26,0.038,1.007
2026/05/14 10:30:50.829,0.22,-0.016,1.022
2026/05/14 10:30:50.848,-0.043,-0.047,0.829
2026/05/14 10:30:50.868,0.027,-0.029,0.903
2026/05/14 10:30:50.888,0.049,-0.051,1.024
2026/05/14 10:30:50.907,0.121,0.007,1.112
2026/05/14 10:30:50.927,0.008,0.019,0.988
2026/05/14 10:30:50.947,0.018,0.038,0.962
2026/05/14 10:30:50.966,-0.028,0.014,0.942
2026/05/14 10:30:50.986,0.038,0.009,0.963
2026/05/14 10:30:51.005,0.038,-0.003,0.953
2026/05/14 10:30:51.025,0.04,-0.014,0.957
2026/05/14 10:30:51.045,0.03,-0.001,0.974
2026/05/14 10:30:51.064,0.045,0.003,0.957
2026/05/14 10:30:51.084,0.067,-0.018,0.969
2026/05/14 10:30:51.104,0.076,-0.032,0.982
2026/05/14 10:30:51.123,0.075,-0.029,0.975
2026/05/14 10:30:51.143,0.074,-0.012,0.965
2026/05/14 10:30:51.163,0.057,0.002,0.957
2026/05/14 10:30:51.182,0.03,0.008,0.978
2026/05/14 10:30:51.202,0.022,0.006,0.989
2026/05/14 10:30:51.221,0.02,0.004,0.983
2026/05/14 10:30:51.241,0.014,-0.002,0.959
2026/05/14 10:30:51.261,0.019,-0.004,0.978
2026/05/14 10:30:51.280,0.012,0.003,0.988
2026/05/14 10:30:51.300,0.016,0.008,0.98
2026/05/14 10:30:51.320,0.03,0.01,1.0
2026/05/14 10:30:51.339,0.03,0.005,0.988
2026/05/14 10:30:51.359,0.059,-0.01,0.994
2026/05/14 10:30:51.379,0.063,-0.02,0.982
2026/05/14 10:30:51.398,0.057,-0.021,0.979
2026/05/14 10:30:51.418,0.052,-0.017,0.991
2026/05/14 10:30:51.437,0.042,-0.008,0.987
2026/05/14 10:30:51.457,0.03,-0.005,0.988
2026/05/14 10:30:51.477,0.025,-0.001,0.987
2026/05/14 10:30:51.496,0.025,0.004,0.988
2026/05/14 10:30:51.516,0.022,0.012,0.987
2026/05/14 10:30:51.536,0.02,0.012,0.982
2026/05/14 10:30:51.555,0.026,0.01,0.99
2026/05/14 10:30:51.575,0.016,-0.002,0.988
2026/05/14 10:30:51.595,0.03,-0.009,0.992
2026/05/14 10:30:51.614,0.035,-0.011,0.988
2026/05/14 10:30:51.634,0.047,-0.015,0.99
2026/05/14 10:30:51.653,0.058,-0.009,0.99
2026/05/14 10:30:51.673,0.052,-0.009,0.982
2026/05/14 10:30:51.693,0.052,-0.011,0.988
2026/05/14 10:30:51.712,0.04,-0.009,0.989
2026/05/14 10:30:51.732,0.036,-0.008,0.987
2026/05/14 10:30:51.752,0.027,-0.003,0.982
2026/05/14 10:30:51.771,0.021,0.002,0.986
2026/05/14 10:30:51.791,0.021,0.006,0.982
2026/05/14 10:30:51.811,0.026,0.004,0.981
2026/05/14 10:30:51.830,0.027,-0.003,0.981
2026/05/14 10:30:51.850,0.031,-0.003,0.985
2026/05/14 10:30:51.869,0.037,0.004,0.982
2026/05/14 10:30:51.889,0.038,-0.011,0.985
2026/05/14 10:30:51.909,0.049,-0.006,0.984
2026/05/14 10:30:51.928,0.046,-0.011,0.987
2026/05/14 10:30:51.948,0.049,-0.012,0.984
2026/05/14 10:30:51.968,0.047,-0.014,0.988
2026/05/14 10:30:51.987,0.04,-0.002,0.982
2026/05/14 10:30:52.007,0.033,0.004,0.984
2026/05/14 10:30:52.027,0.027,0.002,0.983
2026/05/14 10:30:52.046,0.021,0.001,0.986
2026/05/14 10:30:52.066,0.025,0.0,0.989
2026/05/14 10:30:52.085,0.027,0.0,0.982
2026/05/14 10:30:52.105,0.029,-0.003,0.978
2026/05/14 10:30:52.125,0.033,-0.003,0.984
2026/05/14 10:30:52.144,0.037,-0.002,0.982
2026/05/14 10:30:52.164,0.045,-0.008,0.99
2026/05/14 10:30:52.184,0.051,-0.005,0.982
2026/05/14 10:30:52.203,0.045,-0.009,0.986
2026/05/14 10:30:52.223,0.044,-0.01,0.986
2026/05/14 10:30:52.243,0.042,-0.005,0.982
2026/05/14 10:30:52.262,0.033,-0.003,0.989
2026/05/14 10:30:52.282,0.027,0.001,0.981
2026/05/14 10:30:52.301,0.03,-0.003,0.983
2026/05/14 10:30:52.321,0.027,0.0,0.985
2026/05/14 10:30:52.341,0.027,-0.002,0.986
2026/05/14 10:30:52.360,0.03,0.0,0.985
2026/05/14 10:30:52.380,0.033,-0.002,0.982
2026/05/14 10:30:52.400,0.034,-0.007,0.986
2026/05/14 10:30:52.419,0.042,-0.011,0.982
2026/05/14 10:30:52.439,0.04,-0.009,0.982
2026/05/14 10:30:52.459,0.046,-0.011,0.982
2026/05/14 10:30:52.478,0.041,-0.005,0.987
2026/05/14 10:30:52.498,0.042,-0.007,0.985
2026/05/14 10:30:52.517,0.038,-0.002,0.983
2026/05/14 10:30:52.537,0.031,-0.002,0.985
2026/05/14 10:30:52.557,0.026,-0.002,0.986
2026/05/14 10:30:52.576,0.027,0.004,0.987
2026/05/14 10:30:52.596,0.025,0.0,0.984
2026/05/14 10:30:52.616,0.028,0.001,0.984
2026/05/14 10:30:52.635,0.037,-0.001,0.989
2026/05/14 10:30:52.655,0.037,-0.006,0.983
2026/05/14 10:30:52.674,0.04,-0.009,0.985
2026/05/14 10:30:52.694,0.042,-0.006,0.985
2026/05/14 10:30:52.714,0.04,-0.008,0.984
2026/05/14 10:30:52.733,0.04,-0.002,0.987
2026/05/14 10:30:52.753,0.039,-0.008,0.983
2026/05/14 10:30:52.773,0.034,-0.007,0.985
2026/05/14 10:30:52.792,0.037,-0.005,0.989
2026/05/14 10:30:52.812,0.033,-0.002,0.984
2026/05/14 10:30:52.832,0.024,0.002,0.985
2026/05/14 10:30:52.851,0.031,0.001,0.985
2026/05/14 10:30:52.871,0.03,0.0,0.982
2026/05/14 10:30:52.890,0.036,-0.002,0.985
2026/05/14 10:30:52.910,0.036,-0.005,0.986
2026/05/14 10:30:52.930,0.039,-0.006,0.986
2026/05/14 10:30:52.949,0.039,-0.008,0.985
2026/05/14 10:30:52.969,0.041,-0.005,0.985
2026/05/14 10:30:52.989,0.04,-0.006,0.985
2026/05/14 10:30:53.008,0.037,-0.004,0.982
2026/05/14 10:30:53.028,0.036,-0.003,0.983
2026/05/14 10:30:53.048,0.034,-0.001,0.981
2026/05/14 10:30:53.067,0.031,0.0,0.985
2026/05/14 10:30:53.087,0.031,-0.001,0.989
2026/05/14 10:30:53.106,0.035,-0.003,0.984
2026/05/14 10:30:53.126,0.035,-0.002,0.982
2026/05/14 10:30:53.146,0.034,-0.006,0.985
2026/05/14 10:30:53.165,0.034,-0.005,0.984
2026/05/14 10:30:53.185,0.036,-0.01,0.982
2026/05/14 10:30:53.205,0.039,-0.006,0.988
2026/05/14 10:30:53.224,0.037,-0.005,0.984
2026/05/14 10:30:53.244,0.039,-0.008,0.984
2026/05/14 10:30:53.264,0.034,-0.011,0.983
2026/05/14 10:30:53.283,0.039,-0.007,0.975
2026/05/14 10:30:53.303,0.037,0.034,0.975
2026/05/14 10:30:53.322,0.06,0.045,1.016
2026/05/14 10:30:53.342,0.044,-0.014,1.002
2026/05/14 10:30:53.362,0.04,-0.028,1.011
2026/05/14 10:30:53.381,0.042,-0.029,0.982
2026/05/14 10:30:53.401,0.04,-0.036,0.956
2026/05/14 10:30:53.421,-0.002,-0.02,0.988
2026/05/14 10:30:53.440,0.006,0.001,1.001
2026/05/14 10:30:53.460,0.016,0.02,0.974
2026/05/14 10:30:53.480,0.02,0.021,0.985
2026/05/14 10:30:53.499,0.045,0.012,0.99
2026/05/14 10:30:53.519,0.039,0.011,0.989
2026/05/14 10:30:53.538,0.033,-0.01,0.989
2026/05/14 10:30:53.558,0.033,-0.008,0.973
2026/05/14 10:30:53.578,0.036,-0.02,0.983
2026/05/14 10:30:53.597,0.042,-0.022,0.988
2026/05/14 10:30:53.617,0.052,-0.024,0.976
2026/05/14 10:30:53.637,0.062,-0.011,0.985
2026/05/14 10:30:53.656,0.054,-0.001,0.989
2026/05/14 10:30:53.676,0.037,0.007,0.991
2026/05/14 10:30:53.696,0.028,0.016,0.984
2026/05/14 10:30:53.715,0.025,0.01,0.984
2026/05/14 10:30:53.735,0.017,-0.003,0.99
2026/05/14 10:30:53.754,0.029,-0.01,0.98
2026/05/14 10:30:53.774,0.016,-0.016,0.982
2026/05/14 10:30:53.794,0.02,-0.016,0.986
2026/05/14 10:30:53.813,0.029,-0.006,0.985
2026/05/14 10:30:53.833,0.029,0.0,0.988
2026/05/14 10:30:53.853,0.036,0.008,0.994
2026/05/14 10:30:53.872,0.047,0.005,0.986
2026/05/14 10:30:53.892,0.055,-0.007,0.983
2026/05/14 10:30:53.912,0.048,-0.007,0.988
2026/05/14 10:30:53.931,0.043,-0.015,0.986
2026/05/14 10:30:53.951,0.038,-0.01,0.984
2026/05/14 10:30:53.970,0.03,-0.011,0.99
2026/05/14 10:30:53.990,0.03,-0.009,0.985
2026/05/14 10:30:54.010,0.033,-0.001,0.986
2026/05/14 10:30:54.029,0.034,0.007,0.986
2026/05/14 10:30:54.049,0.029,0.008,0.985
2026/05/14 10:30:54.069,0.028,0.0,0.982
2026/05/14 10:30:54.088,0.026,0.002,0.983
2026/05/14 10:30:54.108,0.028,-0.005,0.983
2026/05/14 10:30:54.128,0.035,-0.011,0.982
2026/05/14 10:30:54.147,0.035,-0.013,0.986
2026/05/14 10:30:54.167,0.04,-0.01,0.987
2026/05/14 10:30:54.186,0.049,0.001,0.993
2026/05/14 10:30:54.206,0.045,0.002,0.984
2026/05/14 10:30:54.226,0.048,0.004,0.99
2026/05/14 10:30:54.245,0.039,-0.004,0.989
2026/05/14 10:30:54.265,0.039,-0.008,0.992
2026/05/14 10:30:54.285,0.034,-0.009,0.979
2026/05/14 10:30:54.304,0.033,-0.009,0.978
2026/05/14 10:30:54.324,0.02,-0.004,0.989
2026/05/14 10:30:54.343,0.031,0.003,0.973
2026/05/14 10:30:54.363,0.028,0.001,0.987
2026/05/14 10:30:54.383,0.028,0.0,0.983
2026/05/14 10:30:54.402,0.04,-0.001,0.985
2026/05/14 10:30:54.422,0.03,0.001,0.99
2026/05/14 10:30:54.442,0.037,-0.008,0.981
2026/05/14 10:30:54.461,0.038,-0.01,0.988
2026/05/14 10:30:54.481,0.039,-0.011,0.99
2026/05/14 10:30:54.501,0.045,-0.007,0.983
2026/05/14 10:30:54.520,0.043,-0.005,0.985
2026/05/14 10:30:54.540,0.043,-0.002,0.985
2026/05/14 10:30:54.559,0.036,-0.003,0.99
2026/05/14 10:30:54.579,0.034,0.0,0.984
2026/05/14 10:30:54.599,0.032,0.0,0.979
2026/05/14 10:30:54.618,0.029,-0.005,0.984
2026/05/14 10:30:54.638,0.032,-0.001,0.981
2026/05/14 10:30:54.658,0.028,-0.005,0.988
2026/05/14 10:30:54.677,0.027,-0.003,0.984
2026/05/14 10:30:54.697,0.036,-0.004,0.979
2026/05/14 10:30:54.717,0.033,-0.007,0.98
2026/05/14 10:30:54.736,0.035,-0.003,0.982
2026/05/14 10:30:54.756,0.042,-0.003,0.985
2026/05/14 10:30:54.775,0.043,-0.004,0.985
2026/05/14 10:30:54.795,0.041,-0.004,0.985
2026/05/14 10:30:54.815,0.042,-0.006,0.982
2026/05/14 10:30:54.834,0.038,-0.004,0.983
2026/05/14 10:30:54.854,0.037,-0.005,0.985
2026/05/14 10:30:54.874,0.035,-0.002,0.98
2026/05/14 10:30:54.893,0.034,0.0,0.982
2026/05/14 10:30:54.913,0.027,-0.003,0.987
2026/05/14 10:30:54.933,0.034,0.0,0.982
2026/05/14 10:30:54.952,0.03,-0.001,0.985
2026/05/14 10:30:54.972,0.028,-0.004,0.985
2026/05/14 10:30:54.991,0.033,-0.009,0.985
2026/05/14 10:30:55.011,0.032,-0.009,0.99
2026/05/14 10:30:55.031,0.039,-0.004,0.977
2026/05/14 10:30:55.050,0.036,-0.006,0.987
2026/05/14 10:30:55.070,0.037,-0.005,0.985
2026/05/14 10:30:55.090,0.044,-0.005,0.985
2026/05/14 10:30:55.109,0.04,-0.002,0.987
2026/05/14 10:30:55.129,0.035,-0.008,0.984
2026/05/14 10:30:55.148,0.036,-0.002,0.983
2026/05/14 10:30:55.168,0.035,-0.001,0.988
2026/05/14 10:30:55.188,0.032,-0.007,0.986
2026/05/14 10:30:55.207,0.036,-0.005,0.979
2026/05/14 10:30:55.227,0.031,-0.003,0.988
2026/05/14 10:30:55.247,0.025,-0.004,0.985
2026/05/14 10:30:55.266,0.033,-0.005,0.982
2026/05/14 10:30:55.286,0.026,0.0,0.985
2026/05/14 10:30:55.306,0.038,-0.004,0.978
2026/05/14 10:30:55.325,0.036,-0.002,0.98
2026/05/14 10:30:55.345,0.034,-0.005,0.987
2026/05/14 10:30:55.364,0.04,-0.006,0.979
2026/05/14 10:30:55.384,0.039,-0.003,0.984
2026/05/14 10:30:55.404,0.038,-0.003,0.981
2026/05/14 10:30:55.423,0.036,-0.008,0.986
2026/05/14 10:30:55.443,0.031,-0.006,0.986
2026/05/14 10:30:55.463,0.038,-0.003,0.985
2026/05/14 10:30:55.482,0.033,-0.005,0.986
2026/05/14 10:30:55.502,0.032,-0.005,0.987
2026/05/14 10:30:55.522,0.033,-0.007,0.982
2026/05/14 10:30:55.541,0.032,-0.003,0.983
2026/05/14 10:30:55.561,0.034,-0.005,0.98
2026/05/14 10:30:55.580,0.033,-0.003,0.987
2026/05/14 10:30:55.600,0.03,-0.001,0.985
2026/05/14 10:30:55.620,0.037,-0.009,0.982
2026/05/14 10:30:55.639,0.032,-0.007,0.984
2026/05/14 10:30:55.659,0.038,-0.005,0.979
2026/05/14 10:30:55.679,0.039,-0.004,0.984
2026/05/14 10:30:55.698,0.034,-0.008,0.987
2026/05/14 10:30:55.718,0.034,-0.004,0.985
2026/05/14 10:30:55.738,0.035,-0.005,0.98
2026/05/14 10:30:55.757,0.033,-0.003,0.987
2026/05/14 10:30:55.777,0.031,-0.003,0.988
2026/05/14 10:30:55.796,0.035,-0.003,0.985
2026/05/14 10:30:55.816,0.036,-0.004,0.982
2026/05/14 10:30:55.836,0.034,-0.007,0.988
2026/05/14 10:30:55.855,0.03,-0.002,0.986
2026/05/14 10:30:55.875,0.035,-0.007,0.982
2026/05/14 10:30:55.895,0.034,-0.006,0.985
2026/05/14 10:30:55.914,0.035,-0.006,0.987
2026/05/14 10:30:55.934,0.041,-0.001,0.989
2026/05/14 10:30:55.954,0.039,0.002,0.985
2026/05/14 10:30:55.973,0.036,-0.003,0.986
2026/05/14 10:30:55.993,0.035,-0.006,0.985
2026/05/14 10:30:56.012,0.035,-0.005,0.984
2026/05/14 10:30:56.032,0.038,-0.003,0.984
2026/05/14 10:30:56.052,0.036,-0.004,0.987
2026/05/14 10:30:56.071,0.029,-0.003,0.984
2026/05/14 10:30:56.091,0.036,-0.001,0.985
2026/05/14 10:30:56.111,0.031,-0.004,0.984
2026/05/14 10:30:56.130,0.036,-0.001,0.979
2026/05/14 10:30:56.150,0.034,-0.002,0.987
2026/05/14 10:30:56.169,0.036,0.0,0.986
2026/05/14 10:30:56.189,0.032,-0.002,0.987
2026/05/14 10:30:56.209,0.037,0.0,0.983
2026/05/14 10:30:56.228,0.037,-0.003,0.986
2026/05/14 10:30:56.248,0.037,-0.003,0.989
2026/05/14 10:30:56.268,0.035,-0.002,0.985
2026/05/14 10:30:56.287,0.031,-0.007,0.982
2026/05/14 10:30:56.307,0.034,-0.005,0.983
2026/05/14 10:30:56.327,0.032,-0.007,0.984
2026/05/14 10:30:56.346,0.037,-0.001,0.984
2026/05/14 10:30:56.366,0.035,-0.009,0.979
2026/05/14 10:30:56.385,0.036,-0.002,0.982
2026/05/14 10:30:56.405,0.035,-0.004,0.986
2026/05/14 10:30:56.425,0.032,-0.005,0.985
2026/05/14 10:30:56.444,0.037,0.002,0.983
2026/05/14 10:30:56.464,0.033,0.0,0.983
2026/05/14 10:30:56.484,0.04,-0.003,0.984
2026/05/14 10:30:56.503,0.033,-0.007,0.984
2026/05/14 10:30:56.523,0.035,-0.005,0.982
2026/05/14 10:30:56.543,0.035,0.002,0.982
2026/05/14 10:30:56.562,0.036,-0.002,0.985
2026/05/14 10:30:56.582,0.037,-0.001,0.985
2026/05/14 10:30:56.601,0.033,-0.006,0.984
2026/05/14 10:30:56.621,0.037,0.0,0.986
2026/05/14 10:30:56.641,0.035,-0.005,0.984
2026/05/14 10:30:56.660,0.034,-0.001,0.983
2026/05/14 10:30:56.680,0.036,-0.001,0.985
2026/05/14 10:30:56.700,0.034,-0.002,0.982
2026/05/14 10:30:56.719,0.032,-0.009,0.982
2026/05/14 10:30:56.739,0.037,-0.005,0.982
2026/05/14 10:30:56.759,0.034,-0.005,0.986
2026/05/14 10:30:56.778,0.036,-0.008,0.986
2026/05/14 10:30:56.798,0.038,-0.002,0.984
2026/05/14 10:30:56.817,0.037,-0.006,0.985
2026/05/14 10:30:56.837,0.037,-0.004,0.985
2026/05/14 10:30:56.857,0.036,-0.005,0.987
2026/05/14 10:30:56.876,0.035,-0.005,0.987
2026/05/14 10:30:56.896,0.031,-0.006,0.983
2026/05/14 10:30:56.916,0.035,-0.006,0.986
2026/05/14 10:30:56.935,0.033,-0.002,0.987
2026/05/14 10:30:56.955,0.036,-0.005,0.986
2026/05/14 10:30:56.974,0.035,-0.003,0.986
2026/05/14 10:30:56.994,0.034,-0.005,0.985
2026/05/14 10:30:57.014,0.037,0.0,0.98
2026/05/14 10:30:57.033,0.039,-0.005,0.984
2026/05/14 10:30:57.053,0.037,-0.002,0.983
2026/05/14 10:30:57.073,0.035,-0.009,0.985
2026/05/14 10:30:57.092,0.04,-0.006,0.987
2026/05/14 10:30:57.112,0.036,-0.002,0.989
2026/05/14 10:30:57.132,0.033,-0.002,0.982
2026/05/14 10:30:57.151,0.035,-0.003,0.987
2026/05/14 10:30:57.171,0.03,-0.003,0.986
2026/05/14 10:30:57.190,0.039,-0.006,0.984
2026/05/14 10:30:57.210,0.036,-0.005,0.988
2026/05/14 10:30:57.230,0.036,-0.004,0.987
2026/05/14 10:30:57.249,0.032,-0.004,0.985
2026/05/14 10:30:57.269,0.036,-0.007,0.983
2026/05/14 10:30:57.289,0.036,-0.004,0.984
2026/05/14 10:30:57.308,0.032,-0.004,0.986
2026/05/14 10:30:57.328,0.033,-0.001,0.986
2026/05/14 10:30:57.348,0.038,-0.003,0.985
2026/05/14 10:30:57.367,0.038,0.0,0.982
2026/05/14 10:30:57.387,0.036,-0.003,0.987
2026/05/14 10:30:57.406,0.032,-0.002,0.987
2026/05/14 10:30:57.426,0.035,-0.006,0.983
2026/05/14 10:30:57.446,0.036,-0.004,0.982
2026/05/14 10:30:57.465,0.033,-0.004,0.981
2026/05/14 10:30:57.485,0.033,-0.005,0.988
2026/05/14 10:30:57.505,0.037,-0.005,0.984
2026/05/14 10:30:57.524,0.035,0.0,0.985
2026/05/14 10:30:57.544,0.036,-0.001,0.986
2026/05/14 10:30:57.564,0.034,-0.004,0.984
2026/05/14 10:30:57.583,0.035,-0.002,0.984
2026/05/14 10:30:57.603,0.036,-0.006,0.984
2026/05/14 10:30:57.622,0.034,-0.004,0.988
2026/05/14 10:30:57.642,0.034,-0.004,0.981
2026/05/14 10:30:57.662,0.033,-0.005,0.985
2026/05/14 10:30:57.681,0.035,-0.005,0.986
2026/05/14 10:30:57.701,0.037,-0.005,0.98
2026/05/14 10:30:57.721,0.032,-0.007,0.985
2026/05/14 10:30:57.740,0.038,-0.007,0.986
2026/05/14 10:30:57.760,0.033,-0.004,0.984
2026/05/14 10:30:57.779,0.037,-0.005,0.981
2026/05/14 10:30:57.799,0.038,-0.008,0.986
2026/05/14 10:30:57.819,0.034,-0.007,0.983
2026/05/14 10:30:57.838,0.036,-0.001,0.984
2026/05/14 10:30:57.858,0.033,-0.002,0.984
2026/05/14 10:30:57.878,0.037,-0.001,0.987
2026/05/14 10:30:57.897,0.035,-0.001,0.984
2026/05/14 10:30:57.917,0.035,-0.005,0.982
2026/05/14 10:30:57.937,0.036,-0.004,0.987
2026/05/14 10:30:57.956,0.037,-0.002,0.984
2026/05/14 10:30:57.976,0.033,-0.003,0.983
2026/05/14 10:30:57.995,0.033,0.0,0.986
2026/05/14 10:30:58.015,0.035,-0.004,0.984
2026/05/14 10:30:58.035,0.037,-0.001,0.985
2026/05/14 10:30:58.054,0.034,-0.007,0.984
2026/05/14 10:30:58.074,0.034,-0.006,0.985
2026/05/14 10:30:58.094,0.033,-0.002,0.987
2026/05/14 10:30:58.113,0.032,-0.003,0.988
2026/05/14 10:30:58.133,0.034,-0.002,0.986
2026/05/14 10:30:58.153,0.038,-0.004,0.983
2026/05/14 10:30:58.172,0.036,-0.002,0.986
2026/05/14 10:30:58.192,0.034,-0.003,0.986
2026/05/14 10:30:58.211,0.036,-0.007,0.981
2026/05/14 10:30:58.231,0.034,-0.001,0.984
2026/05/14 10:30:58.251,0.033,-0.004,0.988
2026/05/14 10:30:58.270,0.034,-0.004,0.985
2026/05/14 10:30:58.290,0.037,-0.005,0.99
2026/05/14 10:30:58.310,0.031,-0.001,0.985
2026/05/14 10:30:58.329,0.037,-0.006,0.989
2026/05/14 10:30:58.349,0.035,-0.005,0.986
2026/05/14 10:30:58.369,0.036,-0.004,0.986
2026/05/14 10:30:58.388,0.036,-0.002,0.986
2026/05/14 10:30:58.408,0.036,-0.001,0.983
2026/05/14 10:30:58.427,0.034,-0.004,0.984
2026/05/14 10:30:58.447,0.036,-0.006,0.984
2026/05/14 10:30:58.467,0.033,-0.003,0.986
2026/05/14 10:30:58.486,0.033,-0.002,0.985
2026/05/14 10:30:58.506,0.04,-0.003,0.982
2026/05/14 10:30:58.526,0.035,-0.002,0.988
2026/05/14 10:30:58.545,0.036,-0.003,0.986
2026/05/14 10:30:58.565,0.038,-0.006,0.988
2026/05/14 10:30:58.584,0.035,-0.005,0.986
2026/05/14 10:30:58.604,0.036,-0.006,0.986
2026/05/14 10:30:58.624,0.034,-0.005,0.985
2026/05/14 10:30:58.643,0.037,-0.004,0.982
2026/05/14 10:30:58.663,0.035,-0.003,0.985
2026/05/14 10:30:58.683,0.036,-0.005,0.988
2026/05/14 10:30:58.702,0.036,-0.004,0.984
2026/05/14 10:30:58.722,0.036,-0.001,0.988
2026/05/14 10:30:58.742,0.035,-0.001,0.987
2026/05/14 10:30:58.761,0.037,-0.004,0.985
2026/05/14 10:30:58.781,0.032,0.0,0.988
2026/05/14 10:30:58.800,0.034,-0.001,0.983
2026/05/14 10:30:58.820,0.035,-0.005,0.985
2026/05/14 10:30:58.840,0.033,-0.002,0.983
2026/05/14 10:30:58.859,0.032,-0.005,0.984
2026/05/14 10:30:58.879,0.036,-0.005,0.983
2026/05/14 10:30:58.899,0.033,-0.003,0.986
2026/05/14 10:30:58.918,0.034,-0.008,0.981
2026/05/14 10:30:58.938,0.034,-0.004,0.982
2026/05/14 10:30:58.958,0.035,-0.003,0.987
2026/05/14 10:30:58.977,0.033,-0.004,0.987
2026/05/14 10:30:58.997,0.032,-0.003,0.989
2026/05/14 10:30:59.016,0.036,-0.002,0.988
2026/05/14 10:30:59.036,0.034,-0.003,0.984
2026/05/14 10:30:59.056,0.033,-0.003,0.985
2026/05/14 10:30:59.075,0.034,-0.003,0.983
2026/05/14 10:30:59.095,0.037,-0.006,0.984
2026/05/14 10:30:59.115,0.033,-0.005,0.985
2026/05/14 10:30:59.134,0.035,-0.001,0.982
2026/05/14 10:30:59.154,0.033,-0.001,0.982
2026/05/14 10:30:59.174,0.034,-0.003,0.984
2026/05/14 10:30:59.193,0.033,-0.003,0.984
2026/05/14 10:30:59.213,0.033,-0.005,0.984
2026/05/14 10:30:59.232,0.036,-0.001,0.983
2026/05/14 10:30:59.252,0.036,-0.003,0.982
2026/05/14 10:30:59.272,0.034,-0.003,0.986
2026/05/14 10:30:59.291,0.036,-0.002,0.987
2026/05/14 10:30:59.311,0.037,0.002,0.985
2026/05/14 10:30:59.331,0.034,-0.001,0.985
2026/05/14 10:30:59.350,0.038,-0.001,0.984
2026/05/14 10:30:59.370,0.037,-0.003,0.984
2026/05/14 10:30:59.389,0.034,-0.002,0.983
2026/05/14 10:30:59.409,0.032,-0.002,0.985
2026/05/14 10:30:59.429,0.039,-0.006,0.986
2026/05/14 10:30:59.448,0.034,-0.007,0.985
2026/05/14 10:30:59.468,0.035,-0.005,0.988
2026/05/14 10:30:59.488,0.039,-0.001,0.986
2026/05/14 10:30:59.507,0.034,-0.006,0.986
2026/05/14 10:30:59.527,0.037,-0.006,0.982
2026/05/14 10:30:59.547,0.036,-0.001,0.985
2026/05/14 10:30:59.566,0.036,-0.007,0.985
2026/05/14 10:30:59.586,0.037,-0.002,0.982
2026/05/14 10:30:59.605,0.041,-0.006,0.992
2026/05/14 10:30:59.625,0.036,-0.002,0.985
2026/05/14 10:30:59.645,0.035,-0.005,0.984
2026/05/14 10:30:59.664,0.031,-0.008,0.981
2026/05/14 10:30:59.684,0.033,-0.004,0.983
2026/05/14 10:30:59.704,0.035,-0.004,0.986
2026/05/14 10:30:59.723,0.034,-0.008,0.984
2026/05/14 10:30:59.743,0.035,-0.006,0.985
2026/05/14 10:30:59.763,0.032,-0.004,0.985
2026/05/14 10:30:59.782,0.037,-0.001,0.983
2026/05/14 10:30:59.802,0.04,-0.003,0.989
2026/05/14 10:30:59.821,0.036,-0.007,0.986
2026/05/14 10:30:59.841,0.036,-0.007,0.987
2026/05/14 10:30:59.861,0.038,0.0,0.982
2026/05/14 10:30:59.880,0.034,-0.002,0.985
2026/05/14 10:30:59.900,0.035,-0.002,0.986
2026/05/14 10:30:59.920,0.036,-0.004,0.986
2026/05/14 10:30:59.939,0.032,-0.007,0.987
2026/05/14 10:30:59.959,0.036,-0.005,0.984
2026/05/14 10:30:59.979,0.036,-0.002,0.982
2026/05/14 10:30:59.998,0.036,-0.004,0.986
2026/05/14 10:31:00.018,0.034,-0.008,0.985
2026/05/14 10:31:00.037,0.033,-0.005,0.981
2026/05/14 10:31:00.057,0.037,-0.001,0.997
2026/05/14 10:31:00.077,0.034,-0.002,0.985
2026/05/14 10:31:00.096,0.03,-0.002,0.983
2026/05/14 10:31:00.116,0.035,-0.002,0.98
2026/05/14 10:31:00.136,0.037,-0.005,0.986
2026/05/14 10:31:00.155,0.034,-0.002,0.981
2026/05/14 10:31:00.175,0.036,-0.005,0.987
2026/05/14 10:31:00.194,0.037,-0.005,0.986
2026/05/14 10:31:00.214,0.036,-0.002,0.984
2026/05/14 10:31:00.234,0.038,-0.006,0.985
2026/05/14 10:31:00.253,0.03,-0.008,0.982
2026/05/14 10:31:00.273,0.036,-0.006,0.984
2026/05/14 10:31:00.293,0.033,-0.001,0.986
2026/05/14 10:31:00.312,0.035,-0.004,0.982
2026/05/14 10:31:00.332,0.033,0.0,0.99
2026/05/14 10:31:00.352,0.036,-0.003,0.986
2026/05/14 10:31:00.371,0.035,-0.001,0.981
2026/05/14 10:31:00.391,0.037,-0.001,0.984
2026/05/14 10:31:00.410,0.036,-0.005,0.984
2026/05/14 10:31:00.430,0.036,-0.006,0.981
2026/05/14 10:31:00.450,0.036,0.0,0.984
2026/05/14 10:31:00.469,0.035,-0.002,0.982
2026/05/14 10:31:00.489,0.031,-0.004,0.979
2026/05/14 10:31:00.509,0.038,-0.006,0.984
2026/05/14 10:31:00.528,0.032,-0.004,0.979
2026/05/14 10:31:00.548,0.033,-0.004,0.98
2026/05/14 10:31:00.568,0.033,-0.004,0.983
2026/05/14 10:31:00.587,0.037,-0.006,0.985
2026/05/14 10:31:00.607,0.032,-0.005,0.983
2026/05/14 10:31:00.626,0.034,-0.002,0.985
2026/05/14 10:31:00.646,0.035,-0.004,0.985
2026/05/14 10:31:00.666,0.031,-0.003,0.987
2026/05/14 10:31:00.685,0.035,-0.003,0.985
2026/05/14 10:31:00.705,0.037,-0.005,0.992
2026/05/14 10:31:00.725,0.03,-0.005,0.983
2026/05/14 10:31:00.744,0.043,-0.002,0.985
2026/05/14 10:31:00.764,0.038,0.001,0.98
2026/05/14 10:31:00.784,0.031,0.001,0.98
2026/05/14 10:31:00.803,0.033,-0.007,0.984
2026/05/14 10:31:00.823,0.036,-0.008,0.985
2026/05/14 10:31:00.842,0.035,-0.003,0.986
2026/05/14 10:31:00.862,0.036,-0.004,0.988
2026/05/14 10:31:00.882,0.036,-0.004,0.984
2026/05/14 10:31:00.901,0.035,-0.003,0.987
2026/05/14 10:31:00.921,0.035,-0.004,0.986
2026/05/14 10:31:00.941,0.037,-0.005,0.982
2026/05/14 10:31:00.960,0.038,-0.005,0.982
2026/05/14 10:31:00.980,0.033,-0.003,0.98
2026/05/14 10:31:00.999,0.038,-0.003,0.986
2026/05/14 10:31:01.019,0.033,-0.003,0.982
2026/05/14 10:31:01.039,0.036,0.0,0.985
2026/05/14 10:31:01.058,0.033,-0.004,0.986
2026/05/14 10:31:01.078,0.036,-0.006,0.982
2026/05/14 10:31:01.098,0.034,-0.002,0.99
2026/05/14 10:31:01.117,0.038,-0.005,0.987
2026/05/14 10:31:01.137,0.031,-0.003,0.985
2026/05/14 10:31:01.157,0.032,-0.006,0.983
2026/05/14 10:31:01.176,0.038,-0.002,0.988
2026/05/14 10:31:01.196,0.037,-0.002,0.985
2026/05/14 10:31:01.215,0.034,-0.005,0.985
2026/05/14 10:31:01.235,0.034,-0.007,0.98
2026/05/14 10:31:01.255,0.036,-0.001,0.984
2026/05/14 10:31:01.274,0.031,-0.002,0.981
2026/05/14 10:31:01.294,0.035,-0.001,0.981
2026/05/14 10:31:01.314,0.034,-0.005,0.987
2026/05/14 10:31:01.333,0.033,-0.008,0.988
2026/05/14 10:31:01.353,0.033,-0.002,0.982
2026/05/14 10:31:01.373,0.033,-0.005,0.987
2026/05/14 10:31:01.392,0.032,-0.003,0.981
2026/05/14 10:31:01.412,0.031,-0.007,0.985
2026/05/14 10:31:01.431,0.035,-0.004,0.987
2026/05/14 10:31:01.451,0.036,-0.005,0.982
2026/05/14 10:31:01.471,0.036,-0.003,0.984
2026/05/14 10:31:01.490,0.035,-0.004,0.985
2026/05/14 10:31:01.510,0.036,-0.003,0.984
2026/05/14 10:31:01.530,0.037,-0.004,0.986
2026/05/14 10:31:01.549,0.034,-0.005,0.986
2026/05/14 10:31:01.569,0.036,0.002,0.983
2026/05/14 10:31:01.589,0.035,-0.004,0.986
2026/05/14 10:31:01.608,0.034,-0.005,0.981
2026/05/14 10:31:01.628,0.036,-0.005,0.985
2026/05/14 10:31:01.647,0.038,-0.004,0.987
2026/05/14 10:31:01.667,0.034,-0.005,0.986
2026/05/14 10:31:01.687,0.033,-0.006,0.982
2026/05/14 10:31:01.706,0.036,-0.004,0.985
2026/05/14 10:31:01.726,0.034,-0.005,0.98
2026/05/14 10:31:01.746,0.034,-0.004,0.986
2026/05/14 10:31:01.765,0.035,-0.001,0.983
2026/05/14 10:31:01.785,0.036,-0.005,0.99
2026/05/14 10:31:01.804,0.035,-0.005,0.987
2026/05/14 10:31:01.824,0.037,0.0,0.984
2026/05/14 10:31:01.844,0.034,-0.003,0.985
2026/05/14 10:31:01.863,0.032,-0.004,0.985
2026/05/14 10:31:01.883,0.034,-0.004,0.984
2026/05/14 10:31:01.903,0.038,-0.006,0.982
2026/05/14 10:31:01.922,0.036,-0.005,0.994
2026/05/14 10:31:01.942,0.032,-0.001,0.99
2026/05/14 10:31:01.962,0.036,-0.006,0.986
2026/05/14 10:31:01.981,0.033,-0.008,0.989
2026/05/14 10:31:02.001,0.036,-0.002,0.989
2026/05/14 10:31:02.020,0.037,-0.003,0.986
2026/05/14 10:31:02.040,0.036,-0.002,0.986
2026/05/14 10:31:02.060,0.034,-0.003,0.987
2026/05/14 10:31:02.079,0.036,-0.001,0.985
2026/05/14 10:31:02.099,0.036,-0.003,0.986
2026/05/14 10:31:02.119,0.035,-0.008,0.988
2026/05/14 10:31:02.138,0.036,0.001,0.989
2026/05/14 10:31:02.158,0.035,-0.004,0.987
2026/05/14 10:31:02.178,0.037,-0.006,0.988
2026/05/14 10:31:02.197,0.035,-0.005,0.986
2026/05/14 10:31:02.217,0.036,-0.008,0.976
2026/05/14 10:31:02.236,0.035,-0.007,0.981
2026/05/14 10:31:02.256,0.035,0.002,0.99
2026/05/14 10:31:02.276,0.035,-0.002,0.986
2026/05/14 10:31:02.295,0.035,-0.005,0.979
2026/05/14 10:31:02.315,0.03,-0.003,0.982
2026/05/14 10:31:02.335,0.035,-0.004,0.988
2026/05/14 10:31:02.354,0.035,-0.004,0.983
2026/05/14 10:31:02.374,0.036,-0.007,0.981
2026/05/14 10:31:02.394,0.031,-0.003,0.987
2026/05/14 10:31:02.413,0.033,-0.006,0.981
2026/05/14 10:31:02.433,0.034,-0.004,0.985
2026/05/14 10:31:02.452,0.036,-0.003,0.984
2026/05/14 10:31:02.472,0.033,-0.006,0.989
2026/05/14 10:31:02.492,0.034,-0.004,0.987
2026/05/14 10:31:02.511,0.038,-0.005,0.985
2026/05/14 10:31:02.531,0.034,-0.002,0.984
2026/05/14 10:31:02.551,0.034,-0.003,0.983
2026/05/14 10:31:02.570,0.033,-0.008,0.978
2026/05/14 10:31:02.590,0.033,-0.002,0.987
2026/05/14 10:31:02.609,0.037,-0.004,0.986
2026/05/14 10:31:02.629,0.036,-0.004,0.988
2026/05/14 10:31:02.649,0.031,-0.003,0.984
2026/05/14 10:31:02.668,0.034,-0.006,0.986
2026/05/14 10:31:02.688,0.036,-0.005,0.985
2026/05/14 10:31:02.708,0.035,-0.003,0.988
2026/05/14 10:31:02.727,0.034,-0.009,0.985
2026/05/14 10:31:02.747,0.034,0.0,0.986
2026/05/14 10:31:02.767,0.033,-0.004,0.985
2026/05/14 10:31:02.786,0.037,-0.002,0.982
2026/05/14 10:31:02.806,0.038,0.0,0.984
2026/05/14 10:31:02.825,0.034,-0.002,0.982
2026/05/14 10:31:02.845,0.036,-0.002,0.983
2026/05/14 10:31:02.865,0.038,-0.003,0.985
2026/05/14 10:31:02.884,0.036,-0.006,0.981
2026/05/14 10:31:02.904,0.035,-0.004,0.98
2026/05/14 10:31:02.924,0.033,-0.006,0.981
2026/05/14 10:31:02.943,0.032,-0.005,0.983
2026/05/14 10:31:02.963,0.036,-0.005,0.983
2026/05/14 10:31:02.983,0.036,-0.003,0.986
2026/05/14 10:31:03.002,0.035,-0.006,0.982
2026/05/14 10:31:03.022,0.037,-0.004,0.984
2026/05/14 10:31:03.041,0.033,-0.006,0.984
2026/05/14 10:31:03.061,0.032,-0.005,0.986
2026/05/14 10:31:03.081,0.033,-0.001,0.982
2026/05/14 10:31:03.100,0.037,-0.004,0.981
2026/05/14 10:31:03.120,0.038,-0.001,0.985
2026/05/14 10:31:03.140,0.033,-0.004,0.988
2026/05/14 10:31:03.159,0.03,-0.007,0.982
2026/05/14 10:31:03.179,0.035,-0.003,0.982
2026/05/14 10:31:03.199,0.033,-0.004,0.981
2026/05/14 10:31:03.218,0.036,-0.001,0.982
2026/05/14 10:31:03.238,0.031,-0.003,0.986
2026/05/14 10:31:03.257,0.035,-0.002,0.986
2026/05/14 10:31:03.277,0.037,-0.007,0.983
2026/05/14 10:31:03.297,0.035,-0.004,0.984
2026/05/14 10:31:03.316,0.038,-0.003,0.986
2026/05/14 10:31:03.336,0.036,-0.003,0.981
2026/05/14 10:31:03.356,0.034,-0.002,0.986
2026/05/14 10:31:03.375,0.035,-0.002,0.99
2026/05/14 10:31:03.395,0.037,-0.003,0.985
2026/05/14 10:31:03.415,0.032,-0.004,0.982
2026/05/14 10:31:03.434,0.035,0.002,0.983
2026/05/14 10:31:03.454,0.032,-0.002,0.978
2026/05/14 10:31:03.473,0.026,-0.004,0.966
2026/05/14 10:31:03.493,0.044,-0.003,0.964
2026/05/14 10:31:03.513,0.035,-0.005,0.966
2026/05/14 10:31:03.532,0.044,-0.005,0.993
2026/05/14 10:31:03.552,0.043,-0.011,0.974
2026/05/14 10:31:03.572,0.039,-0.006,0.99
2026/05/14 10:31:03.591,0.045,-0.004,0.989
2026/05/14 10:31:03.611,0.039,-0.001,0.978
2026/05/14 10:31:03.630,0.03,-0.004,0.982
2026/05/14 10:31:03.650,0.031,-0.006,0.983
2026/05/14 10:31:03.670,0.033,-0.001,0.978
2026/05/14 10:31:03.689,0.038,0.0,0.98
2026/05/14 10:31:03.709,0.033,-0.002,0.979
2026/05/14 10:31:03.729,0.031,-0.006,0.976
2026/05/14 10:31:03.748,0.03,-0.004,0.98
2026/05/14 10:31:03.768,0.031,-0.005,0.988
2026/05/14 10:31:03.788,0.036,-0.006,0.989
2026/05/14 10:31:03.807,0.039,-0.004,0.986
2026/05/14 10:31:03.827,0.035,-0.001,0.991
2026/05/14 10:31:03.846,0.035,-0.002,0.984
2026/05/14 10:31:03.866,0.035,-0.004,0.984
2026/05/14 10:31:03.886,0.031,-0.004,0.987
2026/05/14 10:31:03.905,0.037,-0.008,0.986
2026/05/14 10:31:03.925,0.033,-0.004,0.983
2026/05/14 10:31:03.945,0.032,-0.004,0.984
2026/05/14 10:31:03.964,0.035,-0.002,0.988
2026/05/14 10:31:03.984,0.032,0.0,0.985
2026/05/14 10:31:04.004,0.034,-0.002,0.987
2026/05/14 10:31:04.023,0.031,-0.007,0.986
2026/05/14 10:31:04.043,0.038,-0.008,0.982
2026/05/14 10:31:04.062,0.032,-0.006,0.989
2026/05/14 10:31:04.082,0.033,-0.005,0.98
2026/05/14 10:31:04.102,0.037,-0.004,0.987
2026/05/14 10:31:04.121,0.037,-0.005,0.985
2026/05/14 10:31:04.141,0.039,-0.003,0.985
2026/05/14 10:31:04.161,0.039,-0.002,0.984
2026/05/14 10:31:04.180,0.035,-0.003,0.984
2026/05/14 10:31:04.200,0.034,-0.007,0.984
2026/05/14 10:31:04.220,0.033,-0.004,0.986
2026/05/14 10:31:04.239,0.03,-0.003,0.979
2026/05/14 10:31:04.259,0.033,-0.007,0.986
2026/05/14 10:31:04.278,0.036,-0.002,0.985
2026/05/14 10:31:04.298,0.035,-0.002,0.985
2026/05/14 10:31:04.318,0.035,-0.004,0.987
2026/05/14 10:31:04.337,0.034,0.0,0.98
2026/05/14 10:31:04.357,0.036,-0.006,0.984
2026/05/14 10:31:04.377,0.035,-0.003,0.985
2026/05/14 10:31:04.396,0.036,-0.004,0.986
2026/05/14 10:31:04.416,0.034,-0.008,0.985
2026/05/14 10:31:04.435,0.038,-0.004,0.989
2026/05/14 10:31:04.455,0.036,0.001,0.984
2026/05/14 10:31:04.475,0.035,-0.002,0.985
2026/05/14 10:31:04.494,0.037,-0.003,0.986
2026/05/14 10:31:04.514,0.035,-0.003,0.984
2026/05/14 10:31:04.534,0.034,-0.005,0.982
2026/05/14 10:31:04.553,0.033,-0.004,0.987
2026/05/14 10:31:04.573,0.036,-0.005,0.986
2026/05/14 10:31:04.593,0.033,-0.003,0.982
2026/05/14 10:31:04.612,0.035,-0.006,0.984
2026/05/14 10:31:04.632,0.035,-0.008,0.986
2026/05/14 10:31:04.651,0.034,-0.006,0.984
2026/05/14 10:31:04.671,0.035,-0.005,0.986
2026/05/14 10:31:04.691,0.037,-0.003,0.988
2026/05/14 10:31:04.710,0.034,-0.002,0.99
2026/05/14 10:31:04.730,0.036,-0.004,0.986
2026/05/14 10:31:04.750,0.036,-0.006,0.987
2026/05/14 10:31:04.769,0.032,-0.009,0.982
2026/05/14 10:31:04.789,0.033,-0.003,0.982
2026/05/14 10:31:04.809,0.034,-0.002,0.989
2026/05/14 10:31:04.828,0.033,-0.001,0.982
2026/05/14 10:31:04.848,0.034,0.001,0.986
2026/05/14 10:31:04.867,0.029,-0.002,0.984
2026/05/14 10:31:04.887,0.033,-0.002,0.982
2026/05/14 10:31:04.907,0.035,-0.007,0.984
2026/05/14 10:31:04.926,0.035,-0.001,0.983
2026/05/14 10:31:04.946,0.036,-0.007,0.987
2026/05/14 10:31:04.966,0.034,-0.001,0.984
2026/05/14 10:31:04.985,0.036,-0.001,0.986
2026/05/14 10:31:05.005,0.037,-0.006,0.984
2026/05/14 10:31:05.025,0.03,-0.006,0.986
2026/05/14 10:31:05.044,0.036,-0.005,0.987
2026/05/14 10:31:05.064,0.036,-0.006,0.983
2026/05/14 10:31:05.083,0.035,-0.006,0.984
2026/05/14 10:31:05.103,0.034,-0.007,0.985
2026/05/14 10:31:05.123,0.033,-0.004,0.987
2026/05/14 10:31:05.142,0.032,-0.001,0.987
2026/05/14 10:31:05.162,0.033,-0.001,0.985
2026/05/14 10:31:05.182,0.034,-0.002,0.984
2026/05/14 10:31:05.201,0.04,-0.006,0.98
2026/05/14 10:31:05.221,0.036,-0.004,0.989
2026/05/14 10:31:05.241,0.035,-0.003,0.984
2026/05/14 10:31:05.260,0.035,-0.005,0.989
2026/05/14 10:31:05.280,0.036,-0.004,0.985
2026/05/14 10:31:05.299,0.036,-0.004,0.982
2026/05/14 10:31:05.319,0.034,-0.008,0.984
2026/05/14 10:31:05.339,0.033,-0.002,0.982
2026/05/14 10:31:05.358,0.031,-0.002,0.984
2026/05/14 10:31:05.378,0.036,-0.006,0.984
2026/05/14 10:31:05.398,0.033,-0.002,0.982
2026/05/14 10:31:05.417,0.036,-0.005,0.984
2026/05/14 10:31:05.437,0.037,-0.007,0.983
2026/05/14 10:31:05.456,0.037,-0.004,0.985
2026/05/14 10:31:05.476,0.036,-0.006,0.983
2026/05/14 10:31:05.496,0.033,-0.004,0.986
2026/05/14 10:31:05.515,0.033,-0.005,0.985
2026/05/14 10:31:05.535,0.038,-0.008,0.987
2026/05/14 10:31:05.555,0.033,-0.008,0.987
2026/05/14 10:31:05.574,0.032,-0.005,0.984
2026/05/14 10:31:05.594,0.034,0.0,0.982
2026/05/14 10:31:05.614,0.037,0.002,0.986
2026/05/14 10:31:05.633,0.037,0.0,0.987
2026/05/14 10:31:05.653,0.042,-0.001,0.988
2026/05/14 10:31:05.672,0.041,-0.005,0.986
2026/05/14 10:31:05.692,0.038,-0.011,0.983
2026/05/14 10:31:05.712,0.041,-0.01,0.982
2026/05/14 10:31:05.731,0.036,-0.009,0.984
2026/05/14 10:31:05.751,0.017,0.004,0.991
2026/05/14 10:31:05.771,0.032,-0.002,0.983
2026/05/14 10:31:05.790,0.038,0.005,0.988
2026/05/14 10:31:05.810,0.036,-0.003,0.994
2026/05/14 10:31:05.830,0.034,0.003,0.984
2026/05/14 10:31:05.849,0.035,-0.003,0.984
2026/05/14 10:31:05.869,0.028,-0.009,0.982
2026/05/14 10:31:05.888,0.03,-0.012,0.982
2026/05/14 10:31:05.908,0.036,-0.006,0.983
2026/05/14 10:31:05.928,0.032,0.001,0.984
2026/05/14 10:31:05.947,0.035,0.0,0.986
2026/05/14 10:31:05.967,0.036,0.001,0.983
2026/05/14 10:31:05.987,0.039,0.001,0.987
2026/05/14 10:31:06.006,0.037,-0.005,0.984
2026/05/14 10:31:06.026,0.034,-0.012,0.982
2026/05/14 10:31:06.046,0.418,0.154,1.358
2026/05/14 10:31:06.065,-0.031,-0.195,0.772
2026/05/14 10:31:06.085,0.209,0.025,1.12
2026/05/14 10:31:06.104,0.072,-0.025,0.995
2026/05/14 10:31:06.124,0.037,0.009,0.904
2026/05/14 10:31:06.144,0.038,-0.014,0.918
2026/05/14 10:31:06.163,0.038,-0.018,0.991
2026/05/14 10:31:06.183,0.043,-0.001,0.993
2026/05/14 10:31:06.203,0.035,0.004,0.98
2026/05/14 10:31:06.222,0.027,0.003,0.988
2026/05/14 10:31:06.242,0.023,0.002,0.998
2026/05/14 10:31:06.261,0.02,0.003,0.988
2026/05/14 10:31:06.281,0.015,0.005,0.961
2026/05/14 10:31:06.301,0.018,-0.007,0.963
2026/05/14 10:31:06.320,0.026,-0.01,0.988
2026/05/14 10:31:06.340,0.035,-0.01,0.986
2026/05/14 10:31:06.360,0.043,-0.008,0.983
2026/05/14 10:31:06.379,0.047,-0.002,0.965
2026/05/14 10:31:06.399,0.042,0.008,0.982
2026/05/14 10:31:06.419,0.06,-0.01,0.987
2026/05/14 10:31:06.438,0.047,-0.006,0.95
2026/05/14 10:31:06.458,0.024,-0.001,0.951
2026/05/14 10:31:06.477,0.036,-0.015,1.008
2026/05/14 10:31:06.497,0.032,-0.011,0.974
2026/05/14 10:31:06.517,0.028,0.003,0.964
2026/05/14 10:31:06.536,0.025,0.017,0.976
2026/05/14 10:31:06.556,0.02,0.01,0.975
2026/05/14 10:31:06.576,0.022,0.004,0.981
2026/05/14 10:31:06.595,0.025,0.005,0.977
2026/05/14 10:31:06.615,0.024,-0.003,0.979
2026/05/14 10:31:06.635,0.031,-0.006,0.982
2026/05/14 10:31:06.654,0.04,-0.009,0.983
2026/05/14 10:31:06.674,0.046,-0.004,0.991
2026/05/14 10:31:06.693,0.049,-0.004,0.982
2026/05/14 10:31:06.713,0.049,-0.003,0.991
2026/05/14 10:31:06.733,0.049,-0.011,0.982
2026/05/14 10:31:06.752,0.038,-0.01,0.99
2026/05/14 10:31:06.772,0.035,-0.003,0.989
2026/05/14 10:31:06.792,0.03,0.002,0.98
2026/05/14 10:31:06.811,0.034,-0.006,0.993
2026/05/14 10:31:06.831,0.025,0.003,0.986
2026/05/14 10:31:06.851,0.026,0.002,0.984
2026/05/14 10:31:06.870,0.028,0.001,0.988
2026/05/14 10:31:06.890,0.026,-0.003,0.985
2026/05/14 10:31:06.909,0.034,-0.003,0.989
2026/05/14 10:31:06.929,0.034,-0.005,0.984
2026/05/14 10:31:06.949,0.045,-0.006,0.984
2026/05/14 10:31:06.968,0.044,-0.006,0.983
2026/05/14 10:31:06.988,0.051,-0.006,0.986
2026/05/14 10:31:07.008,0.044,-0.007,0.983
2026/05/14 10:31:07.027,0.041,-0.006,0.982
2026/05/14 10:31:07.047,0.034,-0.005,0.985
2026/05/14 10:31:07.067,0.034,-0.006,0.983
2026/05/14 10:31:07.086,0.028,0.002,0.982
2026/05/14 10:31:07.106,0.027,0.001,0.989
2026/05/14 10:31:07.125,0.029,-0.001,0.988
2026/05/14 10:31:07.145,0.027,0.0,0.979
2026/05/14 10:31:07.165,0.026,0.0,0.983
2026/05/14 10:31:07.184,0.032,-0.005,0.982
2026/05/14 10:31:07.204,0.033,-0.003,0.979
2026/05/14 10:31:07.224,0.038,-0.006,0.985
2026/05/14 10:31:07.243,0.042,-0.003,0.982
2026/05/14 10:31:07.263,0.043,-0.007,0.982
2026/05/14 10:31:07.282,0.049,-0.003,0.983
2026/05/14 10:31:07.302,0.046,-0.007,0.984
2026/05/14 10:31:07.322,0.036,-0.008,0.987
2026/05/14 10:31:07.341,0.034,-0.006,0.987
2026/05/14 10:31:07.361,0.032,-0.008,0.983
2026/05/14 10:31:07.381,0.029,-0.003,0.991
2026/05/14 10:31:07.400,0.026,0.0,0.985
2026/05/14 10:31:07.420,0.028,-0.001,0.981
2026/05/14 10:31:07.440,0.031,0.003,0.982
2026/05/14 10:31:07.459,0.032,-0.003,0.978
2026/05/14 10:31:07.479,0.032,-0.004,0.987
2026/05/14 10:31:07.498,0.035,-0.006,0.985
2026/05/14 10:31:07.518,0.039,-0.007,0.984
2026/05/14 10:31:07.538,0.042,-0.005,0.99
2026/05/14 10:31:07.557,0.044,0.001,0.983
2026/05/14 10:31:07.577,0.043,-0.003,0.987
2026/05/14 10:31:07.597,0.039,-0.004,0.985
2026/05/14 10:31:07.616,0.038,-0.009,0.989
2026/05/14 10:31:07.636,0.034,-0.004,0.983
2026/05/14 10:31:07.656,0.033,-0.004,0.986
2026/05/14 10:31:07.675,0.03,-0.004,0.99
2026/05/14 10:31:07.695,0.032,-0.003,0.982
2026/05/14 10:31:07.714,0.034,-0.001,0.988
2026/05/14 10:31:07.734,0.032,-0.001,0.979
2026/05/14 10:31:07.754,0.036,-0.003,0.983
2026/05/14 10:31:07.773,0.034,-0.007,0.983
2026/05/14 10:31:07.793,0.038,-0.004,0.984
2026/05/14 10:31:07.813,0.037,-0.002,0.984
2026/05/14 10:31:07.832,0.04,-0.001,0.982
2026/05/14 10:31:07.852,0.04,-0.006,0.989
2026/05/14 10:31:07.872,0.041,-0.007,0.98
2026/05/14 10:31:07.891,0.037,0.0,0.978
2026/05/14 10:31:07.911,0.033,-0.004,0.987
2026/05/14 10:31:07.930,0.033,-0.003,0.98
2026/05/14 10:31:07.950,0.035,-0.002,0.984
2026/05/14 10:31:07.970,0.035,-0.003,0.985
2026/05/14 10:31:07.989,0.034,0.0,0.981
2026/05/14 10:31:08.009,0.031,-0.002,0.983
2026/05/14 10:31:08.029,0.033,-0.005,0.985
2026/05/14 10:31:08.048,0.035,-0.003,0.988
2026/05/14 10:31:08.068,0.032,-0.006,0.984
2026/05/14 10:31:08.087,0.037,-0.008,0.989
2026/05/14 10:31:08.107,0.039,-0.006,0.988
2026/05/14 10:31:08.127,0.039,-0.003,0.989
2026/05/14 10:31:08.146,0.037,-0.003,0.985
2026/05/14 10:31:08.166,0.037,-0.001,0.986
2026/05/14 10:31:08.186,0.035,-0.007,0.987
2026/05/14 10:31:08.205,0.037,-0.004,0.988
2026/05/14 10:31:08.225,0.034,-0.003,0.987
2026/05/14 10:31:08.245,0.031,-0.003,0.983
2026/05/14 10:31:08.264,0.032,-0.006,0.985
2026/05/14 10:31:08.284,0.034,-0.004,0.981
2026/05/14 10:31:08.303,0.031,-0.005,0.983
2026/05/14 10:31:08.323,0.035,-0.004,0.986
2026/05/14 10:31:08.343,0.034,-0.007,0.987
2026/05/14 10:31:08.362,0.035,-0.005,0.983
2026/05/14 10:31:08.382,0.035,-0.003,0.986
2026/05/14 10:31:08.402,0.04,-0.003,0.986
2026/05/14 10:31:08.421,0.041,-0.004,0.985
2026/05/14 10:31:08.441,0.038,-0.006,0.982
2026/05/14 10:31:08.461,0.038,-0.003,0.983
2026/05/14 10:31:08.480,0.032,-0.001,0.988
2026/05/14 10:31:08.500,0.028,-0.004,0.981
2026/05/14 10:31:08.519,0.033,-0.001,0.988
2026/05/14 10:31:08.539,0.035,-0.003,0.984
2026/05/14 10:31:08.559,0.033,0.001,0.986
2026/05/14 10:31:08.578,0.033,0.0,0.982
2026/05/14 10:31:08.598,0.029,-0.002,0.984
2026/05/14 10:31:08.618,0.033,-0.004,0.983
2026/05/14 10:31:08.637,0.034,-0.006,0.985
2026/05/14 10:31:08.657,0.04,-0.007,0.982
2026/05/14 10:31:08.677,0.036,-0.006,0.982
2026/05/14 10:31:08.696,0.041,-0.003,0.983
2026/05/14 10:31:08.716,0.039,-0.004,0.985
2026/05/14 10:31:08.735,0.041,-0.004,0.985
2026/05/14 10:31:08.755,0.038,-0.003,0.983
2026/05/14 10:31:08.775,0.035,0.0,0.982
2026/05/14 10:31:08.794,0.037,-0.004,0.981
2026/05/14 10:31:08.814,0.033,-0.005,0.984
2026/05/14 10:31:08.834,0.035,-0.006,0.985
2026/05/14 10:31:08.853,0.031,-0.008,0.986
2026/05/14 10:31:08.873,0.033,-0.004,0.987
2026/05/14 10:31:08.893,0.035,-0.004,0.984
2026/05/14 10:31:08.912,0.036,-0.002,0.988
2026/05/14 10:31:08.932,0.034,-0.005,0.983
2026/05/14 10:31:08.951,0.038,-0.002,0.984
2026/05/14 10:31:08.971,0.038,-0.008,0.987
2026/05/14 10:31:08.991,0.036,-0.002,0.986
2026/05/14 10:31:09.010,0.034,-0.002,0.984
2026/05/14 10:31:09.030,0.034,-0.005,0.982
2026/05/14 10:31:09.050,0.035,-0.006,0.985
2026/05/14 10:31:09.069,0.036,-0.005,0.984
2026/05/14 10:31:09.089,0.033,-0.001,0.985
2026/05/14 10:31:09.108,0.033,-0.003,0.983
2026/05/14 10:31:09.128,0.034,-0.002,0.982
2026/05/14 10:31:09.148,0.033,0.0,0.987
2026/05/14 10:31:09.167,0.036,-0.002,0.988
2026/05/14 10:31:09.187,0.037,-0.004,0.983
2026/05/14 10:31:09.207,0.037,-0.004,0.988
2026/05/14 10:31:09.226,0.035,-0.001,0.988
2026/05/14 10:31:09.246,0.039,-0.003,0.985
2026/05/14 10:31:09.266,0.036,-0.004,0.984
2026/05/14 10:31:09.285,0.036,-0.006,0.985
2026/05/14 10:31:09.305,0.037,-0.001,0.98
2026/05/14 10:31:09.324,0.033,-0.005,0.983
