Timestamp,ACC X,ACC Y,ACC Z
2026/05/14 10:29:51.272,-0.038,0.022,0.97
2026/05/14 10:29:51.292,-0.045,0.021,0.969
2026/05/14 10:29:51.311,-0.04,0.019,0.971
2026/05/14 10:29:51.330,-0.042,0.018,0.967
2026/05/14 10:29:51.349,-0.043,0.017,0.97
2026/05/14 10:29:51.369,-0.037,0.017,0.972
2026/05/14 10:29:51.388,-0.043,0.016,0.972
2026/05/14 10:29:51.407,-0.042,0.019,0.968
2026/05/14 10:29:51.426,-0.04,0.016,0.967
2026/05/14 10:29:51.445,-0.046,0.019,0.973
2026/05/14 10:29:51.465,-0.043,0.019,0.972
2026/05/14 10:29:51.484,-0.042,0.022,0.971
2026/05/14 10:29:51.503,-0.042,0.018,0.972
2026/05/14 10:29:51.522,-0.041,0.018,0.97
2026/05/14 10:29:51.542,-0.043,0.022,0.971
2026/05/14 10:29:51.561,-0.042,0.021,0.97
2026/05/14 10:29:51.580,-0.044,0.018,0.968
2026/05/14 10:29:51.599,-0.044,0.018,0.969
2026/05/14 10:29:51.619,-0.04,0.022,0.97
2026/05/14 10:29:51.638,-0.045,0.018,0.972
2026/05/14 10:29:51.657,-0.039,0.02,0.97
2026/05/14 10:29:51.676,-0.041,0.017,0.968
2026/05/14 10:29:51.695,-0.039,0.015,0.968
2026/05/14 10:29:51.715,-0.046,0.02,0.971
2026/05/14 10:29:51.734,-0.042,0.024,0.967
2026/05/14 10:29:51.753,-0.044,0.023,0.97
2026/05/14 10:29:51.772,-0.04,0.02,0.966
2026/05/14 10:29:51.792,-0.044,0.02,0.971
2026/05/14 10:29:51.811,-0.041,0.021,0.964
2026/05/14 10:29:51.830,-0.047,0.018,0.971
2026/05/14 10:29:51.849,-0.044,0.022,0.967
2026/05/14 10:29:51.869,-0.043,0.018,0.972
2026/05/14 10:29:51.888,-0.043,0.023,0.968
2026/05/14 10:29:51.907,-0.041,0.021,0.966
2026/05/14 10:29:51.926,-0.042,0.022,0.972
2026/05/14 10:29:51.945,-0.045,0.021,0.967
2026/05/14 10:29:51.965,-0.037,0.018,0.967
2026/05/14 10:29:51.984,-0.043,0.02,0.976
2026/05/14 10:29:52.003,-0.041,0.017,0.971
2026/05/14 10:29:52.022,-0.044,0.018,0.97
2026/05/14 10:29:52.042,-0.044,0.022,0.967
2026/05/14 10:29:52.061,-0.041,0.021,0.964
2026/05/14 10:29:52.080,-0.045,0.017,0.975
2026/05/14 10:29:52.099,-0.046,0.022,0.968
2026/05/14 10:29:52.119,-0.043,0.02,0.969
2026/05/14 10:29:52.138,-0.04,0.017,0.966
2026/05/14 10:29:52.157,-0.041,0.017,0.969
2026/05/14 10:29:52.176,-0.044,0.018,0.97
2026/05/14 10:29:52.195,-0.043,0.02,0.97
2026/05/14 10:29:52.215,-0.041,0.017,0.975
2026/05/14 10:29:52.234,-0.041,0.02,0.962
2026/05/14 10:29:52.253,-0.046,0.018,0.972
2026/05/14 10:29:52.272,-0.041,0.016,0.97
2026/05/14 10:29:52.292,-0.041,0.017,0.967
2026/05/14 10:29:52.311,-0.04,0.021,0.971
2026/05/14 10:29:52.330,-0.041,0.019,0.971
2026/05/14 10:29:52.349,-0.04,0.018,0.97
2026/05/14 10:29:52.369,-0.043,0.02,0.969
2026/05/14 10:29:52.388,-0.043,0.017,0.973
2026/05/14 10:29:52.407,-0.042,0.025,0.97
2026/05/14 10:29:52.426,-0.046,0.02,0.969
2026/05/14 10:29:52.445,-0.045,0.023,0.97
2026/05/14 10:29:52.465,-0.043,0.024,0.972
2026/05/14 10:29:52.484,-0.041,0.021,0.972
2026/05/14 10:29:52.503,-0.045,0.018,0.972
2026/05/14 10:29:52.522,-0.042,0.018,0.971
2026/05/14 10:29:52.542,-0.044,0.017,0.972
2026/05/14 10:29:52.561,-0.042,0.02,0.969
2026/05/14 10:29:52.580,-0.042,0.018,0.97
2026/05/14 10:29:52.599,-0.042,0.018,0.971
2026/05/14 10:29:52.619,-0.045,0.018,0.968
2026/05/14 10:29:52.638,-0.042,0.022,0.97
2026/05/14 10:29:52.657,-0.044,0.022,0.966
2026/05/14 10:29:52.676,-0.044,0.02,0.968
2026/05/14 10:29:52.695,-0.045,0.018,0.968
2026/05/14 10:29:52.715,-0.043,0.02,0.969
2026/05/14 10:29:52.734,-0.042,0.022,0.974
2026/05/14 10:29:52.753,-0.036,0.02,0.97
2026/05/14 10:29:52.772,-0.04,0.021,0.97
2026/05/14 10:29:52.792,-0.041,0.018,0.971
2026/05/14 10:29:52.811,-0.043,0.018,0.972
2026/05/14 10:29:52.830,-0.044,0.02,0.966
2026/05/14 10:29:52.849,-0.043,0.022,0.969
2026/05/14 10:29:52.869,-0.042,0.02,0.97
2026/05/14 10:29:52.888,-0.041,0.02,0.971
2026/05/14 10:29:52.907,-0.043,0.022,0.969
2026/05/14 10:29:52.926,-0.043,0.019,0.972
2026/05/14 10:29:52.945,-0.041,0.02,0.97
2026/05/14 10:29:52.965,-0.043,0.022,0.966
2026/05/14 10:29:52.984,-0.042,0.019,0.971
2026/05/14 10:29:53.003,-0.04,0.019,0.97
2026/05/14 10:29:53.022,-0.043,0.021,0.97
2026/05/14 10:29:53.042,-0.043,0.015,0.973
2026/05/14 10:29:53.061,-0.044,0.021,0.966
2026/05/14 10:29:53.080,-0.042,0.019,0.974
2026/05/14 10:29:53.099,-0.043,0.017,0.966
2026/05/14 10:29:53.119,-0.043,0.019,0.97
2026/05/14 10:29:53.138,-0.038,0.016,0.969
2026/05/14 10:29:53.157,-0.043,0.024,0.971
2026/05/14 10:29:53.176,-0.041,0.016,0.969
2026/05/14 10:29:53.195,-0.043,0.022,0.974
2026/05/14 10:29:53.215,-0.042,0.019,0.969
2026/05/14 10:29:53.234,-0.038,0.023,0.972
2026/05/14 10:29:53.253,-0.041,0.021,0.972
2026/05/14 10:29:53.272,-0.042,0.019,0.971
2026/05/14 10:29:53.292,-0.04,0.017,0.973
2026/05/14 10:29:53.311,-0.044,0.018,0.969
2026/05/14 10:29:53.330,-0.043,0.021,0.969
2026/05/14 10:29:53.349,-0.045,0.02,0.967
2026/05/14 10:29:53.369,-0.047,0.018,0.97
2026/05/14 10:29:53.388,-0.039,0.018,0.973
2026/05/14 10:29:53.407,-0.042,0.02,0.97
2026/05/14 10:29:53.426,-0.044,0.014,0.966
2026/05/14 10:29:53.445,-0.042,0.018,0.969
2026/05/14 10:29:53.465,-0.043,0.02,0.971
2026/05/14 10:29:53.484,-0.042,0.021,0.966
2026/05/14 10:29:53.503,-0.043,0.023,0.973
2026/05/14 10:29:53.522,-0.044,0.019,0.973
2026/05/14 10:29:53.542,-0.043,0.021,0.965
2026/05/14 10:29:53.561,-0.046,0.018,0.97
2026/05/14 10:29:53.580,-0.042,0.017,0.969
2026/05/14 10:29:53.599,-0.041,0.018,0.966
2026/05/14 10:29:53.619,-0.043,0.017,0.967
2026/05/14 10:29:53.638,-0.044,0.019,0.97
2026/05/14 10:29:53.657,-0.045,0.022,0.969
2026/05/14 10:29:53.676,-0.045,0.022,0.969
2026/05/14 10:29:53.695,-0.043,0.017,0.968
2026/05/14 10:29:53.715,-0.041,0.017,0.968
2026/05/14 10:29:53.734,-0.044,0.019,0.969
2026/05/14 10:29:53.753,-0.043,0.02,0.972
2026/05/14 10:29:53.772,-0.04,0.019,0.974
2026/05/14 10:29:53.792,-0.043,0.017,0.968
2026/05/14 10:29:53.811,-0.04,0.018,0.964
2026/05/14 10:29:53.830,-0.04,0.021,0.97
2026/05/14 10:29:53.849,-0.039,0.019,0.969
2026/05/14 10:29:53.869,-0.043,0.018,0.974
2026/05/14 10:29:53.888,-0.043,0.019,0.97
2026/05/14 10:29:53.907,-0.044,0.019,0.968
2026/05/14 10:29:53.926,-0.04,0.02,0.967
2026/05/14 10:29:53.945,-0.044,0.025,0.97
2026/05/14 10:29:53.965,-0.044,0.019,0.97
2026/05/14 10:29:53.984,-0.041,0.017,0.968
2026/05/14 10:29:54.003,-0.042,0.018,0.974
2026/05/14 10:29:54.023,-0.044,0.021,0.975
2026/05/14 10:29:54.042,-0.042,0.023,0.966
2026/05/14 10:29:54.061,-0.036,0.018,0.972
2026/05/14 10:29:54.081,-0.044,0.024,0.973
2026/05/14 10:29:54.100,-0.042,0.022,0.971
2026/05/14 10:29:54.119,-0.04,0.018,0.967
2026/05/14 10:29:54.139,-0.045,0.019,0.973
2026/05/14 10:29:54.158,-0.038,0.024,0.967
2026/05/14 10:29:54.177,-0.044,0.02,0.97
2026/05/14 10:29:54.197,-0.045,0.022,0.975
2026/05/14 10:29:54.216,-0.041,0.021,0.969
2026/05/14 10:29:54.235,-0.043,0.018,0.964
2026/05/14 10:29:54.255,-0.041,0.018,0.97
2026/05/14 10:29:54.274,-0.041,0.02,0.971
2026/05/14 10:29:54.293,-0.045,0.018,0.972
2026/05/14 10:29:54.313,-0.042,0.018,0.969
2026/05/14 10:29:54.332,-0.045,0.021,0.972
2026/05/14 10:29:54.351,-0.044,0.019,0.972
2026/05/14 10:29:54.370,-0.043,0.021,0.97
2026/05/14 10:29:54.390,-0.043,0.018,0.97
2026/05/14 10:29:54.409,-0.044,0.016,0.968
2026/05/14 10:29:54.428,-0.04,0.019,0.967
2026/05/14 10:29:54.448,-0.038,0.02,0.969
2026/05/14 10:29:54.467,-0.039,0.018,0.969
2026/05/14 10:29:54.486,-0.041,0.019,0.971
2026/05/14 10:29:54.506,-0.044,0.018,0.972
2026/05/14 10:29:54.525,-0.041,0.019,0.971
2026/05/14 10:29:54.544,-0.047,0.023,0.97
2026/05/14 10:29:54.564,-0.041,0.023,0.968
2026/05/14 10:29:54.583,-0.046,0.02,0.969
2026/05/14 10:29:54.602,-0.044,0.022,0.97
2026/05/14 10:29:54.622,-0.041,0.022,0.965
2026/05/14 10:29:54.641,-0.042,0.018,0.964
2026/05/14 10:29:54.660,-0.047,0.022,0.969
2026/05/14 10:29:54.680,-0.041,0.019,0.971
2026/05/14 10:29:54.699,-0.041,0.017,0.966
2026/05/14 10:29:54.718,-0.039,0.018,0.966
2026/05/14 10:29:54.738,-0.041,0.022,0.968
2026/05/14 10:29:54.757,-0.044,0.021,0.97
2026/05/14 10:29:54.776,-0.041,0.021,0.97
2026/05/14 10:29:54.796,-0.047,0.021,0.97
2026/05/14 10:29:54.815,-0.045,0.02,0.974
2026/05/14 10:29:54.834,-0.043,0.018,0.97
2026/05/14 10:29:54.853,-0.043,0.018,0.966
2026/05/14 10:29:54.873,-0.045,0.016,0.967
2026/05/14 10:29:54.892,-0.04,0.017,0.967
2026/05/14 10:29:54.911,-0.043,0.021,0.971
2026/05/14 10:29:54.931,-0.043,0.023,0.97
2026/05/14 10:29:54.950,-0.041,0.02,0.971
2026/05/14 10:29:54.969,-0.045,0.018,0.97
2026/05/14 10:29:54.989,-0.042,0.02,0.966
2026/05/14 10:29:55.008,-0.041,0.025,0.971
2026/05/14 10:29:55.027,-0.043,0.021,0.966
2026/05/14 10:29:55.047,-0.043,0.018,0.966
2026/05/14 10:29:55.066,-0.042,0.019,0.973
2026/05/14 10:29:55.085,-0.041,0.019,0.969
2026/05/14 10:29:55.105,-0.041,0.019,0.97
2026/05/14 10:29:55.124,-0.044,0.02,0.971
2026/05/14 10:29:55.143,-0.043,0.022,0.968
2026/05/14 10:29:55.163,-0.042,0.019,0.971
2026/05/14 10:29:55.182,-0.041,0.017,0.967
2026/05/14 10:29:55.201,-0.045,0.022,0.97
2026/05/14 10:29:55.221,-0.039,0.02,0.969
2026/05/14 10:29:55.240,-0.041,0.022,0.969
2026/05/14 10:29:55.259,-0.043,0.022,0.972
2026/05/14 10:29:55.278,-0.042,0.019,0.97
2026/05/14 10:29:55.298,-0.042,0.022,0.97
2026/05/14 10:29:55.317,-0.046,0.021,0.968
2026/05/14 10:29:55.336,-0.041,0.019,0.972
2026/05/14 10:29:55.356,-0.039,0.018,0.967
2026/05/14 10:29:55.375,-0.044,0.02,0.971
2026/05/14 10:29:55.394,-0.044,0.019,0.968
2026/05/14 10:29:55.414,-0.045,0.019,0.969
2026/05/14 10:29:55.433,-0.041,0.024,0.968
2026/05/14 10:29:55.452,-0.043,0.019,0.966
2026/05/14 10:29:55.472,-0.043,0.019,0.973
2026/05/14 10:29:55.491,-0.044,0.02,0.975
2026/05/14 10:29:55.510,-0.043,0.021,0.966
2026/05/14 10:29:55.530,-0.043,0.018,0.971
2026/05/14 10:29:55.549,-0.044,0.018,0.97
2026/05/14 10:29:55.568,-0.044,0.016,0.967
2026/05/14 10:29:55.588,-0.044,0.024,0.974
2026/05/14 10:29:55.607,-0.041,0.019,0.968
2026/05/14 10:29:55.626,-0.04,0.021,0.971
2026/05/14 10:29:55.646,-0.03,-0.009,1.011
2026/05/14 10:29:55.665,-0.046,0.021,0.972
2026/05/14 10:29:55.684,-0.061,-0.019,1.071
2026/05/14 10:29:55.704,-0.145,0.288,1.006
2026/05/14 10:29:55.723,-0.052,-0.076,1.091
2026/05/14 10:29:55.742,-0.039,0.102,0.863
2026/05/14 10:29:55.761,-0.047,0.103,0.89
2026/05/14 10:29:55.781,-0.011,0.022,1.01
2026/05/14 10:29:55.800,-0.076,0.022,0.951
2026/05/14 10:29:55.819,-0.062,0.015,0.973
2026/05/14 10:29:55.839,-0.056,0.013,0.964
2026/05/14 10:29:55.858,-0.044,0.009,0.98
2026/05/14 10:29:55.877,-0.022,0.007,0.979
2026/05/14 10:29:55.897,-0.016,0.004,0.958
2026/05/14 10:29:55.916,-0.01,0.011,0.965
2026/05/14 10:29:55.935,-0.029,0.015,0.972
2026/05/14 10:29:55.955,-0.045,0.025,0.971
2026/05/14 10:29:55.974,-0.047,0.02,0.973
2026/05/14 10:29:55.993,-0.048,0.018,0.962
2026/05/14 10:29:56.013,-0.045,0.015,0.966
2026/05/14 10:29:56.032,-0.045,0.018,0.979
2026/05/14 10:29:56.051,-0.053,0.028,0.968
2026/05/14 10:29:56.071,-0.055,0.038,0.976
2026/05/14 10:29:56.090,-0.049,0.038,0.965
2026/05/14 10:29:56.109,-0.043,0.034,0.966
2026/05/14 10:29:56.129,-0.04,0.025,0.977
2026/05/14 10:29:56.148,-0.037,0.013,0.965
2026/05/14 10:29:56.167,-0.032,0.007,0.971
2026/05/14 10:29:56.187,-0.041,0.002,0.969
2026/05/14 10:29:56.206,-0.046,0.006,0.968
2026/05/14 10:29:56.225,-0.038,0.009,0.972
2026/05/14 10:29:56.244,-0.03,0.015,0.967
2026/05/14 10:29:56.264,-0.03,0.017,0.968
2026/05/14 10:29:56.283,-0.033,0.02,0.963
2026/05/14 10:29:56.302,-0.037,0.024,0.965
2026/05/14 10:29:56.322,-0.049,0.024,0.972
2026/05/14 10:29:56.341,-0.054,0.03,0.971
2026/05/14 10:29:56.360,-0.054,0.023,0.971
2026/05/14 10:29:56.380,-0.05,0.023,0.97
2026/05/14 10:29:56.399,-0.046,0.019,0.97
2026/05/14 10:29:56.418,-0.044,0.028,0.972
2026/05/14 10:29:56.438,-0.044,0.023,0.967
2026/05/14 10:29:56.457,-0.043,0.028,0.971
2026/05/14 10:29:56.476,-0.036,0.023,0.971
2026/05/14 10:29:56.496,-0.039,0.011,0.969
2026/05/14 10:29:56.515,-0.038,0.008,0.968
2026/05/14 10:29:56.534,-0.034,0.007,0.975
2026/05/14 10:29:56.554,-0.036,0.009,0.971
2026/05/14 10:29:56.573,-0.042,0.015,0.967
2026/05/14 10:29:56.592,-0.042,0.014,0.972
2026/05/14 10:29:56.612,-0.046,0.022,0.967
2026/05/14 10:29:56.631,-0.042,0.024,0.971
2026/05/14 10:29:56.650,-0.041,0.024,0.966
2026/05/14 10:29:56.670,-0.047,0.028,0.972
2026/05/14 10:29:56.689,-0.047,0.027,0.971
2026/05/14 10:29:56.708,-0.054,0.029,0.974
2026/05/14 10:29:56.727,-0.053,0.024,0.974
2026/05/14 10:29:56.747,-0.046,0.018,0.972
2026/05/14 10:29:56.766,-0.045,0.016,0.971
2026/05/14 10:29:56.785,-0.041,0.017,0.97
2026/05/14 10:29:56.805,-0.037,0.02,0.97
2026/05/14 10:29:56.824,-0.038,0.018,0.971
2026/05/14 10:29:56.843,-0.034,0.018,0.969
2026/05/14 10:29:56.863,-0.036,0.013,0.97
2026/05/14 10:29:56.882,-0.041,0.01,0.967
2026/05/14 10:29:56.901,-0.036,0.014,0.97
2026/05/14 10:29:56.921,-0.044,0.02,0.973
2026/05/14 10:29:56.940,-0.044,0.018,0.971
2026/05/14 10:29:56.959,-0.05,0.027,0.966
2026/05/14 10:29:56.979,-0.044,0.021,0.972
2026/05/14 10:29:56.998,-0.04,0.025,0.966
2026/05/14 10:29:57.017,-0.047,0.025,0.972
2026/05/14 10:29:57.037,-0.045,0.024,0.971
2026/05/14 10:29:57.056,-0.045,0.023,0.974
2026/05/14 10:29:57.075,-0.041,0.02,0.968
2026/05/14 10:29:57.095,-0.044,0.018,0.97
2026/05/14 10:29:57.114,-0.042,0.021,0.97
2026/05/14 10:29:57.133,-0.04,0.018,0.97
2026/05/14 10:29:57.153,-0.041,0.014,0.967
2026/05/14 10:29:57.172,-0.036,0.016,0.971
2026/05/14 10:29:57.191,-0.04,0.015,0.967
2026/05/14 10:29:57.210,-0.037,0.02,0.967
2026/05/14 10:29:57.230,-0.044,0.017,0.971
2026/05/14 10:29:57.249,-0.043,0.018,0.968
2026/05/14 10:29:57.268,-0.045,0.024,0.969
2026/05/14 10:29:57.288,-0.046,0.02,0.969
2026/05/14 10:29:57.307,-0.046,0.02,0.968
2026/05/14 10:29:57.326,-0.047,0.025,0.967
2026/05/14 10:29:57.346,-0.046,0.026,0.971
2026/05/14 10:29:57.365,-0.046,0.021,0.967
2026/05/14 10:29:57.384,-0.044,0.023,0.969
2026/05/14 10:29:57.404,-0.039,0.02,0.973
2026/05/14 10:29:57.423,-0.045,0.016,0.972
2026/05/14 10:29:57.442,-0.04,0.014,0.972
2026/05/14 10:29:57.462,-0.038,0.015,0.971
2026/05/14 10:29:57.481,-0.037,0.018,0.966
2026/05/14 10:29:57.500,-0.036,0.018,0.968
2026/05/14 10:29:57.520,-0.037,0.015,0.97
2026/05/14 10:29:57.539,-0.039,0.018,0.969
2026/05/14 10:29:57.558,-0.038,0.018,0.969
2026/05/14 10:29:57.578,-0.045,0.022,0.97
2026/05/14 10:29:57.597,-0.037,0.026,0.969
2026/05/14 10:29:57.616,-0.047,0.019,0.964
2026/05/14 10:29:57.636,-0.045,0.023,0.972
2026/05/14 10:29:57.655,-0.045,0.024,0.967
2026/05/14 10:29:57.674,-0.048,0.024,0.967
2026/05/14 10:29:57.693,-0.041,0.02,0.971
2026/05/14 10:29:57.713,-0.04,0.022,0.966
2026/05/14 10:29:57.732,-0.043,0.021,0.969
2026/05/14 10:29:57.751,-0.042,0.02,0.967
2026/05/14 10:29:57.771,-0.038,0.018,0.966
2026/05/14 10:29:57.790,-0.039,0.014,0.97
2026/05/14 10:29:57.809,-0.038,0.014,0.971
2026/05/14 10:29:57.829,-0.04,0.015,0.97
2026/05/14 10:29:57.848,-0.04,0.018,0.967
2026/05/14 10:29:57.867,-0.04,0.022,0.972
2026/05/14 10:29:57.887,-0.043,0.018,0.967
2026/05/14 10:29:57.906,-0.042,0.022,0.971
2026/05/14 10:29:57.925,-0.044,0.019,0.968
2026/05/14 10:29:57.945,-0.043,0.023,0.97
2026/05/14 10:29:57.964,-0.046,0.021,0.97
2026/05/14 10:29:57.983,-0.045,0.018,0.971
2026/05/14 10:29:58.003,-0.043,0.019,0.968
2026/05/14 10:29:58.022,-0.036,0.024,0.943
2026/05/14 10:29:58.041,-0.042,0.02,0.966
2026/05/14 10:29:58.061,-0.037,0.026,0.935
2026/05/14 10:29:58.080,-0.021,0.018,0.961
2026/05/14 10:29:58.099,-0.022,0.015,0.977
2026/05/14 10:29:58.119,-0.071,0.005,0.982
2026/05/14 10:29:58.138,-0.044,0.012,0.967
2026/05/14 10:29:58.157,-0.053,0.015,0.969
2026/05/14 10:29:58.176,-0.066,0.017,0.981
2026/05/14 10:29:58.196,-0.036,0.031,0.942
2026/05/14 10:29:58.215,-0.04,0.034,1.006
2026/05/14 10:29:58.234,-0.047,0.029,0.973
2026/05/14 10:29:58.254,-0.031,0.034,0.958
2026/05/14 10:29:58.273,-0.033,0.03,0.979
2026/05/14 10:29:58.292,-0.052,0.022,0.967
2026/05/14 10:29:58.312,-0.053,0.014,0.973
2026/05/14 10:29:58.331,-0.049,0.007,0.982
2026/05/14 10:29:58.350,-0.055,0.002,0.97
2026/05/14 10:29:58.370,-0.045,0.008,0.976
2026/05/14 10:29:58.389,-0.036,0.009,0.967
2026/05/14 10:29:58.408,-0.022,0.029,0.954
2026/05/14 10:29:58.428,-0.026,0.036,0.984
2026/05/14 10:29:58.447,-0.026,0.032,0.949
2026/05/14 10:29:58.466,-0.034,0.019,0.972
2026/05/14 10:29:58.486,-0.05,0.008,1.004
2026/05/14 10:29:58.505,-0.066,0.002,0.982
2026/05/14 10:29:58.524,-0.047,0.013,0.956
2026/05/14 10:29:58.544,-0.05,0.019,0.985
2026/05/14 10:29:58.563,-0.054,0.021,0.972
2026/05/14 10:29:58.582,-0.033,0.034,0.967
2026/05/14 10:29:58.602,-0.032,0.033,0.972
2026/05/14 10:29:58.621,-0.062,0.028,1.027
2026/05/14 10:29:58.640,-0.047,0.018,0.98
2026/05/14 10:29:58.660,-0.061,0.017,1.005
2026/05/14 10:29:58.679,-0.056,0.006,1.002
2026/05/14 10:29:58.698,-0.055,0.008,0.974
2026/05/14 10:29:58.717,-0.035,0.011,0.98
2026/05/14 10:29:58.737,-0.031,0.009,0.971
2026/05/14 10:29:58.756,-0.032,0.016,0.962
2026/05/14 10:29:58.775,-0.025,0.024,0.961
2026/05/14 10:29:58.795,-0.034,0.028,0.97
2026/05/14 10:29:58.814,-0.045,0.027,0.968
2026/05/14 10:29:58.833,-0.046,0.019,0.963
2026/05/14 10:29:58.853,-0.043,0.018,0.972
2026/05/14 10:29:58.872,-0.051,0.016,0.974
2026/05/14 10:29:58.891,-0.053,0.02,0.97
2026/05/14 10:29:58.911,-0.05,0.025,0.975
2026/05/14 10:29:58.930,-0.043,0.029,0.971
2026/05/14 10:29:58.949,-0.044,0.032,0.962
2026/05/14 10:29:58.969,-0.034,0.021,0.968
2026/05/14 10:29:58.988,-0.03,0.018,0.964
2026/05/14 10:29:59.007,-0.039,0.016,0.969
2026/05/14 10:29:59.027,-0.04,0.014,0.962
2026/05/14 10:29:59.046,-0.043,0.011,0.984
2026/05/14 10:29:59.065,-0.027,0.011,0.932
2026/05/14 10:29:59.085,-0.03,0.013,0.955
2026/05/14 10:29:59.104,-0.032,0.019,0.962
2026/05/14 10:29:59.123,-0.032,0.021,0.961
2026/05/14 10:29:59.143,-0.045,0.028,0.964
2026/05/14 10:29:59.162,-0.052,0.021,1.005
2026/05/14 10:29:59.181,-0.04,0.014,0.957
2026/05/14 10:29:59.200,-0.058,0.026,0.952
2026/05/14 10:29:59.220,-0.057,0.018,0.991
2026/05/14 10:29:59.239,-0.057,0.019,1.021
2026/05/14 10:29:59.258,-0.048,0.017,0.966
2026/05/14 10:29:59.278,-0.051,0.026,0.995
2026/05/14 10:29:59.297,-0.032,0.023,0.975
2026/05/14 10:29:59.316,-0.046,0.026,0.977
2026/05/14 10:29:59.336,-0.036,0.016,0.962
2026/05/14 10:29:59.355,-0.03,0.014,0.965
2026/05/14 10:29:59.374,-0.041,0.013,0.979
2026/05/14 10:29:59.394,-0.046,0.006,0.967
2026/05/14 10:29:59.413,-0.038,0.011,0.964
2026/05/14 10:29:59.432,-0.038,0.016,0.97
2026/05/14 10:29:59.452,-0.046,0.019,0.968
2026/05/14 10:29:59.471,-0.044,0.026,0.972
2026/05/14 10:29:59.490,-0.041,0.03,0.967
2026/05/14 10:29:59.510,-0.046,0.03,0.968
2026/05/14 10:29:59.529,-0.049,0.024,0.97
2026/05/14 10:29:59.548,-0.05,0.023,0.967
2026/05/14 10:29:59.568,-0.044,0.016,0.972
2026/05/14 10:29:59.587,-0.046,0.018,0.972
2026/05/14 10:29:59.606,-0.042,0.016,0.967
2026/05/14 10:29:59.626,-0.038,0.021,0.967
2026/05/14 10:29:59.645,-0.033,0.014,0.965
2026/05/14 10:29:59.664,-0.035,0.02,0.968
2026/05/14 10:29:59.683,-0.035,0.019,0.974
2026/05/14 10:29:59.703,-0.041,0.015,0.968
2026/05/14 10:29:59.722,-0.043,0.017,0.967
2026/05/14 10:29:59.741,-0.04,0.013,0.972
2026/05/14 10:29:59.761,-0.047,0.019,0.967
2026/05/14 10:29:59.780,-0.049,0.017,0.971
2026/05/14 10:29:59.799,-0.046,0.022,0.967
2026/05/14 10:29:59.819,-0.041,0.026,0.969
2026/05/14 10:29:59.838,-0.044,0.028,0.974
2026/05/14 10:29:59.857,-0.044,0.027,0.972
2026/05/14 10:29:59.877,-0.044,0.023,0.966
2026/05/14 10:29:59.896,-0.042,0.022,0.965
2026/05/14 10:29:59.915,-0.043,0.021,0.967
2026/05/14 10:29:59.935,-0.042,0.018,0.967
2026/05/14 10:29:59.954,-0.041,0.016,0.97
2026/05/14 10:29:59.973,-0.039,0.018,0.969
2026/05/14 10:29:59.993,-0.037,0.022,0.968
2026/05/14 10:30:00.012,-0.038,0.021,0.966
2026/05/14 10:30:00.031,-0.04,0.016,0.971
2026/05/14 10:30:00.051,-0.038,0.017,0.97
2026/05/14 10:30:00.070,-0.044,0.019,0.966
2026/05/14 10:30:00.089,-0.041,0.02,0.971
2026/05/14 10:30:00.109,-0.044,0.021,0.971
2026/05/14 10:30:00.128,-0.047,0.02,0.971
2026/05/14 10:30:00.147,-0.047,0.022,0.969
2026/05/14 10:30:00.166,-0.044,0.026,0.973
2026/05/14 10:30:00.186,-0.043,0.019,0.97
2026/05/14 10:30:00.205,-0.043,0.024,0.964
2026/05/14 10:30:00.224,-0.043,0.023,0.972
2026/05/14 10:30:00.244,-0.039,0.018,0.968
2026/05/14 10:30:00.263,-0.04,0.017,0.965
2026/05/14 10:30:00.282,-0.042,0.016,0.97
2026/05/14 10:30:00.302,-0.041,0.013,0.972
2026/05/14 10:30:00.321,-0.04,0.012,0.968
2026/05/14 10:30:00.340,-0.039,0.019,0.97
2026/05/14 10:30:00.360,-0.039,0.018,0.973
2026/05/14 10:30:00.379,-0.039,0.02,0.968
2026/05/14 10:30:00.398,-0.044,0.02,0.967
2026/05/14 10:30:00.418,-0.043,0.023,0.968
2026/05/14 10:30:00.437,-0.047,0.026,0.972
2026/05/14 10:30:00.456,-0.045,0.022,0.97
2026/05/14 10:30:00.476,-0.042,0.019,0.97
2026/05/14 10:30:00.495,-0.045,0.022,0.969
2026/05/14 10:30:00.514,-0.046,0.021,0.97
2026/05/14 10:30:00.534,-0.042,0.02,0.971
2026/05/14 10:30:00.553,-0.043,0.022,0.976
2026/05/14 10:30:00.572,-0.043,0.018,0.966
2026/05/14 10:30:00.592,-0.039,0.02,0.964
2026/05/14 10:30:00.611,-0.039,0.018,0.966
2026/05/14 10:30:00.630,-0.037,0.014,0.968
2026/05/14 10:30:00.649,-0.039,0.014,0.971
2026/05/14 10:30:00.669,-0.039,0.013,0.968
2026/05/14 10:30:00.688,-0.044,0.017,0.966
2026/05/14 10:30:00.707,-0.043,0.021,0.969
2026/05/14 10:30:00.727,-0.04,0.019,0.969
2026/05/14 10:30:00.746,-0.045,0.022,0.967
2026/05/14 10:30:00.765,-0.046,0.02,0.973
2026/05/14 10:30:00.785,-0.043,0.022,0.971
2026/05/14 10:30:00.804,-0.043,0.023,0.97
2026/05/14 10:30:00.823,-0.042,0.016,0.97
2026/05/14 10:30:00.843,-0.043,0.018,0.97
2026/05/14 10:30:00.862,-0.046,0.018,0.97
2026/05/14 10:30:00.881,-0.042,0.02,0.973
2026/05/14 10:30:00.901,-0.043,0.023,0.971
2026/05/14 10:30:00.920,-0.04,0.02,0.97
2026/05/14 10:30:00.939,-0.041,0.018,0.969
2026/05/14 10:30:00.959,-0.042,0.021,0.967
2026/05/14 10:30:00.978,-0.042,0.022,0.969
2026/05/14 10:30:00.997,-0.042,0.02,0.97
2026/05/14 10:30:01.017,-0.044,0.019,0.97
2026/05/14 10:30:01.036,-0.044,0.021,0.971
2026/05/14 10:30:01.055,-0.041,0.021,0.971
2026/05/14 10:30:01.075,-0.046,0.017,0.967
2026/05/14 10:30:01.094,-0.045,0.019,0.967
2026/05/14 10:30:01.113,-0.044,0.021,0.969
2026/05/14 10:30:01.132,-0.045,0.018,0.967
2026/05/14 10:30:01.152,-0.042,0.019,0.967
2026/05/14 10:30:01.171,-0.044,0.016,0.969
2026/05/14 10:30:01.190,-0.042,0.02,0.967
2026/05/14 10:30:01.210,-0.04,0.024,0.966
2026/05/14 10:30:01.229,-0.042,0.019,0.971
2026/05/14 10:30:01.248,-0.039,0.018,0.98
2026/05/14 10:30:01.268,-0.048,0.014,1.03
2026/05/14 10:30:01.287,-0.055,0.013,0.923
2026/05/14 10:30:01.306,-0.029,0.023,0.989
2026/05/14 10:30:01.326,-0.056,0.022,0.962
2026/05/14 10:30:01.345,-0.043,0.031,0.96
2026/05/14 10:30:01.364,-0.005,0.031,0.915
2026/05/14 10:30:01.384,-0.084,0.011,1.072
2026/05/14 10:30:01.403,-0.046,0.017,0.95
2026/05/14 10:30:01.422,-0.017,0.021,1.008
2026/05/14 10:30:01.442,-0.052,0.018,0.967
2026/05/14 10:30:01.461,-0.069,0.015,0.952
2026/05/14 10:30:01.480,-0.026,0.016,0.975
2026/05/14 10:30:01.500,-0.058,0.011,0.974
2026/05/14 10:30:01.519,-0.039,0.008,0.948
2026/05/14 10:30:01.538,-0.009,0.013,0.969
2026/05/14 10:30:01.558,-0.045,0.023,0.976
2026/05/14 10:30:01.577,-0.058,0.027,0.97
2026/05/14 10:30:01.596,-0.03,0.033,0.965
2026/05/14 10:30:01.615,-0.046,0.024,0.969
2026/05/14 10:30:01.635,-0.055,0.021,0.97
2026/05/14 10:30:01.654,-0.042,0.017,0.966
2026/05/14 10:30:01.673,-0.037,0.02,0.973
2026/05/14 10:30:01.693,-0.049,0.022,0.968
2026/05/14 10:30:01.712,-0.049,0.022,0.969
2026/05/14 10:30:01.731,-0.038,0.019,0.971
2026/05/14 10:30:01.751,-0.033,0.018,0.97
2026/05/14 10:30:01.770,-0.033,0.017,0.96
2026/05/14 10:30:01.789,-0.033,0.015,0.97
2026/05/14 10:30:01.809,-0.045,0.016,0.972
2026/05/14 10:30:01.828,-0.05,0.018,0.965
2026/05/14 10:30:01.847,-0.048,0.022,0.968
2026/05/14 10:30:01.867,-0.044,0.022,0.971
2026/05/14 10:30:01.886,-0.045,0.019,0.97
2026/05/14 10:30:01.905,-0.04,0.021,0.965
2026/05/14 10:30:01.925,-0.037,0.027,0.973
2026/05/14 10:30:01.944,-0.048,0.028,0.968
2026/05/14 10:30:01.963,-0.048,0.023,0.968
2026/05/14 10:30:01.983,-0.04,0.013,0.97
2026/05/14 10:30:02.002,-0.041,0.014,0.971
2026/05/14 10:30:02.021,-0.039,0.011,0.968
2026/05/14 10:30:02.040,-0.043,0.017,0.969
2026/05/14 10:30:02.060,-0.042,0.018,0.973
2026/05/14 10:30:02.079,-0.045,0.02,0.97
2026/05/14 10:30:02.098,-0.041,0.018,0.968
2026/05/14 10:30:02.118,-0.039,0.025,0.966
2026/05/14 10:30:02.137,-0.04,0.02,0.972
2026/05/14 10:30:02.156,-0.048,0.02,0.973
2026/05/14 10:30:02.176,-0.05,0.021,0.968
2026/05/14 10:30:02.195,-0.047,0.026,0.97
2026/05/14 10:30:02.214,-0.043,0.023,0.972
2026/05/14 10:30:02.234,-0.042,0.02,0.969
2026/05/14 10:30:02.253,-0.038,0.016,0.966
2026/05/14 10:30:02.272,-0.036,0.02,0.969
2026/05/14 10:30:02.292,-0.041,0.021,0.971
2026/05/14 10:30:02.311,-0.044,0.016,0.97
2026/05/14 10:30:02.330,-0.044,0.019,0.967
2026/05/14 10:30:02.350,-0.041,0.016,0.968
2026/05/14 10:30:02.369,-0.044,0.018,0.969
2026/05/14 10:30:02.388,-0.043,0.021,0.971
2026/05/14 10:30:02.408,-0.043,0.021,0.968
2026/05/14 10:30:02.427,-0.044,0.024,0.969
2026/05/14 10:30:02.446,-0.045,0.026,0.971
2026/05/14 10:30:02.466,-0.046,0.022,0.969
2026/05/14 10:30:02.485,-0.043,0.022,0.97
2026/05/14 10:30:02.504,-0.037,0.015,0.966
2026/05/14 10:30:02.523,-0.043,0.018,0.97
2026/05/14 10:30:02.543,-0.039,0.017,0.969
2026/05/14 10:30:02.562,-0.041,0.018,0.968
2026/05/14 10:30:02.581,-0.042,0.019,0.969
2026/05/14 10:30:02.601,-0.041,0.018,0.968
2026/05/14 10:30:02.620,-0.044,0.018,0.968
2026/05/14 10:30:02.639,-0.046,0.02,0.969
2026/05/14 10:30:02.659,-0.045,0.023,0.968
2026/05/14 10:30:02.678,-0.049,0.022,0.967
2026/05/14 10:30:02.697,-0.045,0.023,0.966
2026/05/14 10:30:02.717,-0.042,0.02,0.969
2026/05/14 10:30:02.736,-0.041,0.02,0.969
2026/05/14 10:30:02.755,-0.04,0.022,0.97
2026/05/14 10:30:02.775,-0.04,0.018,0.972
2026/05/14 10:30:02.794,-0.043,0.023,0.967
2026/05/14 10:30:02.813,-0.043,0.02,0.971
2026/05/14 10:30:02.833,-0.038,0.02,0.969
2026/05/14 10:30:02.852,-0.041,0.018,0.973
2026/05/14 10:30:02.871,-0.042,0.017,0.97
2026/05/14 10:30:02.891,-0.045,0.024,0.97
2026/05/14 10:30:02.910,-0.044,0.019,0.968
2026/05/14 10:30:02.929,-0.043,0.018,0.967
2026/05/14 10:30:02.949,-0.042,0.023,0.967
2026/05/14 10:30:02.968,-0.043,0.023,0.967
2026/05/14 10:30:02.987,-0.039,0.023,0.969
2026/05/14 10:30:03.006,-0.044,0.016,0.964
2026/05/14 10:30:03.026,-0.04,0.016,0.97
2026/05/14 10:30:03.045,-0.043,0.02,0.97
2026/05/14 10:30:03.064,-0.043,0.016,0.971
2026/05/14 10:30:03.084,-0.043,0.022,0.973
2026/05/14 10:30:03.103,-0.037,0.02,0.968
2026/05/14 10:30:03.122,-0.042,0.019,0.971
2026/05/14 10:30:03.142,-0.044,0.021,0.965
2026/05/14 10:30:03.161,-0.045,0.02,0.973
2026/05/14 10:30:03.180,-0.044,0.024,0.969
2026/05/14 10:30:03.200,-0.043,0.021,0.971
2026/05/14 10:30:03.219,-0.045,0.021,0.967
2026/05/14 10:30:03.238,-0.045,0.02,0.974
2026/05/14 10:30:03.258,-0.04,0.02,0.969
2026/05/14 10:30:03.277,-0.04,0.022,0.971
2026/05/14 10:30:03.296,-0.042,0.017,0.966
2026/05/14 10:30:03.316,-0.043,0.02,0.969
2026/05/14 10:30:03.335,-0.043,0.016,0.969
2026/05/14 10:30:03.354,-0.044,0.018,0.969
2026/05/14 10:30:03.374,-0.042,0.021,0.974
2026/05/14 10:30:03.393,-0.039,0.022,0.968
2026/05/14 10:30:03.412,-0.045,0.023,0.972
2026/05/14 10:30:03.431,-0.045,0.021,0.968
2026/05/14 10:30:03.451,-0.045,0.026,0.971
2026/05/14 10:30:03.470,-0.042,0.023,0.969
2026/05/14 10:30:03.489,-0.042,0.019,0.971
2026/05/14 10:30:03.509,-0.042,0.016,0.969
2026/05/14 10:30:03.528,-0.046,0.016,0.97
2026/05/14 10:30:03.547,-0.04,0.017,0.968
2026/05/14 10:30:03.567,-0.04,0.019,0.967
2026/05/14 10:30:03.586,-0.042,0.018,0.966
2026/05/14 10:30:03.605,-0.042,0.016,0.967
2026/05/14 10:30:03.625,-0.042,0.02,0.968
2026/05/14 10:30:03.644,-0.047,0.022,0.969
2026/05/14 10:30:03.663,-0.043,0.023,0.967
2026/05/14 10:30:03.683,-0.042,0.024,0.968
2026/05/14 10:30:03.702,-0.042,0.021,0.969
2026/05/14 10:30:03.721,-0.038,0.021,0.969
2026/05/14 10:30:03.741,-0.042,0.016,0.965
2026/05/14 10:30:03.760,-0.044,0.021,0.967
2026/05/14 10:30:03.779,-0.044,0.018,0.969
2026/05/14 10:30:03.799,-0.043,0.017,0.969
2026/05/14 10:30:03.818,-0.042,0.018,0.968
2026/05/14 10:30:03.837,-0.047,0.019,0.972
2026/05/14 10:30:03.857,-0.093,0.039,1.113
2026/05/14 10:30:03.876,-0.021,0.026,0.892
2026/05/14 10:30:03.895,-0.057,0.003,0.995
2026/05/14 10:30:03.914,-0.04,0.018,0.984
2026/05/14 10:30:03.934,-0.036,0.018,0.937
2026/05/14 10:30:03.953,-0.057,0.012,1.001
2026/05/14 10:30:03.972,-0.049,0.016,0.971
2026/05/14 10:30:03.992,-0.042,0.022,0.958
2026/05/14 10:30:04.011,-0.034,0.018,0.967
2026/05/14 10:30:04.030,-0.037,0.019,0.951
2026/05/14 10:30:04.050,-0.044,0.023,0.984
2026/05/14 10:30:04.069,-0.044,0.016,0.967
2026/05/14 10:30:04.088,-0.042,0.017,0.979
2026/05/14 10:30:04.108,-0.049,0.013,0.993
2026/05/14 10:30:04.127,-0.039,0.02,0.957
2026/05/14 10:30:04.146,-0.039,0.016,0.952
2026/05/14 10:30:04.166,-0.043,0.016,0.946
2026/05/14 10:30:04.185,-0.036,0.02,0.962
2026/05/14 10:30:04.204,-0.031,0.019,0.978
2026/05/14 10:30:04.224,-0.035,0.026,0.935
2026/05/14 10:30:04.243,-0.07,0.024,1.012
2026/05/14 10:30:04.262,-0.058,0.027,1.007
2026/05/14 10:30:04.282,-0.044,0.028,0.974
2026/05/14 10:30:04.301,-0.033,0.027,0.978
2026/05/14 10:30:04.320,-0.037,0.025,0.938
2026/05/14 10:30:04.339,-0.044,0.017,0.962
2026/05/14 10:30:04.359,-0.04,0.014,0.966
2026/05/14 10:30:04.378,-0.043,0.017,0.984
2026/05/14 10:30:04.397,-0.055,0.012,0.972
2026/05/14 10:30:04.417,-0.049,0.016,0.963
2026/05/14 10:30:04.436,-0.044,0.016,0.963
2026/05/14 10:30:04.455,-0.043,0.019,0.965
2026/05/14 10:30:04.475,-0.035,0.023,0.952
2026/05/14 10:30:04.494,-0.01,0.029,0.973
2026/05/14 10:30:04.513,-0.022,0.029,0.968
2026/05/14 10:30:04.533,0.046,0.021,0.128
2026/05/14 10:30:04.552,-0.087,-0.09,1.491
2026/05/14 10:30:04.571,0.004,0.06,0.661
2026/05/14 10:30:04.591,-0.014,0.019,0.943
2026/05/14 10:30:04.610,-0.06,0.003,1.103
2026/05/14 10:30:04.629,-0.087,0.004,1.081
2026/05/14 10:30:04.649,-0.04,0.029,0.978
2026/05/14 10:30:04.668,-0.035,0.053,0.931
2026/05/14 10:30:04.687,-0.061,0.031,0.964
2026/05/14 10:30:04.707,-0.042,0.019,0.962
2026/05/14 10:30:04.726,-0.023,0.025,0.958
2026/05/14 10:30:04.745,-0.049,0.016,1.001
2026/05/14 10:30:04.765,-0.053,0.011,0.967
2026/05/14 10:30:04.784,-0.043,0.018,0.954
2026/05/14 10:30:04.803,-0.036,0.021,0.964
2026/05/14 10:30:04.822,-0.042,0.02,0.961
2026/05/14 10:30:04.842,-0.044,0.021,0.972
2026/05/14 10:30:04.861,-0.031,0.019,0.972
2026/05/14 10:30:04.880,-0.037,0.026,0.964
2026/05/14 10:30:04.900,-0.045,0.019,0.967
2026/05/14 10:30:04.919,-0.047,0.016,0.973
2026/05/14 10:30:04.938,-0.043,0.018,0.971
2026/05/14 10:30:04.958,-0.041,0.015,0.966
2026/05/14 10:30:04.977,-0.043,0.017,0.972
2026/05/14 10:30:04.996,-0.035,0.019,0.961
2026/05/14 10:30:05.016,-0.041,0.016,0.975
2026/05/14 10:30:05.035,-0.044,0.023,0.98
2026/05/14 10:30:05.054,-0.044,0.024,0.969
2026/05/14 10:30:05.074,-0.038,0.023,0.971
2026/05/14 10:30:05.093,-0.039,0.021,0.971
2026/05/14 10:30:05.112,-0.036,0.018,0.97
2026/05/14 10:30:05.132,-0.044,0.016,0.969
2026/05/14 10:30:05.151,-0.046,0.02,0.966
2026/05/14 10:30:05.170,-0.045,0.017,0.969
2026/05/14 10:30:05.190,-0.047,0.021,0.968
2026/05/14 10:30:05.209,-0.039,0.021,0.964
2026/05/14 10:30:05.228,-0.033,0.017,0.969
2026/05/14 10:30:05.248,-0.039,0.024,0.965
2026/05/14 10:30:05.267,-0.039,0.022,0.966
2026/05/14 10:30:05.286,-0.043,0.017,0.971
2026/05/14 10:30:05.305,-0.045,0.019,0.971
2026/05/14 10:30:05.325,-0.047,0.016,0.969
2026/05/14 10:30:05.344,-0.041,0.011,0.97
2026/05/14 10:30:05.363,-0.039,0.018,0.97
2026/05/14 10:30:05.383,-0.044,0.022,0.972
2026/05/14 10:30:05.402,-0.042,0.018,0.97
2026/05/14 10:30:05.421,-0.045,0.019,0.971
2026/05/14 10:30:05.441,-0.043,0.023,0.968
2026/05/14 10:30:05.460,-0.039,0.018,0.965
2026/05/14 10:30:05.479,-0.044,0.013,0.964
2026/05/14 10:30:05.499,-0.043,0.016,0.966
2026/05/14 10:30:05.518,-0.043,0.019,0.965
2026/05/14 10:30:05.537,-0.042,0.02,0.97
2026/05/14 10:30:05.557,-0.042,0.019,0.971
2026/05/14 10:30:05.576,-0.04,0.019,0.968
2026/05/14 10:30:05.595,-0.04,0.021,0.969
2026/05/14 10:30:05.615,-0.043,0.022,0.968
2026/05/14 10:30:05.634,-0.04,0.022,0.967
2026/05/14 10:30:05.653,-0.043,0.022,0.967
2026/05/14 10:30:05.673,-0.044,0.02,0.97
2026/05/14 10:30:05.692,-0.042,0.021,0.969
2026/05/14 10:30:05.711,-0.042,0.016,0.969
2026/05/14 10:30:05.731,-0.044,0.016,0.97
2026/05/14 10:30:05.750,-0.044,0.02,0.97
2026/05/14 10:30:05.769,-0.042,0.021,0.97
2026/05/14 10:30:05.789,-0.043,0.021,0.97
2026/05/14 10:30:05.808,-0.043,0.021,0.968
2026/05/14 10:30:05.827,-0.04,0.018,0.967
2026/05/14 10:30:05.846,-0.042,0.018,0.972
2026/05/14 10:30:05.866,-0.041,0.02,0.968
2026/05/14 10:30:05.885,-0.041,0.024,0.971
2026/05/14 10:30:05.904,-0.042,0.021,0.972
2026/05/14 10:30:05.924,-0.041,0.015,0.968
2026/05/14 10:30:05.943,-0.044,0.018,0.968
2026/05/14 10:30:05.962,-0.04,0.02,0.967
2026/05/14 10:30:05.982,-0.041,0.021,0.969
2026/05/14 10:30:06.001,-0.044,0.015,0.971
2026/05/14 10:30:06.020,-0.045,0.018,0.966
2026/05/14 10:30:06.040,-0.043,0.017,0.972
2026/05/14 10:30:06.059,-0.042,0.019,0.969
2026/05/14 10:30:06.078,-0.045,0.017,0.967
2026/05/14 10:30:06.098,-0.044,0.02,0.967
2026/05/14 10:30:06.117,-0.041,0.018,0.978
2026/05/14 10:30:06.136,-0.044,0.018,0.969
2026/05/14 10:30:06.156,-0.039,0.023,0.966
2026/05/14 10:30:06.175,-0.041,0.018,0.971
2026/05/14 10:30:06.194,-0.041,0.017,0.971
2026/05/14 10:30:06.214,-0.039,0.02,0.967
2026/05/14 10:30:06.233,-0.042,0.018,0.97
2026/05/14 10:30:06.252,-0.042,0.02,0.971
2026/05/14 10:30:06.272,-0.042,0.018,0.969
2026/05/14 10:30:06.291,-0.041,0.021,0.966
2026/05/14 10:30:06.310,-0.041,0.017,0.97
2026/05/14 10:30:06.329,-0.041,0.022,0.97
2026/05/14 10:30:06.349,-0.038,0.02,0.969
2026/05/14 10:30:06.368,-0.043,0.02,0.964
2026/05/14 10:30:06.387,-0.042,0.021,0.973
2026/05/14 10:30:06.407,-0.043,0.018,0.965
2026/05/14 10:30:06.426,-0.04,0.021,0.97
2026/05/14 10:30:06.445,-0.04,0.018,0.969
2026/05/14 10:30:06.465,-0.041,0.02,0.971
2026/05/14 10:30:06.484,-0.041,0.02,0.968
2026/05/14 10:30:06.503,-0.043,0.021,0.97
2026/05/14 10:30:06.523,-0.046,0.021,0.967
2026/05/14 10:30:06.542,-0.041,0.022,0.97
2026/05/14 10:30:06.561,-0.043,0.018,0.969
2026/05/14 10:30:06.581,-0.042,0.024,0.968
2026/05/14 10:30:06.600,-0.04,0.02,0.968
2026/05/14 10:30:06.619,-0.04,0.017,0.97
2026/05/14 10:30:06.639,-0.04,0.019,0.967
2026/05/14 10:30:06.658,-0.041,0.019,0.97
2026/05/14 10:30:06.677,-0.036,0.022,0.967
2026/05/14 10:30:06.697,-0.037,0.018,0.971
2026/05/14 10:30:06.716,-0.038,0.019,0.967
2026/05/14 10:30:06.735,-0.034,0.016,0.97
2026/05/14 10:30:06.755,-0.037,0.019,0.97
2026/05/14 10:30:06.774,-0.043,0.018,0.977
2026/05/14 10:30:06.793,-0.042,0.02,0.963
2026/05/14 10:30:06.813,-0.047,0.02,0.974
2026/05/14 10:30:06.832,-0.045,0.027,0.976
2026/05/14 10:30:06.851,-0.04,0.026,0.963
2026/05/14 10:30:06.870,-0.048,0.026,0.969
2026/05/14 10:30:06.890,-0.05,0.017,0.975
2026/05/14 10:30:06.909,-0.047,0.015,0.965
2026/05/14 10:30:06.928,-0.052,0.01,0.969
2026/05/14 10:30:06.948,-0.056,0.012,0.967
2026/05/14 10:30:06.967,-0.046,0.012,0.974
2026/05/14 10:30:06.986,-0.034,0.015,0.962
2026/05/14 10:30:07.006,-0.029,0.022,0.97
2026/05/14 10:30:07.025,-0.039,0.028,0.967
2026/05/14 10:30:07.044,-0.043,0.026,0.966
2026/05/14 10:30:07.064,-0.043,0.025,0.962
2026/05/14 10:30:07.083,-0.047,0.018,0.971
2026/05/14 10:30:07.102,-0.043,0.012,0.967
2026/05/14 10:30:07.122,-0.043,0.013,0.972
2026/05/14 10:30:07.141,-0.042,0.02,0.968
2026/05/14 10:30:07.160,-0.04,0.024,0.969
2026/05/14 10:30:07.180,-0.041,0.025,0.968
2026/05/14 10:30:07.199,-0.035,0.022,0.967
2026/05/14 10:30:07.218,-0.036,0.016,0.969
2026/05/14 10:30:07.238,-0.04,0.017,0.968
2026/05/14 10:30:07.257,-0.039,0.018,0.968
2026/05/14 10:30:07.276,-0.046,0.017,0.969
2026/05/14 10:30:07.296,-0.05,0.017,0.968
2026/05/14 10:30:07.315,-0.044,0.02,0.969
2026/05/14 10:30:07.334,-0.046,0.023,0.97
2026/05/14 10:30:07.354,-0.041,0.015,0.968
2026/05/14 10:30:07.373,-0.04,0.021,0.973
2026/05/14 10:30:07.392,-0.036,0.025,0.965
2026/05/14 10:30:07.411,-0.041,0.022,0.971
2026/05/14 10:30:07.431,-0.034,0.024,0.965
2026/05/14 10:30:07.450,-0.043,0.021,0.97
2026/05/14 10:30:07.469,-0.046,0.015,0.978
2026/05/14 10:30:07.489,-0.038,0.018,0.968
2026/05/14 10:30:07.508,-0.043,0.019,0.966
2026/05/14 10:30:07.527,-0.042,0.021,0.968
2026/05/14 10:30:07.547,-0.045,0.025,0.966
2026/05/14 10:30:07.566,-0.039,0.026,0.966
2026/05/14 10:30:07.585,-0.038,0.019,0.969
2026/05/14 10:30:07.605,-0.042,0.021,0.971
2026/05/14 10:30:07.624,-0.039,0.018,0.971
2026/05/14 10:30:07.643,-0.043,0.02,0.968
2026/05/14 10:30:07.663,-0.045,0.018,0.97
2026/05/14 10:30:07.682,-0.044,0.014,0.97
2026/05/14 10:30:07.701,-0.043,0.019,0.97
2026/05/14 10:30:07.721,-0.04,0.021,0.969
2026/05/14 10:30:07.740,-0.039,0.018,0.968
2026/05/14 10:30:07.759,-0.038,0.026,0.969
2026/05/14 10:30:07.779,-0.039,0.019,0.964
2026/05/14 10:30:07.798,-0.045,0.022,0.968
2026/05/14 10:30:07.817,-0.046,0.021,0.972
2026/05/14 10:30:07.837,-0.045,0.019,0.97
2026/05/14 10:30:07.856,-0.045,0.019,0.971
2026/05/14 10:30:07.875,-0.044,0.015,0.966
2026/05/14 10:30:07.894,-0.039,0.019,0.969
2026/05/14 10:30:07.914,-0.034,0.022,0.967
2026/05/14 10:30:07.933,-0.043,0.02,0.971
2026/05/14 10:30:07.952,-0.042,0.023,0.969
2026/05/14 10:30:07.972,-0.04,0.019,0.97
2026/05/14 10:30:07.991,-0.039,0.019,0.967
2026/05/14 10:30:08.010,-0.044,0.021,0.971
2026/05/14 10:30:08.030,-0.042,0.018,0.968
2026/05/14 10:30:08.049,-0.038,0.021,0.97
2026/05/14 10:30:08.068,-0.04,0.022,0.968
2026/05/14 10:30:08.088,-0.043,0.022,0.968
2026/05/14 10:30:08.107,-0.043,0.019,0.969
2026/05/14 10:30:08.126,-0.042,0.021,0.974
2026/05/14 10:30:08.146,-0.043,0.019,0.969
2026/05/14 10:30:08.165,-0.042,0.019,0.966
2026/05/14 10:30:08.184,-0.041,0.017,0.969
2026/05/14 10:30:08.204,-0.039,0.018,0.969
2026/05/14 10:30:08.223,-0.044,0.018,0.965
2026/05/14 10:30:08.242,-0.046,0.018,0.969
2026/05/14 10:30:08.262,-0.041,0.021,0.966
2026/05/14 10:30:08.281,-0.041,0.021,0.968
2026/05/14 10:30:08.300,-0.043,0.021,0.968
2026/05/14 10:30:08.320,-0.043,0.02,0.97
2026/05/14 10:30:08.339,-0.042,0.023,0.969
2026/05/14 10:30:08.358,-0.037,0.021,0.972
2026/05/14 10:30:08.378,-0.042,0.024,0.968
2026/05/14 10:30:08.397,-0.042,0.019,0.969
2026/05/14 10:30:08.416,-0.043,0.022,0.968
2026/05/14 10:30:08.435,-0.04,0.018,0.969
2026/05/14 10:30:08.455,-0.04,0.016,0.967
2026/05/14 10:30:08.474,-0.045,0.021,0.97
2026/05/14 10:30:08.493,-0.039,0.018,0.967
2026/05/14 10:30:08.513,-0.039,0.021,0.962
2026/05/14 10:30:08.532,-0.042,0.022,0.972
2026/05/14 10:30:08.551,-0.044,0.018,0.969
2026/05/14 10:30:08.571,-0.041,0.027,0.971
2026/05/14 10:30:08.590,-0.04,0.02,0.969
2026/05/14 10:30:08.609,-0.042,0.021,0.968
2026/05/14 10:30:08.629,-0.043,0.021,0.966
2026/05/14 10:30:08.648,-0.042,0.018,0.966
2026/05/14 10:30:08.667,-0.04,0.02,0.968
2026/05/14 10:30:08.687,-0.041,0.021,0.97
2026/05/14 10:30:08.706,-0.04,0.019,0.967
2026/05/14 10:30:08.725,-0.043,0.021,0.968
2026/05/14 10:30:08.745,-0.041,0.024,0.967
2026/05/14 10:30:08.764,-0.042,0.021,0.963
2026/05/14 10:30:08.783,-0.042,0.018,0.972
2026/05/14 10:30:08.803,-0.039,0.023,0.966
2026/05/14 10:30:08.822,-0.043,0.024,0.969
2026/05/14 10:30:08.841,-0.041,0.022,0.97
2026/05/14 10:30:08.861,-0.041,0.016,0.971
2026/05/14 10:30:08.880,-0.044,0.015,0.969
2026/05/14 10:30:08.899,-0.044,0.018,0.967
2026/05/14 10:30:08.918,-0.042,0.017,0.97
2026/05/14 10:30:08.938,-0.042,0.02,0.967
2026/05/14 10:30:08.957,-0.042,0.019,0.968
2026/05/14 10:30:08.976,-0.038,0.022,0.971
2026/05/14 10:30:08.996,-0.043,0.017,0.965
2026/05/14 10:30:09.015,-0.041,0.018,0.965
2026/05/14 10:30:09.034,-0.044,0.023,0.97
2026/05/14 10:30:09.054,-0.045,0.022,0.968
2026/05/14 10:30:09.073,-0.043,0.019,0.973
2026/05/14 10:30:09.092,-0.041,0.024,0.969
2026/05/14 10:30:09.112,-0.043,0.017,0.964
2026/05/14 10:30:09.131,-0.038,0.021,0.971
2026/05/14 10:30:09.150,-0.046,0.021,0.97
2026/05/14 10:30:09.170,-0.04,0.022,0.972
2026/05/14 10:30:09.189,-0.043,0.018,0.969
2026/05/14 10:30:09.208,-0.044,0.015,0.967
2026/05/14 10:30:09.228,-0.044,0.02,0.967
2026/05/14 10:30:09.247,-0.042,0.022,0.967
2026/05/14 10:30:09.266,-0.04,0.024,0.967
2026/05/14 10:30:09.286,-0.045,0.015,0.972
2026/05/14 10:30:09.305,-0.043,0.019,0.971
2026/05/14 10:30:09.324,-0.042,0.021,0.973
2026/05/14 10:30:09.344,-0.042,0.021,0.967
2026/05/14 10:30:09.363,-0.041,0.022,0.967
2026/05/14 10:30:09.382,-0.043,0.021,0.971
2026/05/14 10:30:09.402,-0.042,0.019,0.97
2026/05/14 10:30:09.421,-0.041,0.019,0.965
2026/05/14 10:30:09.440,-0.04,0.021,0.973
2026/05/14 10:30:09.459,-0.04,0.021,0.963
2026/05/14 10:30:09.479,-0.044,0.017,0.972
2026/05/14 10:30:09.498,-0.041,0.017,0.97
2026/05/14 10:30:09.517,-0.043,0.014,0.97
2026/05/14 10:30:09.537,-0.043,0.021,0.966
2026/05/14 10:30:09.556,-0.04,0.018,0.971
2026/05/14 10:30:09.575,-0.042,0.019,0.969
2026/05/14 10:30:09.595,-0.043,0.021,0.969
2026/05/14 10:30:09.614,-0.041,0.021,0.964
2026/05/14 10:30:09.633,-0.041,0.021,0.961
2026/05/14 10:30:09.653,-0.04,0.019,0.961
2026/05/14 10:30:09.672,-0.043,0.017,0.977
2026/05/14 10:30:09.691,-0.046,0.021,0.986
2026/05/14 10:30:09.711,-0.048,0.023,0.989
2026/05/14 10:30:09.730,-0.038,0.019,0.966
2026/05/14 10:30:09.749,-0.043,0.018,0.973
2026/05/14 10:30:09.769,-0.044,0.019,0.97
2026/05/14 10:30:09.788,-0.045,0.018,0.968
2026/05/14 10:30:09.807,-0.049,0.017,0.979
2026/05/14 10:30:09.827,-0.041,0.02,0.974
2026/05/14 10:30:09.846,-0.034,0.02,0.943
2026/05/14 10:30:09.865,-0.039,0.022,0.959
2026/05/14 10:30:09.885,-0.035,0.02,0.972
2026/05/14 10:30:09.904,-0.041,0.013,0.962
2026/05/14 10:30:09.923,-0.045,0.018,0.96
2026/05/14 10:30:09.943,-0.043,0.023,0.969
2026/05/14 10:30:09.962,-0.04,0.021,0.968
2026/05/14 10:30:09.981,-0.045,0.022,0.973
2026/05/14 10:30:10.001,-0.044,0.018,0.962
2026/05/14 10:30:10.020,-0.047,0.021,0.979
2026/05/14 10:30:10.039,-0.039,0.02,0.966
2026/05/14 10:30:10.058,-0.037,0.021,0.971
2026/05/14 10:30:10.078,-0.041,0.02,0.968
2026/05/14 10:30:10.097,-0.038,0.02,0.961
2026/05/14 10:30:10.116,-0.038,0.019,0.96
2026/05/14 10:30:10.136,-0.039,0.018,0.968
2026/05/14 10:30:10.155,-0.04,0.019,0.972
2026/05/14 10:30:10.174,-0.046,0.021,0.976
2026/05/14 10:30:10.194,-0.036,0.02,0.962
2026/05/14 10:30:10.213,-0.04,0.018,0.952
2026/05/14 10:30:10.232,-0.052,0.017,0.983
2026/05/14 10:30:10.252,-0.041,0.025,0.962
2026/05/14 10:30:10.271,-0.041,0.018,0.96
2026/05/14 10:30:10.290,-0.044,0.017,0.968
2026/05/14 10:30:10.310,-0.043,0.022,0.97
2026/05/14 10:30:10.329,-0.041,0.017,0.968
2026/05/14 10:30:10.348,-0.046,0.018,0.972
2026/05/14 10:30:10.368,-0.036,0.021,0.958
2026/05/14 10:30:10.387,-0.039,0.02,0.964
2026/05/14 10:30:10.406,-0.046,0.022,0.973
2026/05/14 10:30:10.426,-0.043,0.021,0.972
2026/05/14 10:30:10.445,-0.044,0.019,0.98
2026/05/14 10:30:10.464,-0.043,0.017,0.972
2026/05/14 10:30:10.484,-0.04,0.018,0.972
2026/05/14 10:30:10.503,-0.041,0.022,0.973
2026/05/14 10:30:10.522,-0.041,0.021,0.97
2026/05/14 10:30:10.542,-0.041,0.021,0.963
2026/05/14 10:30:10.561,-0.04,0.018,0.964
2026/05/14 10:30:10.580,-0.042,0.019,0.969
2026/05/14 10:30:10.600,-0.045,0.022,0.972
2026/05/14 10:30:10.619,-0.043,0.019,0.968
2026/05/14 10:30:10.638,-0.041,0.019,0.971
2026/05/14 10:30:10.657,-0.042,0.022,0.966
2026/05/14 10:30:10.677,-0.04,0.019,0.968
2026/05/14 10:30:10.696,-0.041,0.022,0.968
2026/05/14 10:30:10.715,-0.043,0.017,0.969
2026/05/14 10:30:10.735,-0.042,0.018,0.973
2026/05/14 10:30:10.754,-0.04,0.019,0.97
2026/05/14 10:30:10.773,-0.04,0.021,0.97
2026/05/14 10:30:10.793,-0.042,0.017,0.966
2026/05/14 10:30:10.812,-0.038,0.017,0.973
2026/05/14 10:30:10.831,-0.043,0.022,0.97
2026/05/14 10:30:10.851,-0.044,0.015,0.969
2026/05/14 10:30:10.870,-0.038,0.019,0.972
2026/05/14 10:30:10.889,-0.04,0.021,0.97
2026/05/14 10:30:10.909,-0.043,0.021,0.966
2026/05/14 10:30:10.928,-0.041,0.021,0.971
2026/05/14 10:30:10.947,-0.044,0.018,0.968
2026/05/14 10:30:10.967,-0.039,0.02,0.969
2026/05/14 10:30:10.986,-0.043,0.02,0.97
2026/05/14 10:30:11.005,-0.041,0.02,0.968
2026/05/14 10:30:11.025,-0.044,0.017,0.971
2026/05/14 10:30:11.044,-0.043,0.018,0.972
2026/05/14 10:30:11.063,-0.041,0.018,0.969
2026/05/14 10:30:11.083,-0.044,0.018,0.971
2026/05/14 10:30:11.102,-0.044,0.021,0.971
2026/05/14 10:30:11.121,-0.039,0.02,0.968
2026/05/14 10:30:11.141,-0.04,0.021,0.969
2026/05/14 10:30:11.160,-0.041,0.02,0.969
2026/05/14 10:30:11.179,-0.045,0.022,0.969
2026/05/14 10:30:11.198,-0.041,0.018,0.972
2026/05/14 10:30:11.218,-0.04,0.018,0.969
2026/05/14 10:30:11.237,-0.043,0.019,0.971
2026/05/14 10:30:11.256,-0.045,0.021,0.971
2026/05/14 10:30:11.276,-0.043,0.024,0.97
2026/05/14 10:30:11.295,-0.042,0.018,0.97
2026/05/14 10:30:11.314,-0.041,0.017,0.97
2026/05/14 10:30:11.334,-0.041,0.023,0.968
2026/05/14 10:30:11.353,-0.043,0.019,0.969
2026/05/14 10:30:11.372,-0.04,0.023,0.97
2026/05/14 10:30:11.392,-0.044,0.019,0.968
2026/05/14 10:30:11.411,-0.042,0.02,0.97
2026/05/14 10:30:11.430,-0.042,0.02,0.969
2026/05/14 10:30:11.450,-0.039,0.019,0.969
2026/05/14 10:30:11.469,-0.041,0.017,0.968
2026/05/14 10:30:11.488,-0.04,0.017,0.971
2026/05/14 10:30:11.508,-0.043,0.021,0.97
2026/05/14 10:30:11.527,-0.042,0.02,0.965
2026/05/14 10:30:11.546,-0.043,0.023,0.968
2026/05/14 10:30:11.566,-0.041,0.021,0.971
2026/05/14 10:30:11.585,-0.039,0.024,0.97
2026/05/14 10:30:11.604,-0.036,0.021,0.956
2026/05/14 10:30:11.624,-0.044,0.019,0.959
2026/05/14 10:30:11.643,-0.043,0.017,0.971
2026/05/14 10:30:11.662,-0.045,0.021,0.968
2026/05/14 10:30:11.682,-0.05,0.022,0.975
2026/05/14 10:30:11.701,-0.036,0.002,0.916
2026/05/14 10:30:11.720,-0.12,0.209,1.022
2026/05/14 10:30:11.740,-0.049,0.024,1.193
2026/05/14 10:30:11.759,-0.042,-0.105,1.237
2026/05/14 10:30:11.778,-0.067,0.071,0.947
2026/05/14 10:30:11.797,-0.046,-0.001,1.058
2026/05/14 10:30:11.817,-0.054,-0.047,1.031
2026/05/14 10:30:11.836,-0.015,0.022,0.963
2026/05/14 10:30:11.855,-0.054,0.007,0.99
2026/05/14 10:30:11.875,-0.054,0.022,0.971
2026/05/14 10:30:11.894,-0.049,0.021,0.974
2026/05/14 10:30:11.913,-0.035,0.015,0.963
2026/05/14 10:30:11.933,-0.026,0.01,0.976
2026/05/14 10:30:11.952,-0.024,0.009,0.974
2026/05/14 10:30:11.971,-0.038,0.017,0.967
2026/05/14 10:30:11.991,-0.042,0.022,0.967
2026/05/14 10:30:12.010,-0.046,0.023,0.968
2026/05/14 10:30:12.029,-0.054,0.026,0.968
2026/05/14 10:30:12.049,-0.047,0.018,0.968
2026/05/14 10:30:12.068,-0.039,0.022,0.969
2026/05/14 10:30:12.087,-0.043,0.027,0.969
2026/05/14 10:30:12.107,-0.051,0.026,0.964
2026/05/14 10:30:12.126,-0.044,0.03,0.964
2026/05/14 10:30:12.145,-0.039,0.025,0.964
2026/05/14 10:30:12.165,-0.036,0.015,0.97
2026/05/14 10:30:12.184,-0.041,0.008,0.973
2026/05/14 10:30:12.203,-0.038,0.009,0.968
2026/05/14 10:30:12.223,-0.039,0.012,0.97
2026/05/14 10:30:12.242,-0.04,0.017,0.97
2026/05/14 10:30:12.261,-0.04,0.023,0.968
2026/05/14 10:30:12.280,-0.04,0.025,0.966
2026/05/14 10:30:12.300,-0.038,0.022,0.975
2026/05/14 10:30:12.319,-0.039,0.021,0.969
2026/05/14 10:30:12.338,-0.046,0.024,0.971
2026/05/14 10:30:12.358,-0.051,0.024,0.974
2026/05/14 10:30:12.377,-0.051,0.025,0.974
2026/05/14 10:30:12.396,-0.046,0.024,0.974
2026/05/14 10:30:12.416,-0.04,0.016,0.972
2026/05/14 10:30:12.435,-0.036,0.019,0.972
2026/05/14 10:30:12.454,-0.037,0.016,0.973
2026/05/14 10:30:12.474,-0.04,0.018,0.966
2026/05/14 10:30:12.493,-0.039,0.02,0.969
2026/05/14 10:30:12.512,-0.039,0.017,0.97
2026/05/14 10:30:12.532,-0.038,0.015,0.97
2026/05/14 10:30:12.551,-0.041,0.017,0.967
2026/05/14 10:30:12.570,-0.041,0.019,0.969
2026/05/14 10:30:12.590,-0.043,0.018,0.967
2026/05/14 10:30:12.609,-0.044,0.026,0.965
2026/05/14 10:30:12.628,-0.047,0.024,0.971
2026/05/14 10:30:12.648,-0.044,0.023,0.968
2026/05/14 10:30:12.667,-0.042,0.023,0.967
2026/05/14 10:30:12.686,-0.041,0.023,0.969
2026/05/14 10:30:12.706,-0.043,0.018,0.972
2026/05/14 10:30:12.725,-0.041,0.017,0.972
2026/05/14 10:30:12.744,-0.038,0.019,0.967
2026/05/14 10:30:12.764,-0.038,0.02,0.972
2026/05/14 10:30:12.783,-0.042,0.019,0.971
2026/05/14 10:30:12.802,-0.038,0.015,0.967
2026/05/14 10:30:12.821,-0.04,0.02,0.971
2026/05/14 10:30:12.841,-0.042,0.023,0.972
2026/05/14 10:30:12.860,-0.043,0.021,0.967
2026/05/14 10:30:12.879,-0.044,0.023,0.97
2026/05/14 10:30:12.899,-0.045,0.02,0.967
2026/05/14 10:30:12.918,-0.043,0.022,0.966
2026/05/14 10:30:12.937,-0.042,0.019,0.97
2026/05/14 10:30:12.957,-0.041,0.017,0.97
2026/05/14 10:30:12.976,-0.041,0.018,0.966
2026/05/14 10:30:12.995,-0.042,0.018,0.968
2026/05/14 10:30:13.015,-0.043,0.016,0.969
2026/05/14 10:30:13.034,-0.039,0.017,0.968
2026/05/14 10:30:13.053,-0.041,0.017,0.968
2026/05/14 10:30:13.073,-0.039,0.015,0.968
2026/05/14 10:30:13.092,-0.045,0.025,0.968
2026/05/14 10:30:13.111,-0.041,0.023,0.968
2026/05/14 10:30:13.131,-0.042,0.02,0.969
2026/05/14 10:30:13.150,-0.041,0.021,0.967
2026/05/14 10:30:13.169,-0.044,0.021,0.969
2026/05/14 10:30:13.189,-0.045,0.022,0.973
2026/05/14 10:30:13.208,-0.042,0.02,0.972
2026/05/14 10:30:13.227,-0.049,0.022,0.968
2026/05/14 10:30:13.247,-0.041,0.014,0.966
2026/05/14 10:30:13.266,-0.041,0.019,0.967
2026/05/14 10:30:13.285,-0.039,0.017,0.966
2026/05/14 10:30:13.305,-0.04,0.017,0.968
2026/05/14 10:30:13.324,-0.041,0.018,0.971
2026/05/14 10:30:13.343,-0.04,0.016,0.97
2026/05/14 10:30:13.362,-0.044,0.017,0.968
2026/05/14 10:30:13.382,-0.046,0.019,0.965
2026/05/14 10:30:13.401,-0.043,0.02,0.97
2026/05/14 10:30:13.420,-0.042,0.023,0.972
2026/05/14 10:30:13.440,-0.042,0.024,0.965
2026/05/14 10:30:13.459,-0.04,0.022,0.968
2026/05/14 10:30:13.478,-0.041,0.025,0.971
2026/05/14 10:30:13.498,-0.04,0.019,0.966
2026/05/14 10:30:13.517,-0.043,0.015,0.967
2026/05/14 10:30:13.536,-0.046,0.019,0.969
2026/05/14 10:30:13.556,-0.039,0.019,0.968
2026/05/14 10:30:13.575,-0.036,0.018,0.971
2026/05/14 10:30:13.594,-0.04,0.023,0.967
2026/05/14 10:30:13.614,-0.041,0.017,0.968
2026/05/14 10:30:13.633,-0.044,0.022,0.969
2026/05/14 10:30:13.652,-0.044,0.018,0.971
2026/05/14 10:30:13.672,-0.042,0.02,0.969
2026/05/14 10:30:13.691,-0.043,0.023,0.97
2026/05/14 10:30:13.710,-0.041,0.02,0.972
2026/05/14 10:30:13.730,-0.041,0.023,0.969
2026/05/14 10:30:13.749,-0.039,0.019,0.968
2026/05/14 10:30:13.768,-0.039,0.018,0.969
2026/05/14 10:30:13.788,-0.039,0.019,0.97
2026/05/14 10:30:13.807,-0.04,0.015,0.974
2026/05/14 10:30:13.826,-0.039,0.017,0.97
2026/05/14 10:30:13.846,-0.042,0.019,0.97
2026/05/14 10:30:13.865,-0.044,0.022,0.972
2026/05/14 10:30:13.884,-0.045,0.022,0.971
2026/05/14 10:30:13.903,-0.048,0.019,0.973
2026/05/14 10:30:13.923,-0.043,0.024,0.967
2026/05/14 10:30:13.942,-0.041,0.02,0.968
2026/05/14 10:30:13.961,-0.04,0.021,0.968
2026/05/14 10:30:13.981,-0.041,0.022,0.968
2026/05/14 10:30:14.000,-0.041,0.021,0.97
2026/05/14 10:30:14.019,-0.039,0.017,0.972
2026/05/14 10:30:14.039,-0.039,0.017,0.968
2026/05/14 10:30:14.058,-0.04,0.02,0.968
2026/05/14 10:30:14.077,-0.042,0.017,0.966
2026/05/14 10:30:14.097,-0.043,0.02,0.968
2026/05/14 10:30:14.116,-0.045,0.02,0.968
2026/05/14 10:30:14.135,-0.046,0.02,0.969
2026/05/14 10:30:14.155,-0.044,0.022,0.967
2026/05/14 10:30:14.174,-0.043,0.02,0.973
2026/05/14 10:30:14.193,-0.044,0.019,0.967
2026/05/14 10:30:14.213,-0.042,0.02,0.964
2026/05/14 10:30:14.232,-0.038,0.017,0.97
2026/05/14 10:30:14.251,-0.039,0.019,0.967
2026/05/14 10:30:14.271,-0.04,0.018,0.969
2026/05/14 10:30:14.290,-0.044,0.018,0.965
2026/05/14 10:30:14.309,-0.039,0.017,0.968
2026/05/14 10:30:14.329,-0.041,0.02,0.97
2026/05/14 10:30:14.348,-0.041,0.022,0.969
2026/05/14 10:30:14.367,-0.04,0.022,0.968
2026/05/14 10:30:14.387,-0.043,0.025,0.971
2026/05/14 10:30:14.406,-0.042,0.022,0.968
2026/05/14 10:30:14.425,-0.045,0.027,0.972
2026/05/14 10:30:14.445,-0.045,0.019,0.966
2026/05/14 10:30:14.464,-0.043,0.019,0.969
2026/05/14 10:30:14.483,-0.04,0.015,0.969
2026/05/14 10:30:14.502,-0.043,0.013,0.969
2026/05/14 10:30:14.522,-0.039,0.019,0.967
2026/05/14 10:30:14.541,-0.043,0.018,0.969
2026/05/14 10:30:14.560,-0.041,0.019,0.971
2026/05/14 10:30:14.580,-0.044,0.018,0.968
2026/05/14 10:30:14.599,-0.042,0.017,0.975
2026/05/14 10:30:14.618,-0.044,0.018,0.968
2026/05/14 10:30:14.638,-0.043,0.018,0.966
2026/05/14 10:30:14.657,-0.042,0.02,0.967
2026/05/14 10:30:14.676,-0.046,0.021,0.967
2026/05/14 10:30:14.696,-0.042,0.019,0.972
2026/05/14 10:30:14.715,-0.043,0.02,0.967
2026/05/14 10:30:14.734,-0.044,0.016,0.965
2026/05/14 10:30:14.754,-0.044,0.018,0.967
2026/05/14 10:30:14.773,-0.041,0.022,0.968
2026/05/14 10:30:14.792,-0.04,0.018,0.968
2026/05/14 10:30:14.812,-0.039,0.019,0.966
2026/05/14 10:30:14.831,-0.043,0.021,0.97
2026/05/14 10:30:14.850,-0.04,0.018,0.964
2026/05/14 10:30:14.870,-0.043,0.018,0.966
2026/05/14 10:30:14.889,-0.039,0.021,0.967
2026/05/14 10:30:14.908,-0.043,0.018,0.972
2026/05/14 10:30:14.928,-0.046,0.02,0.97
2026/05/14 10:30:14.947,-0.044,0.018,0.965
2026/05/14 10:30:14.966,-0.043,0.018,0.968
2026/05/14 10:30:14.986,-0.043,0.019,0.969
2026/05/14 10:30:15.005,-0.039,0.02,0.966
2026/05/14 10:30:15.024,-0.041,0.019,0.968
2026/05/14 10:30:15.043,-0.04,0.02,0.971
2026/05/14 10:30:15.063,-0.04,0.019,0.968
2026/05/14 10:30:15.082,-0.043,0.017,0.967
2026/05/14 10:30:15.101,-0.039,0.022,0.969
2026/05/14 10:30:15.121,-0.041,0.021,0.973
2026/05/14 10:30:15.140,-0.045,0.024,0.971
2026/05/14 10:30:15.159,-0.044,0.023,0.968
2026/05/14 10:30:15.179,-0.044,0.021,0.97
2026/05/14 10:30:15.198,-0.043,0.02,0.97
2026/05/14 10:30:15.217,-0.041,0.019,0.966
2026/05/14 10:30:15.237,-0.045,0.016,0.967
2026/05/14 10:30:15.256,-0.04,0.021,0.968
2026/05/14 10:30:15.275,-0.041,0.018,0.969
2026/05/14 10:30:15.295,-0.044,0.015,0.963
2026/05/14 10:30:15.314,-0.041,0.021,0.966
2026/05/14 10:30:15.333,-0.042,0.023,0.97
2026/05/14 10:30:15.353,-0.043,0.017,0.967
2026/05/14 10:30:15.372,-0.044,0.02,0.971
2026/05/14 10:30:15.391,-0.041,0.02,0.966
2026/05/14 10:30:15.411,-0.041,0.02,0.968
2026/05/14 10:30:15.430,-0.039,0.018,0.972
2026/05/14 10:30:15.449,-0.043,0.019,0.969
2026/05/14 10:30:15.469,-0.042,0.018,0.967
2026/05/14 10:30:15.488,-0.043,0.019,0.972
2026/05/14 10:30:15.507,-0.041,0.015,0.965
2026/05/14 10:30:15.527,-0.039,0.016,0.97
2026/05/14 10:30:15.546,-0.04,0.019,0.969
2026/05/14 10:30:15.565,-0.046,0.019,0.969
2026/05/14 10:30:15.585,-0.045,0.017,0.968
2026/05/14 10:30:15.604,-0.042,0.016,0.969
2026/05/14 10:30:15.623,-0.037,0.019,0.968
2026/05/14 10:30:15.642,-0.042,0.019,0.97
2026/05/14 10:30:15.662,-0.044,0.019,0.972
2026/05/14 10:30:15.681,-0.042,0.021,0.97
2026/05/14 10:30:15.700,-0.042,0.02,0.968
2026/05/14 10:30:15.720,-0.044,0.019,0.967
2026/05/14 10:30:15.739,-0.041,0.017,0.967
2026/05/14 10:30:15.758,-0.04,0.019,0.969
2026/05/14 10:30:15.778,-0.043,0.02,0.967
2026/05/14 10:30:15.797,-0.041,0.016,0.971
2026/05/14 10:30:15.816,-0.041,0.017,0.968
2026/05/14 10:30:15.836,-0.04,0.018,0.968
2026/05/14 10:30:15.855,-0.041,0.017,0.965
2026/05/14 10:30:15.874,-0.044,0.019,0.968
2026/05/14 10:30:15.894,-0.044,0.022,0.968
2026/05/14 10:30:15.913,-0.043,0.025,0.963
2026/05/14 10:30:15.932,-0.045,0.017,0.967
2026/05/14 10:30:15.952,-0.044,0.02,0.968
2026/05/14 10:30:15.971,-0.043,0.02,0.965
2026/05/14 10:30:15.990,-0.042,0.019,0.973
2026/05/14 10:30:16.010,-0.043,0.018,0.967
2026/05/14 10:30:16.029,-0.043,0.019,0.968
2026/05/14 10:30:16.048,-0.042,0.019,0.969
2026/05/14 10:30:16.068,-0.042,0.017,0.969
2026/05/14 10:30:16.087,-0.043,0.021,0.968
2026/05/14 10:30:16.106,-0.042,0.019,0.971
2026/05/14 10:30:16.126,-0.044,0.021,0.967
2026/05/14 10:30:16.145,-0.042,0.023,0.97
2026/05/14 10:30:16.164,-0.041,0.021,0.967
2026/05/14 10:30:16.184,-0.037,0.017,0.969
2026/05/14 10:30:16.203,-0.046,0.023,0.971
2026/05/14 10:30:16.222,-0.043,0.022,0.965
2026/05/14 10:30:16.241,-0.042,0.017,0.968
2026/05/14 10:30:16.261,-0.043,0.016,0.967
2026/05/14 10:30:16.280,-0.04,0.018,0.968
2026/05/14 10:30:16.299,-0.043,0.018,0.97
2026/05/14 10:30:16.319,-0.046,0.017,0.968
2026/05/14 10:30:16.338,-0.042,0.022,0.966
2026/05/14 10:30:16.357,-0.041,0.022,0.969
2026/05/14 10:30:16.377,-0.041,0.017,0.969
2026/05/14 10:30:16.396,-0.043,0.026,0.967
2026/05/14 10:30:16.415,-0.043,0.019,0.967
2026/05/14 10:30:16.435,-0.042,0.022,0.972
2026/05/14 10:30:16.454,-0.046,0.022,0.975
2026/05/14 10:30:16.473,-0.041,0.018,0.968
2026/05/14 10:30:16.493,-0.042,0.024,0.97
2026/05/14 10:30:16.512,-0.039,0.021,0.97
2026/05/14 10:30:16.531,-0.04,0.019,0.972
2026/05/14 10:30:16.551,-0.037,0.016,0.969
2026/05/14 10:30:16.570,-0.04,0.019,0.967
2026/05/14 10:30:16.589,-0.04,0.018,0.965
2026/05/14 10:30:16.609,-0.04,0.018,0.97
2026/05/14 10:30:16.628,-0.044,0.018,0.97
2026/05/14 10:30:16.647,-0.043,0.022,0.967
2026/05/14 10:30:16.667,-0.044,0.018,0.967
2026/05/14 10:30:16.686,-0.04,0.024,0.969
2026/05/14 10:30:16.705,-0.041,0.019,0.967
2026/05/14 10:30:16.725,-0.042,0.02,0.969
2026/05/14 10:30:16.744,-0.043,0.02,0.971
2026/05/14 10:30:16.763,-0.04,0.018,0.969
2026/05/14 10:30:16.783,-0.043,0.019,0.967
2026/05/14 10:30:16.802,-0.04,0.018,0.963
2026/05/14 10:30:16.821,-0.041,0.021,0.967
2026/05/14 10:30:16.840,-0.043,0.018,0.97
2026/05/14 10:30:16.860,-0.041,0.021,0.969
2026/05/14 10:30:16.879,-0.043,0.022,0.968
2026/05/14 10:30:16.898,-0.04,0.02,0.969
2026/05/14 10:30:16.918,-0.044,0.021,0.97
2026/05/14 10:30:16.937,-0.044,0.018,0.972
2026/05/14 10:30:16.956,-0.041,0.02,0.966
2026/05/14 10:30:16.976,-0.042,0.021,0.971
2026/05/14 10:30:16.995,-0.043,0.02,0.966
2026/05/14 10:30:17.014,-0.04,0.021,0.97
2026/05/14 10:30:17.034,-0.037,0.02,0.969
2026/05/14 10:30:17.053,-0.041,0.02,0.966
2026/05/14 10:30:17.072,-0.04,0.018,0.963
2026/05/14 10:30:17.092,-0.045,0.018,0.97
2026/05/14 10:30:17.111,-0.038,0.017,0.973
2026/05/14 10:30:17.130,-0.041,0.02,0.97
2026/05/14 10:30:17.150,-0.045,0.022,0.971
2026/05/14 10:30:17.169,-0.039,0.02,0.973
2026/05/14 10:30:17.188,-0.042,0.018,0.968
2026/05/14 10:30:17.208,-0.043,0.022,0.965
2026/05/14 10:30:17.227,-0.041,0.021,0.973
2026/05/14 10:30:17.246,-0.04,0.02,0.967
2026/05/14 10:30:17.266,-0.041,0.018,0.973
2026/05/14 10:30:17.285,-0.044,0.02,0.967
2026/05/14 10:30:17.304,-0.044,0.021,0.973
2026/05/14 10:30:17.324,-0.038,0.022,0.974
2026/05/14 10:30:17.343,-0.039,0.018,0.97
2026/05/14 10:30:17.362,-0.044,0.016,0.968
2026/05/14 10:30:17.381,-0.044,0.02,0.967
2026/05/14 10:30:17.401,-0.04,0.017,0.97
2026/05/14 10:30:17.420,-0.044,0.02,0.97
2026/05/14 10:30:17.439,-0.043,0.019,0.963
2026/05/14 10:30:17.459,-0.041,0.023,0.964
2026/05/14 10:30:17.478,-0.044,0.018,0.97
2026/05/14 10:30:17.497,-0.043,0.018,0.97
2026/05/14 10:30:17.517,-0.044,0.018,0.969
2026/05/14 10:30:17.536,-0.043,0.017,0.967
2026/05/14 10:30:17.555,-0.04,0.018,0.971
2026/05/14 10:30:17.575,-0.043,0.021,0.966
2026/05/14 10:30:17.594,-0.042,0.023,0.969
2026/05/14 10:30:17.613,-0.039,0.019,0.965
2026/05/14 10:30:17.633,-0.042,0.022,0.97
2026/05/14 10:30:17.652,-0.041,0.02,0.97
2026/05/14 10:30:17.671,-0.041,0.018,0.968
2026/05/14 10:30:17.691,-0.04,0.024,0.97
2026/05/14 10:30:17.710,-0.041,0.019,0.969
2026/05/14 10:30:17.729,-0.041,0.02,0.971
2026/05/14 10:30:17.749,-0.044,0.02,0.97
2026/05/14 10:30:17.768,-0.039,0.016,0.97
2026/05/14 10:30:17.787,-0.043,0.017,0.97
2026/05/14 10:30:17.807,-0.043,0.018,0.969
2026/05/14 10:30:17.826,-0.04,0.018,0.967
2026/05/14 10:30:17.845,-0.043,0.019,0.972
2026/05/14 10:30:17.865,-0.046,0.02,0.968
2026/05/14 10:30:17.884,-0.041,0.023,0.968
2026/05/14 10:30:17.903,-0.045,0.021,0.973
2026/05/14 10:30:17.922,-0.043,0.021,0.974
2026/05/14 10:30:17.942,-0.04,0.024,0.965
2026/05/14 10:30:17.961,-0.042,0.02,0.968
2026/05/14 10:30:17.980,-0.044,0.021,0.969
2026/05/14 10:30:18.000,-0.046,0.015,0.97
2026/05/14 10:30:18.019,-0.043,0.019,0.97
2026/05/14 10:30:18.038,-0.042,0.017,0.972
2026/05/14 10:30:18.058,-0.042,0.017,0.963
2026/05/14 10:30:18.077,-0.042,0.016,0.968
2026/05/14 10:30:18.096,-0.043,0.019,0.969
2026/05/14 10:30:18.116,-0.038,0.017,0.971
2026/05/14 10:30:18.135,-0.043,0.022,0.967
2026/05/14 10:30:18.154,-0.042,0.021,0.969
2026/05/14 10:30:18.174,-0.042,0.021,0.97
2026/05/14 10:30:18.193,-0.04,0.019,0.973
2026/05/14 10:30:18.212,-0.042,0.02,0.971
2026/05/14 10:30:18.232,-0.04,0.02,0.968
2026/05/14 10:30:18.251,-0.039,0.023,0.969
2026/05/14 10:30:18.270,-0.042,0.018,0.969
2026/05/14 10:30:18.290,-0.044,0.019,0.97
2026/05/14 10:30:18.309,-0.042,0.021,0.97
2026/05/14 10:30:18.328,-0.04,0.021,0.97
2026/05/14 10:30:18.348,-0.044,0.021,0.972
2026/05/14 10:30:18.367,-0.04,0.022,0.97
2026/05/14 10:30:18.386,-0.043,0.022,0.966
2026/05/14 10:30:18.406,-0.041,0.022,0.97
2026/05/14 10:30:18.425,-0.04,0.019,0.967
2026/05/14 10:30:18.444,-0.044,0.021,0.97
2026/05/14 10:30:18.464,-0.047,0.021,0.967
2026/05/14 10:30:18.483,-0.045,0.019,0.967
2026/05/14 10:30:18.502,-0.04,0.017,0.969
2026/05/14 10:30:18.521,-0.042,0.02,0.97
2026/05/14 10:30:18.541,-0.043,0.016,0.97
2026/05/14 10:30:18.560,-0.044,0.019,0.966
2026/05/14 10:30:18.579,-0.039,0.018,0.969
2026/05/14 10:30:18.599,-0.04,0.019,0.968
2026/05/14 10:30:18.618,-0.04,0.019,0.969
2026/05/14 10:30:18.637,-0.043,0.023,0.97
2026/05/14 10:30:18.657,-0.041,0.02,0.968
2026/05/14 10:30:18.676,-0.043,0.02,0.973
2026/05/14 10:30:18.695,-0.041,0.019,0.973
2026/05/14 10:30:18.715,-0.039,0.021,0.966
2026/05/14 10:30:18.734,-0.045,0.021,0.968
2026/05/14 10:30:18.753,-0.041,0.016,0.968
2026/05/14 10:30:18.773,-0.04,0.022,0.968
2026/05/14 10:30:18.792,-0.041,0.017,0.97
2026/05/14 10:30:18.811,-0.045,0.013,0.97
2026/05/14 10:30:18.831,-0.043,0.02,0.968
2026/05/14 10:30:18.850,-0.035,0.019,0.97
2026/05/14 10:30:18.869,-0.039,0.022,0.968
2026/05/14 10:30:18.889,-0.042,0.021,0.969
2026/05/14 10:30:18.908,-0.041,0.02,0.967
2026/05/14 10:30:18.927,-0.041,0.02,0.97
2026/05/14 10:30:18.947,-0.042,0.018,0.97
2026/05/14 10:30:18.966,-0.042,0.02,0.971
2026/05/14 10:30:18.985,-0.04,0.02,0.967
2026/05/14 10:30:19.005,-0.039,0.019,0.97
2026/05/14 10:30:19.024,-0.043,0.02,0.969
2026/05/14 10:30:19.043,-0.04,0.017,0.971
2026/05/14 10:30:19.062,-0.044,0.023,0.972
2026/05/14 10:30:19.082,-0.042,0.02,0.971
2026/05/14 10:30:19.101,-0.041,0.023,0.969
2026/05/14 10:30:19.120,-0.043,0.02,0.969
2026/05/14 10:30:19.140,-0.04,0.022,0.964
2026/05/14 10:30:19.159,-0.039,0.022,0.969
2026/05/14 10:30:19.178,-0.04,0.022,0.97
2026/05/14 10:30:19.198,-0.039,0.019,0.97
2026/05/14 10:30:19.217,-0.039,0.017,0.972
2026/05/14 10:30:19.236,-0.041,0.023,0.971
2026/05/14 10:30:19.256,-0.037,0.023,0.972
2026/05/14 10:30:19.275,-0.044,0.018,0.97
2026/05/14 10:30:19.294,-0.042,0.019,0.973
2026/05/14 10:30:19.314,-0.043,0.015,0.971
2026/05/14 10:30:19.333,-0.039,0.021,0.966
2026/05/14 10:30:19.352,-0.043,0.02,0.97
2026/05/14 10:30:19.372,-0.041,0.019,0.967
2026/05/14 10:30:19.391,-0.04,0.019,0.97
2026/05/14 10:30:19.410,-0.042,0.023,0.967
2026/05/14 10:30:19.430,-0.041,0.018,0.966
2026/05/14 10:30:19.449,-0.046,0.019,0.97
2026/05/14 10:30:19.468,-0.044,0.022,0.97
2026/05/14 10:30:19.488,-0.042,0.02,0.971
2026/05/14 10:30:19.507,-0.042,0.018,0.969
2026/05/14 10:30:19.526,-0.043,0.017,0.974
2026/05/14 10:30:19.546,-0.04,0.02,0.97
2026/05/14 10:30:19.565,-0.041,0.019,0.97
2026/05/14 10:30:19.584,-0.043,0.018,0.971
2026/05/14 10:30:19.603,-0.045,0.02,0.971
2026/05/14 10:30:19.623,-0.041,0.019,0.969
2026/05/14 10:30:19.642,-0.046,0.017,0.965
2026/05/14 10:30:19.661,-0.04,0.022,0.968
2026/05/14 10:30:19.681,-0.042,0.02,0.97
2026/05/14 10:30:19.700,-0.044,0.018,0.967
2026/05/14 10:30:19.719,-0.042,0.022,0.967
2026/05/14 10:30:19.739,-0.042,0.019,0.967
2026/05/14 10:30:19.758,-0.042,0.021,0.972
2026/05/14 10:30:19.777,-0.046,0.022,0.969
2026/05/14 10:30:19.797,-0.041,0.018,0.97
2026/05/14 10:30:19.816,-0.042,0.019,0.967
2026/05/14 10:30:19.835,-0.04,0.022,0.974
2026/05/14 10:30:19.855,-0.043,0.019,0.968
2026/05/14 10:30:19.874,-0.042,0.02,0.97
2026/05/14 10:30:19.893,-0.041,0.02,0.969
2026/05/14 10:30:19.913,-0.044,0.021,0.969
2026/05/14 10:30:19.932,-0.04,0.018,0.969
2026/05/14 10:30:19.951,-0.039,0.022,0.967
2026/05/14 10:30:19.971,-0.045,0.015,0.975
2026/05/14 10:30:19.990,-0.044,0.018,0.971
2026/05/14 10:30:20.009,-0.042,0.023,0.967
2026/05/14 10:30:20.029,-0.041,0.018,0.971
2026/05/14 10:30:20.048,-0.039,0.021,0.965
2026/05/14 10:30:20.067,-0.038,0.018,0.972
2026/05/14 10:30:20.087,-0.045,0.02,0.969
2026/05/14 10:30:20.106,-0.041,0.02,0.97
2026/05/14 10:30:20.125,-0.043,0.02,0.972
2026/05/14 10:30:20.145,-0.042,0.02,0.971
2026/05/14 10:30:20.164,-0.039,0.019,0.968
2026/05/14 10:30:20.183,-0.044,0.019,0.97
2026/05/14 10:30:20.202,-0.043,0.021,0.971
2026/05/14 10:30:20.222,-0.04,0.022,0.971
2026/05/14 10:30:20.241,-0.042,0.017,0.97
2026/05/14 10:30:20.260,-0.041,0.018,0.97
2026/05/14 10:30:20.280,-0.045,0.017,0.968
2026/05/14 10:30:20.299,-0.044,0.02,0.969
2026/05/14 10:30:20.318,-0.043,0.016,0.968
2026/05/14 10:30:20.338,-0.039,0.021,0.967
2026/05/14 10:30:20.357,-0.045,0.02,0.969
2026/05/14 10:30:20.376,-0.04,0.02,0.969
2026/05/14 10:30:20.396,-0.04,0.021,0.973
2026/05/14 10:30:20.415,-0.042,0.019,0.968
2026/05/14 10:30:20.434,-0.046,0.019,0.97
2026/05/14 10:30:20.454,-0.043,0.021,0.966
2026/05/14 10:30:20.473,-0.042,0.023,0.964
2026/05/14 10:30:20.492,-0.042,0.019,0.968
2026/05/14 10:30:20.512,-0.042,0.02,0.973
2026/05/14 10:30:20.531,-0.044,0.017,0.971
2026/05/14 10:30:20.550,-0.043,0.021,0.968
2026/05/14 10:30:20.570,-0.041,0.02,0.969
2026/05/14 10:30:20.589,-0.043,0.019,0.97
2026/05/14 10:30:20.608,-0.037,0.024,0.97
2026/05/14 10:30:20.628,-0.042,0.018,0.967
2026/05/14 10:30:20.647,-0.044,0.026,0.97
2026/05/14 10:30:20.666,-0.043,0.016,0.97
2026/05/14 10:30:20.686,-0.043,0.019,0.97
2026/05/14 10:30:20.705,-0.041,0.018,0.965
2026/05/14 10:30:20.724,-0.042,0.018,0.972
2026/05/14 10:30:20.743,-0.039,0.016,0.968
2026/05/14 10:30:20.763,-0.041,0.019,0.968
2026/05/14 10:30:20.782,-0.042,0.019,0.967
2026/05/14 10:30:20.801,-0.041,0.021,0.97
2026/05/14 10:30:20.821,-0.041,0.022,0.968
2026/05/14 10:30:20.840,-0.041,0.019,0.969
2026/05/14 10:30:20.859,-0.042,0.02,0.962
2026/05/14 10:30:20.879,-0.039,0.016,0.966
2026/05/14 10:30:20.898,-0.041,0.02,0.97
2026/05/14 10:30:20.917,-0.043,0.021,0.968
2026/05/14 10:30:20.937,-0.039,0.019,0.962
2026/05/14 10:30:20.956,-0.04,0.018,0.967
2026/05/14 10:30:20.975,-0.044,0.022,0.968
2026/05/14 10:30:20.995,-0.042,0.016,0.969
2026/05/14 10:30:21.014,-0.042,0.019,0.968
2026/05/14 10:30:21.033,-0.041,0.018,0.969
2026/05/14 10:30:21.053,-0.044,0.027,0.971
2026/05/14 10:30:21.072,-0.039,0.017,0.966
2026/05/14 10:30:21.091,-0.04,0.018,0.967
2026/05/14 10:30:21.111,-0.04,0.022,0.968
2026/05/14 10:30:21.130,-0.044,0.02,0.971
2026/05/14 10:30:21.149,-0.04,0.022,0.966
2026/05/14 10:30:21.169,-0.042,0.021,0.971
2026/05/14 10:30:21.188,-0.038,0.02,0.965
2026/05/14 10:30:21.207,-0.041,0.019,0.968
2026/05/14 10:30:21.227,-0.04,0.019,0.97
2026/05/14 10:30:21.246,-0.042,0.022,0.97
2026/05/14 10:30:21.265,-0.043,0.02,0.971
2026/05/14 10:30:21.284,-0.041,0.017,0.971
2026/05/14 10:30:21.304,-0.044,0.021,0.963
2026/05/14 10:30:21.323,-0.039,0.02,0.967
2026/05/14 10:30:21.342,-0.04,0.019,0.969
2026/05/14 10:30:21.362,-0.041,0.018,0.97
2026/05/14 10:30:21.381,-0.04,0.021,0.971
2026/05/14 10:30:21.400,-0.042,0.021,0.968
2026/05/14 10:30:21.420,-0.042,0.021,0.969
2026/05/14 10:30:21.439,-0.038,0.019,0.965
2026/05/14 10:30:21.458,-0.042,0.023,0.971
2026/05/14 10:30:21.478,-0.039,0.019,0.968
2026/05/14 10:30:21.497,-0.042,0.02,0.973
2026/05/14 10:30:21.516,-0.044,0.022,0.964
2026/05/14 10:30:21.536,-0.042,0.016,0.967
2026/05/14 10:30:21.555,-0.041,0.017,0.967
2026/05/14 10:30:21.574,-0.041,0.019,0.969
2026/05/14 10:30:21.594,-0.04,0.02,0.968
2026/05/14 10:30:21.613,-0.043,0.018,0.97
2026/05/14 10:30:21.632,-0.041,0.022,0.974
2026/05/14 10:30:21.652,-0.043,0.018,0.969
2026/05/14 10:30:21.671,-0.043,0.02,0.969
2026/05/14 10:30:21.690,-0.04,0.018,0.972
2026/05/14 10:30:21.710,-0.04,0.018,0.966
2026/05/14 10:30:21.729,-0.044,0.019,0.97
2026/05/14 10:30:21.748,-0.044,0.023,0.969
2026/05/14 10:30:21.768,-0.04,0.021,0.967
2026/05/14 10:30:21.787,-0.045,0.017,0.968
2026/05/14 10:30:21.806,-0.042,0.018,0.97
2026/05/14 10:30:21.825,-0.04,0.02,0.967
2026/05/14 10:30:21.845,-0.041,0.021,0.97
2026/05/14 10:30:21.864,-0.043,0.019,0.973
2026/05/14 10:30:21.883,-0.043,0.02,0.972
2026/05/14 10:30:21.903,-0.042,0.019,0.97
2026/05/14 10:30:21.922,-0.042,0.017,0.962
2026/05/14 10:30:21.941,-0.041,0.02,0.969
2026/05/14 10:30:21.961,-0.044,0.018,0.972
2026/05/14 10:30:21.980,-0.042,0.021,0.97
2026/05/14 10:30:21.999,-0.044,0.021,0.968
2026/05/14 10:30:22.019,-0.041,0.019,0.97
2026/05/14 10:30:22.038,-0.041,0.019,0.968
2026/05/14 10:30:22.057,-0.039,0.018,0.974
2026/05/14 10:30:22.077,-0.036,0.017,0.969
2026/05/14 10:30:22.096,-0.039,0.018,0.965
2026/05/14 10:30:22.115,-0.039,0.02,0.969
2026/05/14 10:30:22.135,-0.037,0.01,0.968
2026/05/14 10:30:22.154,-0.043,0.019,0.97
2026/05/14 10:30:22.173,-0.046,0.02,0.97
2026/05/14 10:30:22.193,-0.043,0.016,0.969
2026/05/14 10:30:22.212,-0.044,0.019,0.969
2026/05/14 10:30:22.231,-0.038,0.022,0.967
2026/05/14 10:30:22.251,-0.041,0.025,0.971
2026/05/14 10:30:22.270,-0.045,0.022,0.967
2026/05/14 10:30:22.289,-0.041,0.023,0.967
2026/05/14 10:30:22.309,-0.043,0.02,0.969
2026/05/14 10:30:22.328,-0.043,0.022,0.969
2026/05/14 10:30:22.347,-0.042,0.018,0.969
2026/05/14 10:30:22.366,-0.037,0.013,0.968
2026/05/14 10:30:22.386,-0.043,0.014,0.971
2026/05/14 10:30:22.405,-0.042,0.018,0.968
2026/05/14 10:30:22.424,-0.044,0.021,0.967
2026/05/14 10:30:22.444,-0.042,0.019,0.964
2026/05/14 10:30:22.463,-0.045,0.018,0.976
2026/05/14 10:30:22.482,-0.043,0.023,0.97
2026/05/14 10:30:22.502,-0.045,0.021,0.972
2026/05/14 10:30:22.521,-0.042,0.022,0.974
2026/05/14 10:30:22.540,-0.043,0.018,0.978
2026/05/14 10:30:22.560,-0.043,0.014,0.968
2026/05/14 10:30:22.579,-0.035,0.021,0.958
2026/05/14 10:30:22.598,-0.033,0.025,0.953
2026/05/14 10:30:22.618,-0.037,0.021,0.973
2026/05/14 10:30:22.637,-0.044,0.02,0.976
2026/05/14 10:30:22.656,-0.04,0.016,0.967
2026/05/14 10:30:22.676,-0.042,0.016,0.969
2026/05/14 10:30:22.695,-0.044,0.021,0.971
2026/05/14 10:30:22.714,-0.042,0.024,0.971
2026/05/14 10:30:22.734,-0.045,0.019,0.977
2026/05/14 10:30:22.753,-0.042,0.023,0.965
2026/05/14 10:30:22.772,-0.049,0.021,0.971
2026/05/14 10:30:22.792,-0.044,0.017,0.97
2026/05/14 10:30:22.811,-0.036,0.022,0.956
2026/05/14 10:30:22.830,-0.037,0.017,0.974
2026/05/14 10:30:22.849,-0.041,0.022,0.963
2026/05/14 10:30:22.869,-0.042,0.021,0.96
2026/05/14 10:30:22.888,-0.042,0.015,0.968
2026/05/14 10:30:22.907,-0.039,0.018,0.971
2026/05/14 10:30:22.927,-0.046,0.016,0.978
2026/05/14 10:30:22.946,-0.038,0.02,0.965
2026/05/14 10:30:22.965,-0.042,0.019,0.962
2026/05/14 10:30:22.985,-0.042,0.025,0.962
2026/05/14 10:30:23.004,-0.042,0.02,0.966
2026/05/14 10:30:23.023,-0.041,0.02,0.967
2026/05/14 10:30:23.043,-0.048,0.018,0.978
2026/05/14 10:30:23.062,-0.039,0.02,0.961
2026/05/14 10:30:23.081,-0.044,0.02,0.974
2026/05/14 10:30:23.101,-0.039,0.016,0.966
2026/05/14 10:30:23.120,-0.041,0.02,0.966
2026/05/14 10:30:23.139,-0.04,0.018,0.972
2026/05/14 10:30:23.159,-0.04,0.018,0.964
2026/05/14 10:30:23.178,-0.039,0.024,0.969
2026/05/14 10:30:23.197,-0.04,0.019,0.963
2026/05/14 10:30:23.217,-0.037,0.019,0.966
2026/05/14 10:30:23.236,-0.042,0.018,0.969
2026/05/14 10:30:23.255,-0.041,0.018,0.965
2026/05/14 10:30:23.275,-0.044,0.025,0.968
2026/05/14 10:30:23.294,-0.042,0.022,0.962
2026/05/14 10:30:23.313,-0.04,0.019,0.964
2026/05/14 10:30:23.332,-0.041,0.017,0.968
2026/05/14 10:30:23.352,-0.037,0.021,0.963
2026/05/14 10:30:23.371,-0.039,0.016,0.969
2026/05/14 10:30:23.390,-0.037,0.017,0.965
2026/05/14 10:30:23.410,-0.044,0.023,0.984
2026/05/14 10:30:23.429,-0.043,0.017,0.98
2026/05/14 10:30:23.448,-0.044,0.024,0.972
2026/05/14 10:30:23.468,-0.043,0.019,0.964
2026/05/14 10:30:23.487,-0.037,0.023,0.959
2026/05/14 10:30:23.506,-0.043,0.02,0.965
2026/05/14 10:30:23.526,-0.045,0.023,0.968
2026/05/14 10:30:23.545,-0.042,0.02,0.964
2026/05/14 10:30:23.564,-0.041,0.018,0.966
2026/05/14 10:30:23.584,-0.045,0.015,0.981
2026/05/14 10:30:23.603,-0.039,0.022,0.983
2026/05/14 10:30:23.622,-0.036,0.02,0.96
2026/05/14 10:30:23.642,-0.045,0.023,0.973
2026/05/14 10:30:23.661,-0.049,0.02,0.975
2026/05/14 10:30:23.680,-0.044,0.017,0.96
2026/05/14 10:30:23.700,-0.044,0.021,0.973
2026/05/14 10:30:23.719,-0.043,0.02,0.966
2026/05/14 10:30:23.738,-0.044,0.019,0.966
2026/05/14 10:30:23.758,-0.041,0.021,0.972
2026/05/14 10:30:23.777,-0.045,0.021,0.965
2026/05/14 10:30:23.796,-0.038,0.02,0.964
2026/05/14 10:30:23.815,-0.042,0.02,0.963
2026/05/14 10:30:23.835,-0.044,0.019,0.974
2026/05/14 10:30:23.854,-0.043,0.014,0.973
2026/05/14 10:30:23.873,-0.045,0.018,0.964
2026/05/14 10:30:23.893,-0.046,0.02,0.976
2026/05/14 10:30:23.912,-0.04,0.02,0.968
2026/05/14 10:30:23.931,-0.041,0.015,0.96
2026/05/14 10:30:23.951,-0.039,0.017,0.956
2026/05/14 10:30:23.970,-0.04,0.016,0.971
2026/05/14 10:30:23.989,-0.041,0.023,0.961
2026/05/14 10:30:24.009,-0.041,0.022,0.961
2026/05/14 10:30:24.028,-0.043,0.021,0.97
2026/05/14 10:30:24.047,-0.041,0.02,0.962
2026/05/14 10:30:24.067,-0.039,0.019,0.961
2026/05/14 10:30:24.086,-0.035,0.021,0.957
2026/05/14 10:30:24.105,-0.047,0.018,0.993
2026/05/14 10:30:24.125,-0.044,0.018,0.974
2026/05/14 10:30:24.144,-0.042,0.02,0.971
2026/05/14 10:30:24.163,-0.045,0.017,0.978
2026/05/14 10:30:24.183,-0.049,0.021,0.984
2026/05/14 10:30:24.202,-0.044,0.02,0.965
2026/05/14 10:30:24.221,-0.045,0.015,0.967
2026/05/14 10:30:24.241,-0.043,0.02,0.967
2026/05/14 10:30:24.260,-0.043,0.023,0.971
2026/05/14 10:30:24.279,-0.042,0.018,0.97
2026/05/14 10:30:24.299,-0.042,0.015,0.97
2026/05/14 10:30:24.318,-0.041,0.023,0.972
2026/05/14 10:30:24.337,-0.04,0.017,0.963
2026/05/14 10:30:24.356,-0.041,0.019,0.966
2026/05/14 10:30:24.376,-0.041,0.02,0.966
2026/05/14 10:30:24.395,-0.039,0.019,0.965
2026/05/14 10:30:24.414,-0.044,0.019,0.973
2026/05/14 10:30:24.434,-0.042,0.019,0.969
2026/05/14 10:30:24.453,-0.041,0.02,0.964
2026/05/14 10:30:24.472,-0.044,0.021,0.98
2026/05/14 10:30:24.492,-0.046,0.02,0.972
2026/05/14 10:30:24.511,-0.043,0.021,0.967
2026/05/14 10:30:24.530,-0.042,0.017,0.968
2026/05/14 10:30:24.550,-0.043,0.017,0.966
2026/05/14 10:30:24.569,-0.039,0.017,0.967
2026/05/14 10:30:24.588,-0.042,0.021,0.965
2026/05/14 10:30:24.608,-0.041,0.019,0.973
2026/05/14 10:30:24.627,-0.045,0.017,0.97
2026/05/14 10:30:24.646,-0.04,0.018,0.965
2026/05/14 10:30:24.666,-0.037,0.018,0.968
2026/05/14 10:30:24.685,-0.038,0.017,0.968
2026/05/14 10:30:24.704,-0.038,0.019,0.965
2026/05/14 10:30:24.724,-0.042,0.019,0.966
2026/05/14 10:30:24.743,-0.042,0.021,0.969
2026/05/14 10:30:24.762,-0.042,0.023,0.966
2026/05/14 10:30:24.782,-0.043,0.017,0.966
2026/05/14 10:30:24.801,-0.043,0.019,0.965
2026/05/14 10:30:24.820,-0.04,0.017,0.968
2026/05/14 10:30:24.839,-0.038,0.018,0.961
2026/05/14 10:30:24.859,-0.036,0.017,0.961
2026/05/14 10:30:24.878,-0.046,0.02,0.981
2026/05/14 10:30:24.897,-0.04,0.018,0.975
2026/05/14 10:30:24.917,-0.04,0.019,0.962
2026/05/14 10:30:24.936,-0.043,0.02,0.965
2026/05/14 10:30:24.955,-0.044,0.022,0.969
2026/05/14 10:30:24.975,-0.045,0.024,0.965
2026/05/14 10:30:24.994,-0.042,0.019,0.966
2026/05/14 10:30:25.013,-0.042,0.021,0.973
2026/05/14 10:30:25.033,-0.041,0.021,0.97
2026/05/14 10:30:25.052,-0.041,0.021,0.971
2026/05/14 10:30:25.071,-0.04,0.019,0.965
2026/05/14 10:30:25.091,-0.04,0.021,0.971
2026/05/14 10:30:25.110,-0.042,0.02,0.971
2026/05/14 10:30:25.129,-0.039,0.019,0.97
2026/05/14 10:30:25.149,-0.043,0.016,0.973
2026/05/14 10:30:25.168,-0.046,0.018,0.968
2026/05/14 10:30:25.187,-0.041,0.018,0.967
2026/05/14 10:30:25.207,-0.042,0.021,0.967
2026/05/14 10:30:25.226,-0.041,0.02,0.968
2026/05/14 10:30:25.245,-0.043,0.022,0.971
2026/05/14 10:30:25.265,-0.044,0.021,0.967
2026/05/14 10:30:25.284,-0.041,0.018,0.972
2026/05/14 10:30:25.303,-0.04,0.016,0.966
2026/05/14 10:30:25.322,-0.041,0.018,0.971
2026/05/14 10:30:25.342,-0.041,0.019,0.967
2026/05/14 10:30:25.361,-0.038,0.017,0.967
2026/05/14 10:30:25.380,-0.045,0.016,0.974
2026/05/14 10:30:25.400,-0.04,0.019,0.968
2026/05/14 10:30:25.419,-0.044,0.015,0.969
2026/05/14 10:30:25.438,-0.041,0.02,0.97
2026/05/14 10:30:25.458,-0.044,0.021,0.968
2026/05/14 10:30:25.477,-0.042,0.018,0.963
2026/05/14 10:30:25.496,-0.039,0.021,0.966
2026/05/14 10:30:25.516,-0.045,0.021,0.965
2026/05/14 10:30:25.535,-0.039,0.02,0.97
2026/05/14 10:30:25.554,-0.045,0.019,0.968
2026/05/14 10:30:25.574,-0.042,0.022,0.966
2026/05/14 10:30:25.593,-0.042,0.021,0.965
2026/05/14 10:30:25.612,-0.042,0.017,0.969
2026/05/14 10:30:25.632,-0.04,0.021,0.969
2026/05/14 10:30:25.651,-0.04,0.016,0.977
2026/05/14 10:30:25.670,-0.042,0.021,0.964
2026/05/14 10:30:25.690,-0.046,0.02,0.977
2026/05/14 10:30:25.709,-0.039,0.019,0.967
2026/05/14 10:30:25.728,-0.043,0.016,0.969
2026/05/14 10:30:25.748,-0.045,0.02,0.971
2026/05/14 10:30:25.767,-0.044,0.022,0.968
2026/05/14 10:30:25.786,-0.043,0.018,0.972
2026/05/14 10:30:25.806,-0.044,0.023,0.97
2026/05/14 10:30:25.825,-0.039,0.018,0.973
2026/05/14 10:30:25.844,-0.046,0.015,0.971
2026/05/14 10:30:25.863,-0.041,0.019,0.966
2026/05/14 10:30:25.883,-0.041,0.02,0.971
2026/05/14 10:30:25.902,-0.043,0.016,0.969
2026/05/14 10:30:25.921,-0.04,0.023,0.968
2026/05/14 10:30:25.941,-0.043,0.018,0.97
2026/05/14 10:30:25.960,-0.042,0.021,0.971
2026/05/14 10:30:25.979,-0.044,0.018,0.967
2026/05/14 10:30:25.999,-0.04,0.022,0.967
2026/05/14 10:30:26.018,-0.045,0.02,0.97
2026/05/14 10:30:26.037,-0.041,0.017,0.968
2026/05/14 10:30:26.057,-0.041,0.017,0.97
2026/05/14 10:30:26.076,-0.043,0.019,0.971
2026/05/14 10:30:26.095,-0.043,0.015,0.968
2026/05/14 10:30:26.115,-0.042,0.02,0.969
2026/05/14 10:30:26.134,-0.044,0.017,0.966
2026/05/14 10:30:26.153,-0.043,0.018,0.969
2026/05/14 10:30:26.173,-0.043,0.019,0.97
2026/05/14 10:30:26.192,-0.041,0.018,0.972
2026/05/14 10:30:26.211,-0.044,0.017,0.967
2026/05/14 10:30:26.231,-0.041,0.018,0.966
2026/05/14 10:30:26.250,-0.044,0.024,0.967
2026/05/14 10:30:26.269,-0.043,0.021,0.969
2026/05/14 10:30:26.289,-0.045,0.02,0.97
2026/05/14 10:30:26.308,-0.039,0.017,0.968
2026/05/14 10:30:26.327,-0.042,0.017,0.966
2026/05/14 10:30:26.346,-0.039,0.021,0.966
2026/05/14 10:30:26.366,-0.041,0.022,0.97
2026/05/14 10:30:26.385,-0.039,0.018,0.972
2026/05/14 10:30:26.404,-0.043,0.017,0.971
2026/05/14 10:30:26.424,-0.044,0.02,0.967
2026/05/14 10:30:26.443,-0.038,0.018,0.968
2026/05/14 10:30:26.462,-0.044,0.023,0.97
2026/05/14 10:30:26.482,-0.044,0.018,0.964
2026/05/14 10:30:26.501,-0.041,0.022,0.972
2026/05/14 10:30:26.520,-0.043,0.023,0.97
2026/05/14 10:30:26.540,-0.042,0.021,0.972
2026/05/14 10:30:26.559,-0.043,0.021,0.972
2026/05/14 10:30:26.578,-0.04,0.019,0.968
2026/05/14 10:30:26.598,-0.041,0.021,0.972
2026/05/14 10:30:26.617,-0.039,0.019,0.972
2026/05/14 10:30:26.636,-0.043,0.019,0.972
2026/05/14 10:30:26.656,-0.04,0.016,0.967
2026/05/14 10:30:26.675,-0.04,0.019,0.968
2026/05/14 10:30:26.694,-0.045,0.017,0.97
2026/05/14 10:30:26.714,-0.044,0.017,0.969
2026/05/14 10:30:26.733,-0.04,0.022,0.971
2026/05/14 10:30:26.752,-0.042,0.019,0.97
2026/05/14 10:30:26.772,-0.038,0.022,0.969
2026/05/14 10:30:26.791,-0.04,0.019,0.971
2026/05/14 10:30:26.810,-0.041,0.019,0.971
2026/05/14 10:30:26.830,-0.041,0.02,0.967
2026/05/14 10:30:26.849,-0.042,0.018,0.969
2026/05/14 10:30:26.868,-0.043,0.018,0.97
2026/05/14 10:30:26.887,-0.042,0.022,0.969
2026/05/14 10:30:26.907,-0.041,0.02,0.971
2026/05/14 10:30:26.926,-0.045,0.018,0.971
2026/05/14 10:30:26.945,-0.045,0.017,0.966
2026/05/14 10:30:26.965,-0.042,0.018,0.969
2026/05/14 10:30:26.984,-0.042,0.019,0.972
2026/05/14 10:30:27.003,-0.04,0.022,0.967
2026/05/14 10:30:27.023,-0.043,0.016,0.972
2026/05/14 10:30:27.042,-0.042,0.019,0.974
2026/05/14 10:30:27.061,-0.046,0.023,0.969
2026/05/14 10:30:27.081,-0.041,0.016,0.969
2026/05/14 10:30:27.100,-0.037,0.015,0.97
2026/05/14 10:30:27.119,-0.042,0.019,0.968
2026/05/14 10:30:27.139,-0.038,0.021,0.971
2026/05/14 10:30:27.158,-0.041,0.02,0.965
2026/05/14 10:30:27.177,-0.038,0.016,0.972
2026/05/14 10:30:27.197,-0.046,0.023,0.969
2026/05/14 10:30:27.216,-0.041,0.017,0.97
2026/05/14 10:30:27.235,-0.041,0.021,0.97
2026/05/14 10:30:27.255,-0.041,0.022,0.97
2026/05/14 10:30:27.274,-0.044,0.02,0.969
2026/05/14 10:30:27.293,-0.041,0.02,0.97
2026/05/14 10:30:27.313,-0.041,0.023,0.969
2026/05/14 10:30:27.332,-0.043,0.021,0.968
2026/05/14 10:30:27.351,-0.043,0.02,0.97
2026/05/14 10:30:27.370,-0.042,0.022,0.969
2026/05/14 10:30:27.390,-0.04,0.021,0.967
2026/05/14 10:30:27.409,-0.043,0.02,0.972
2026/05/14 10:30:27.428,-0.041,0.02,0.968
2026/05/14 10:30:27.448,-0.045,0.019,0.973
2026/05/14 10:30:27.467,-0.042,0.019,0.972
2026/05/14 10:30:27.486,-0.041,0.017,0.965
2026/05/14 10:30:27.506,-0.042,0.02,0.97
2026/05/14 10:30:27.525,-0.042,0.021,0.962
2026/05/14 10:30:27.544,-0.052,0.021,1.006
2026/05/14 10:30:27.564,-0.044,0.019,1.008
2026/05/14 10:30:27.583,-0.048,0.027,0.957
2026/05/14 10:30:27.602,-0.049,0.03,0.979
2026/05/14 10:30:27.622,-0.043,0.028,0.968
2026/05/14 10:30:27.641,-0.028,0.026,0.93
2026/05/14 10:30:27.660,-0.044,0.03,0.957
2026/05/14 10:30:27.680,-0.044,0.021,0.965
2026/05/14 10:30:27.699,-0.047,0.021,0.969
2026/05/14 10:30:27.718,-0.043,0.019,0.959
2026/05/14 10:30:27.738,-0.033,0.015,0.969
2026/05/14 10:30:27.757,-0.031,0.017,0.959
2026/05/14 10:30:27.776,-0.042,0.012,0.975
2026/05/14 10:30:27.796,-0.025,-0.001,0.965
2026/05/14 10:30:27.815,-0.044,0.011,0.961
2026/05/14 10:30:27.834,-0.047,0.018,0.97
2026/05/14 10:30:27.854,-0.044,0.021,0.967
2026/05/14 10:30:27.873,-0.048,0.034,0.976
2026/05/14 10:30:27.892,-0.046,0.041,0.986
2026/05/14 10:30:27.911,-0.049,0.035,0.983
2026/05/14 10:30:27.931,-0.043,0.031,0.938
2026/05/14 10:30:27.950,-0.044,0.026,0.97
2026/05/14 10:30:27.969,-0.047,0.011,0.96
2026/05/14 10:30:27.989,-0.043,0.006,0.972
2026/05/14 10:30:28.008,-0.055,0.017,0.982
2026/05/14 10:30:28.027,-0.043,0.013,0.972
2026/05/14 10:30:28.047,-0.036,0.019,0.976
2026/05/14 10:30:28.066,-0.026,0.023,0.963
2026/05/14 10:30:28.085,-0.035,0.023,0.97
2026/05/14 10:30:28.105,-0.04,0.018,0.968
2026/05/14 10:30:28.124,-0.042,0.017,0.965
2026/05/14 10:30:28.143,-0.053,0.011,0.979
2026/05/14 10:30:28.163,-0.042,0.013,0.926
2026/05/14 10:30:28.182,-0.048,0.02,0.984
2026/05/14 10:30:28.201,-0.039,0.027,0.948
2026/05/14 10:30:28.221,-0.039,0.032,0.971
2026/05/14 10:30:28.240,-0.037,0.03,0.974
2026/05/14 10:30:28.259,-0.032,0.028,0.951
2026/05/14 10:30:28.279,-0.035,0.022,0.973
2026/05/14 10:30:28.298,-0.03,0.01,0.957
2026/05/14 10:30:28.317,-0.039,0.005,0.969
2026/05/14 10:30:28.337,-0.044,0.002,0.957
2026/05/14 10:30:28.356,-0.039,0.005,0.977
2026/05/14 10:30:28.375,-0.043,0.019,0.969
2026/05/14 10:30:28.395,-0.042,0.028,0.966
2026/05/14 10:30:28.414,-0.036,0.038,0.968
2026/05/14 10:30:28.433,-0.04,0.038,0.969
2026/05/14 10:30:28.452,-0.051,0.031,0.964
2026/05/14 10:30:28.472,-0.047,0.022,0.957
2026/05/14 10:30:28.491,-0.046,0.01,0.976
2026/05/14 10:30:28.510,-0.106,-0.003,0.939
2026/05/14 10:30:28.530,-0.035,0.023,0.989
2026/05/14 10:30:28.549,0.01,-0.071,0.997
2026/05/14 10:30:28.568,-0.076,-0.13,0.93
2026/05/14 10:30:28.588,-0.013,0.007,0.866
2026/05/14 10:30:28.607,0.032,0.111,0.953
2026/05/14 10:30:28.626,0.005,0.093,0.853
2026/05/14 10:30:28.646,-0.117,0.029,1.093
2026/05/14 10:30:28.665,-0.056,0.072,1.035
2026/05/14 10:30:28.684,-0.084,0.026,0.983
2026/05/14 10:30:28.704,-0.038,0.03,0.957
2026/05/14 10:30:28.723,-0.039,0.017,0.967
2026/05/14 10:30:28.742,-0.048,0.007,0.952
2026/05/14 10:30:28.762,-0.016,-0.017,0.963
2026/05/14 10:30:28.781,-0.034,0.026,0.949
2026/05/14 10:30:28.800,-0.034,-0.021,0.968
2026/05/14 10:30:28.820,-0.042,0.051,0.972
2026/05/14 10:30:28.839,-0.036,-0.006,0.976
2026/05/14 10:30:28.858,-0.026,0.022,0.974
2026/05/14 10:30:28.878,-0.051,0.02,0.975
2026/05/14 10:30:28.897,-0.043,0.015,0.97
2026/05/14 10:30:28.916,-0.04,0.018,0.96
2026/05/14 10:30:28.936,-0.039,0.022,0.955
2026/05/14 10:30:28.955,-0.04,0.021,0.961
2026/05/14 10:30:28.974,-0.041,0.016,0.977
2026/05/14 10:30:28.993,-0.041,0.022,0.972
2026/05/14 10:30:29.013,-0.035,0.024,0.96
2026/05/14 10:30:29.032,-0.046,0.034,0.973
2026/05/14 10:30:29.051,-0.046,0.026,0.989
2026/05/14 10:30:29.071,-0.039,0.013,0.994
2026/05/14 10:30:29.090,-0.043,0.013,0.989
2026/05/14 10:30:29.109,-0.036,0.007,0.949
2026/05/14 10:30:29.129,-0.122,0.168,1.042
2026/05/14 10:30:29.148,0.041,0.041,0.836
2026/05/14 10:30:29.167,-0.074,0.03,0.982
2026/05/14 10:30:29.187,-0.029,0.023,0.971
2026/05/14 10:30:29.206,-0.102,0.038,0.949
2026/05/14 10:30:29.225,-0.005,0.042,0.969
2026/05/14 10:30:29.245,-0.056,-0.019,1.005
2026/05/14 10:30:29.264,-0.023,0.002,0.949
2026/05/14 10:30:29.283,-0.029,0.0,0.981
2026/05/14 10:30:29.303,-0.066,0.01,0.97
2026/05/14 10:30:29.322,-0.061,0.024,0.978
2026/05/14 10:30:29.341,-0.045,0.03,0.972
2026/05/14 10:30:29.361,-0.059,0.028,0.966
2026/05/14 10:30:29.380,-0.051,0.031,0.977
2026/05/14 10:30:29.399,-0.04,0.042,0.962
2026/05/14 10:30:29.419,-0.04,0.044,0.973
2026/05/14 10:30:29.438,-0.037,0.03,0.972
2026/05/14 10:30:29.457,-0.044,0.006,0.992
2026/05/14 10:30:29.477,-0.045,-0.007,0.985
2026/05/14 10:30:29.496,-0.015,-0.057,0.833
2026/05/14 10:30:29.515,-0.023,0.025,0.865
2026/05/14 10:30:29.535,-0.066,0.008,0.963
2026/05/14 10:30:29.554,-0.043,0.019,0.95
2026/05/14 10:30:29.573,-0.028,0.018,0.951
2026/05/14 10:30:29.592,-0.048,0.026,0.979
2026/05/14 10:30:29.612,-0.044,0.037,0.971
2026/05/14 10:30:29.631,-0.02,0.039,0.933
2026/05/14 10:30:29.650,-0.041,0.029,0.97
2026/05/14 10:30:29.670,-0.062,-0.037,0.957
2026/05/14 10:30:29.689,-0.047,-0.003,0.955
2026/05/14 10:30:29.708,-0.053,-0.005,0.963
2026/05/14 10:30:29.728,-0.042,-0.002,0.977
2026/05/14 10:30:29.747,-0.047,0.007,0.975
2026/05/14 10:30:29.766,-0.048,-0.01,0.965
2026/05/14 10:30:29.786,-0.086,-0.176,0.98
2026/05/14 10:30:29.805,-0.06,-0.125,0.886
2026/05/14 10:30:29.824,0.001,0.056,0.865
2026/05/14 10:30:29.844,0.098,0.341,1.003
2026/05/14 10:30:29.863,-0.016,0.293,1.082
2026/05/14 10:30:29.882,-0.028,-0.193,1.151
2026/05/14 10:30:29.902,-0.162,-0.112,1.066
2026/05/14 10:30:29.921,-0.014,-0.018,1.016
2026/05/14 10:30:29.940,-0.044,0.032,0.921
2026/05/14 10:30:29.960,-0.021,0.018,0.96
2026/05/14 10:30:29.979,-0.038,0.019,0.962
2026/05/14 10:30:29.998,-0.038,0.027,0.973
2026/05/14 10:30:30.018,-0.03,0.035,0.963
2026/05/14 10:30:30.037,-0.102,0.062,0.915
2026/05/14 10:30:30.056,-0.102,0.027,0.925
2026/05/14 10:30:30.076,0.007,-0.021,0.905
2026/05/14 10:30:30.095,0.116,0.068,1.033
2026/05/14 10:30:30.114,-0.046,0.011,0.923
2026/05/14 10:30:30.133,-0.134,0.064,0.98
2026/05/14 10:30:30.153,-0.211,0.209,0.906
2026/05/14 10:30:30.172,-0.09,0.095,1.074
2026/05/14 10:30:30.191,0.229,0.096,1.035
2026/05/14 10:30:30.211,-0.003,-0.142,1.165
2026/05/14 10:30:30.230,-0.095,0.107,0.839
2026/05/14 10:30:30.249,-0.006,0.043,0.931
2026/05/14 10:30:30.269,-0.052,-0.091,0.962
2026/05/14 10:30:30.288,-0.094,0.166,0.935
2026/05/14 10:30:30.307,-0.04,0.016,0.898
2026/05/14 10:30:30.327,-0.061,-0.019,0.967
2026/05/14 10:30:30.346,0.035,0.002,0.963
2026/05/14 10:30:30.365,-0.064,0.016,0.974
2026/05/14 10:30:30.385,-0.036,0.007,0.973
2026/05/14 10:30:30.404,-0.028,0.012,0.971
2026/05/14 10:30:30.423,0.021,0.027,0.957
2026/05/14 10:30:30.443,-0.049,0.031,0.974
2026/05/14 10:30:30.462,-0.065,0.021,0.991
2026/05/14 10:30:30.481,-0.045,0.025,0.982
2026/05/14 10:30:30.501,-0.035,0.037,0.97
2026/05/14 10:30:30.520,-0.034,0.043,0.966
2026/05/14 10:30:30.539,-0.04,0.032,0.967
2026/05/14 10:30:30.559,-0.036,0.02,0.971
2026/05/14 10:30:30.578,-0.032,0.007,0.971
2026/05/14 10:30:30.597,-0.047,0.0,0.979
2026/05/14 10:30:30.617,-0.043,0.004,0.967
2026/05/14 10:30:30.636,-0.043,0.005,0.969
2026/05/14 10:30:30.655,-0.035,0.014,0.973
2026/05/14 10:30:30.674,-0.03,0.016,0.961
2026/05/14 10:30:30.694,-0.028,0.027,0.966
2026/05/14 10:30:30.713,-0.027,0.026,0.963
2026/05/14 10:30:30.732,-0.041,0.027,0.963
2026/05/14 10:30:30.752,-0.048,0.019,0.972
2026/05/14 10:30:30.771,-0.051,0.018,0.971
2026/05/14 10:30:30.790,-0.053,0.018,0.973
2026/05/14 10:30:30.810,-0.046,0.022,0.967
2026/05/14 10:30:30.829,-0.037,0.019,0.966
2026/05/14 10:30:30.848,-0.032,0.019,0.968
2026/05/14 10:30:30.868,-0.033,0.022,0.974
2026/05/14 10:30:30.887,-0.038,0.018,0.965
2026/05/14 10:30:30.906,-0.036,0.017,0.961
2026/05/14 10:30:30.926,-0.039,0.012,0.972
2026/05/14 10:30:30.945,-0.041,0.003,0.974
2026/05/14 10:30:30.964,-0.042,0.013,0.968
2026/05/14 10:30:30.984,-0.038,0.014,0.967
2026/05/14 10:30:31.003,-0.036,0.022,0.975
2026/05/14 10:30:31.022,-0.039,0.029,0.969
2026/05/14 10:30:31.042,-0.04,0.025,0.968
2026/05/14 10:30:31.061,-0.038,0.029,0.967
2026/05/14 10:30:31.080,-0.037,0.025,0.97
2026/05/14 10:30:31.100,-0.044,0.018,0.968
2026/05/14 10:30:31.119,-0.048,0.018,0.971
2026/05/14 10:30:31.138,-0.045,0.015,0.97
2026/05/14 10:30:31.157,-0.04,0.013,0.973
2026/05/14 10:30:31.177,-0.035,0.018,0.964
2026/05/14 10:30:31.196,-0.036,0.013,0.962
2026/05/14 10:30:31.215,-0.034,0.015,0.97
2026/05/14 10:30:31.235,-0.037,0.018,0.968
2026/05/14 10:30:31.254,-0.035,0.019,0.964
2026/05/14 10:30:31.273,-0.046,0.018,0.972
2026/05/14 10:30:31.293,-0.042,0.019,0.968
2026/05/14 10:30:31.312,-0.043,0.015,0.972
2026/05/14 10:30:31.331,-0.045,0.02,0.971
2026/05/14 10:30:31.351,-0.044,0.018,0.97
2026/05/14 10:30:31.370,-0.036,0.024,0.966
2026/05/14 10:30:31.389,-0.036,0.027,0.971
2026/05/14 10:30:31.409,-0.039,0.019,0.965
2026/05/14 10:30:31.428,-0.037,0.017,0.965
2026/05/14 10:30:31.447,-0.038,0.014,0.966
2026/05/14 10:30:31.467,-0.042,0.015,0.97
2026/05/14 10:30:31.486,-0.045,0.017,0.964
2026/05/14 10:30:31.505,-0.043,0.017,0.966
2026/05/14 10:30:31.525,-0.038,0.018,0.968
2026/05/14 10:30:31.544,-0.037,0.021,0.967
2026/05/14 10:30:31.563,-0.038,0.024,0.961
2026/05/14 10:30:31.583,-0.04,0.021,0.968
2026/05/14 10:30:31.602,-0.042,0.026,0.97
2026/05/14 10:30:31.621,-0.042,0.018,0.969
2026/05/14 10:30:31.641,-0.045,0.02,0.969
2026/05/14 10:30:31.660,-0.04,0.017,0.963
2026/05/14 10:30:31.679,-0.042,0.017,0.978
2026/05/14 10:30:31.698,-0.038,0.017,0.97
2026/05/14 10:30:31.718,-0.036,0.016,0.963
2026/05/14 10:30:31.737,-0.04,0.02,0.968
2026/05/14 10:30:31.756,-0.039,0.02,0.967
2026/05/14 10:30:31.776,-0.039,0.02,0.963
2026/05/14 10:30:31.795,-0.042,0.017,0.966
2026/05/14 10:30:31.814,-0.041,0.021,0.974
2026/05/14 10:30:31.834,-0.044,0.018,0.97
2026/05/14 10:30:31.853,-0.04,0.024,0.968
2026/05/14 10:30:31.872,-0.039,0.018,0.968
2026/05/14 10:30:31.892,-0.044,0.017,0.974
2026/05/14 10:30:31.911,-0.038,0.021,0.965
2026/05/14 10:30:31.930,-0.039,0.022,0.971
2026/05/14 10:30:31.950,-0.038,0.018,0.968
2026/05/14 10:30:31.969,-0.042,0.014,0.971
2026/05/14 10:30:31.988,-0.039,0.012,0.966
2026/05/14 10:30:32.008,-0.036,0.018,0.972
2026/05/14 10:30:32.027,-0.037,0.018,0.97
2026/05/14 10:30:32.046,-0.039,0.018,0.971
2026/05/14 10:30:32.066,-0.035,0.02,0.97
2026/05/14 10:30:32.085,-0.042,0.021,0.971
2026/05/14 10:30:32.104,-0.041,0.016,0.967
2026/05/14 10:30:32.124,-0.041,0.022,0.967
2026/05/14 10:30:32.143,-0.044,0.022,0.969
2026/05/14 10:30:32.162,-0.041,0.017,0.969
2026/05/14 10:30:32.182,-0.038,0.019,0.97
2026/05/14 10:30:32.201,-0.039,0.017,0.969
2026/05/14 10:30:32.220,-0.048,0.014,0.971
2026/05/14 10:30:32.239,-0.031,0.009,0.911
2026/05/14 10:30:32.259,-0.04,0.005,0.961
2026/05/14 10:30:32.278,-0.022,0.01,0.939
2026/05/14 10:30:32.297,-0.058,0.022,1.039
2026/05/14 10:30:32.317,0.009,0.058,0.865
2026/05/14 10:30:32.336,-0.028,-0.023,1.092
2026/05/14 10:30:32.355,-0.075,0.079,1.118
2026/05/14 10:30:32.375,-0.051,0.02,0.936
2026/05/14 10:30:32.394,-0.022,0.016,0.998
2026/05/14 10:30:32.413,-0.037,0.027,0.944
2026/05/14 10:30:32.433,-0.011,0.024,0.967
2026/05/14 10:30:32.452,-0.028,0.013,0.99
2026/05/14 10:30:32.471,-0.046,0.012,0.961
2026/05/14 10:30:32.491,-0.067,0.0,0.959
2026/05/14 10:30:32.510,-0.073,0.012,1.019
2026/05/14 10:30:32.529,-0.038,0.013,0.966
2026/05/14 10:30:32.549,-0.017,0.005,0.988
2026/05/14 10:30:32.568,-0.025,0.03,0.968
2026/05/14 10:30:32.587,-0.028,0.044,0.966
2026/05/14 10:30:32.607,-0.034,0.046,0.965
2026/05/14 10:30:32.626,-0.041,0.041,0.971
2026/05/14 10:30:32.645,-0.052,0.019,0.966
2026/05/14 10:30:32.665,-0.046,0.0,0.96
2026/05/14 10:30:32.684,-0.059,0.005,0.971
2026/05/14 10:30:32.703,-0.055,0.01,0.968
2026/05/14 10:30:32.723,-0.038,0.024,0.968
2026/05/14 10:30:32.742,-0.025,0.028,0.964
2026/05/14 10:30:32.761,-0.012,0.033,0.969
2026/05/14 10:30:32.780,-0.023,0.017,0.967
2026/05/14 10:30:32.800,-0.033,0.013,0.973
2026/05/14 10:30:32.819,0.007,-0.007,0.977
2026/05/14 10:30:32.838,-0.062,0.012,0.991
2026/05/14 10:30:32.858,-0.057,0.013,0.973
2026/05/14 10:30:32.877,-0.056,0.016,0.97
2026/05/14 10:30:32.896,-0.046,0.028,0.974
2026/05/14 10:30:32.916,-0.041,0.033,0.99
2026/05/14 10:30:32.935,0.074,-0.018,0.026
2026/05/14 10:30:32.954,0.047,0.035,0.81
2026/05/14 10:30:32.974,-0.015,0.028,0.959
2026/05/14 10:30:32.993,-0.061,0.023,0.994
2026/05/14 10:30:33.012,-0.071,0.005,0.996
2026/05/14 10:30:33.032,-0.038,0.028,0.744
2026/05/14 10:30:33.051,0.05,-0.013,0.759
2026/05/14 10:30:33.070,-0.046,0.014,0.963
2026/05/14 10:30:33.090,-0.042,0.026,0.972
2026/05/14 10:30:33.109,-0.019,0.022,0.97
2026/05/14 10:30:33.128,-0.114,0.127,1.777
2026/05/14 10:30:33.148,-0.038,0.04,0.953
2026/05/14 10:30:33.167,-0.019,0.018,0.926
2026/05/14 10:30:33.186,0.046,0.007,0.16
2026/05/14 10:30:33.206,-0.048,-0.019,0.955
2026/05/14 10:30:33.225,-0.067,0.021,0.994
2026/05/14 10:30:33.244,-0.013,0.061,0.974
2026/05/14 10:30:33.264,-0.01,0.021,0.939
2026/05/14 10:30:33.283,-0.049,0.022,1.005
2026/05/14 10:30:33.302,-0.027,0.026,0.943
2026/05/14 10:30:33.321,0.021,0.097,1.002
2026/05/14 10:30:33.341,-0.053,0.046,1.082
2026/05/14 10:30:33.360,-0.047,0.007,0.972
2026/05/14 10:30:33.379,-0.034,0.008,0.917
2026/05/14 10:30:33.399,-0.054,0.016,0.986
2026/05/14 10:30:33.418,-0.02,0.008,0.925
2026/05/14 10:30:33.437,-0.016,0.013,0.918
2026/05/14 10:30:33.457,-0.038,0.031,0.966
2026/05/14 10:30:33.476,-0.038,0.039,0.965
2026/05/14 10:30:33.495,-0.051,0.036,1.01
2026/05/14 10:30:33.515,-0.035,0.012,0.965
2026/05/14 10:30:33.534,-0.053,0.019,0.985
2026/05/14 10:30:33.553,-0.047,0.014,0.975
2026/05/14 10:30:33.573,-0.11,0.04,1.077
2026/05/14 10:30:33.592,-0.037,0.021,0.969
2026/05/14 10:30:33.611,-0.028,0.021,0.976
2026/05/14 10:30:33.631,-0.036,0.024,0.969
2026/05/14 10:30:33.650,-0.045,0.023,0.979
2026/05/14 10:30:33.669,-0.048,0.017,0.981
2026/05/14 10:30:33.689,-0.043,0.006,0.993
2026/05/14 10:30:33.708,-0.068,0.024,0.991
2026/05/14 10:30:33.727,-0.044,0.025,0.985
2026/05/14 10:30:33.747,0.142,0.029,0.903
2026/05/14 10:30:33.766,0.057,0.014,0.205
2026/05/14 10:30:33.785,0.005,0.048,1.214
2026/05/14 10:30:33.805,-0.201,0.224,2.021
2026/05/14 10:30:33.824,0.098,0.01,0.818
2026/05/14 10:30:33.843,-0.015,0.012,0.933
2026/05/14 10:30:33.862,-0.039,-0.014,0.925
2026/05/14 10:30:33.882,-0.051,0.005,0.973
2026/05/14 10:30:33.901,-0.039,0.016,0.952
2026/05/14 10:30:33.920,-0.026,0.034,0.968
2026/05/14 10:30:33.940,-0.008,0.037,0.986
2026/05/14 10:30:33.959,-0.02,0.026,0.97
2026/05/14 10:30:33.978,-0.045,0.022,0.974
2026/05/14 10:30:33.998,-0.049,0.008,0.974
2026/05/14 10:30:34.017,-0.047,0.018,0.981
2026/05/14 10:30:34.036,-0.05,0.017,0.975
2026/05/14 10:30:34.056,-0.053,0.018,0.971
2026/05/14 10:30:34.075,-0.047,0.016,0.972
2026/05/14 10:30:34.094,-0.039,0.024,0.98
2026/05/14 10:30:34.114,-0.037,0.04,1.026
2026/05/14 10:30:34.133,-0.041,-0.135,1.675
2026/05/14 10:30:34.152,0.076,-0.023,0.583
2026/05/14 10:30:34.172,-0.011,0.005,1.036
2026/05/14 10:30:34.191,-0.039,0.008,0.936
2026/05/14 10:30:34.210,-0.048,0.011,0.969
2026/05/14 10:30:34.230,-0.149,0.027,1.211
2026/05/14 10:30:34.249,0.01,0.033,0.784
2026/05/14 10:30:34.268,-0.002,-0.015,0.834
2026/05/14 10:30:34.288,-0.04,0.018,1.003
2026/05/14 10:30:34.307,-0.031,0.023,0.968
2026/05/14 10:30:34.326,-0.036,0.027,0.964
2026/05/14 10:30:34.345,-0.045,0.02,0.971
2026/05/14 10:30:34.365,-0.041,0.014,0.96
2026/05/14 10:30:34.384,-0.044,0.016,0.973
2026/05/14 10:30:34.403,-0.048,0.022,0.991
2026/05/14 10:30:34.423,-0.04,0.02,0.981
2026/05/14 10:30:34.442,-0.008,0.004,0.809
2026/05/14 10:30:34.461,0.014,0.014,0.855
2026/05/14 10:30:34.481,0.065,-0.003,0.472
2026/05/14 10:30:34.500,0.006,0.027,0.858
2026/05/14 10:30:34.519,-0.048,0.012,1.012
2026/05/14 10:30:34.539,0.014,0.01,0.845
2026/05/14 10:30:34.558,-0.075,0.055,0.947
2026/05/14 10:30:34.577,-0.02,0.008,0.926
2026/05/14 10:30:34.597,0.006,0.012,0.86
2026/05/14 10:30:34.616,0.074,0.01,0.56
2026/05/14 10:30:34.635,-0.062,0.02,1.0
2026/05/14 10:30:34.655,-0.065,0.014,1.035
2026/05/14 10:30:34.674,-0.015,0.022,0.921
2026/05/14 10:30:34.693,-0.043,0.022,0.966
2026/05/14 10:30:34.713,-0.039,0.019,0.963
2026/05/14 10:30:34.732,-0.045,0.019,0.961
2026/05/14 10:30:34.751,-0.019,0.001,0.941
2026/05/14 10:30:34.771,0.064,-0.025,0.897
2026/05/14 10:30:34.790,-0.141,0.015,1.146
2026/05/14 10:30:34.809,-0.027,0.029,0.951
2026/05/14 10:30:34.829,-0.03,0.024,0.949
2026/05/14 10:30:34.848,-0.022,0.027,0.949
2026/05/14 10:30:34.867,-0.026,0.019,0.963
2026/05/14 10:30:34.886,-0.021,-0.16,0.763
2026/05/14 10:30:34.906,-0.225,-0.298,1.46
2026/05/14 10:30:34.925,-0.011,0.293,0.631
2026/05/14 10:30:34.944,-0.13,-0.011,1.173
2026/05/14 10:30:34.964,0.091,-0.182,1.106
2026/05/14 10:30:34.983,-0.102,0.172,0.693
2026/05/14 10:30:35.002,-0.11,0.127,0.853
2026/05/14 10:30:35.022,0.045,-0.117,1.066
2026/05/14 10:30:35.041,-0.124,0.208,0.715
2026/05/14 10:30:35.060,-0.046,-0.098,0.81
2026/05/14 10:30:35.080,-0.01,-0.098,1.146
2026/05/14 10:30:35.099,-0.108,0.183,0.801
2026/05/14 10:30:35.118,-0.04,-0.111,1.104
2026/05/14 10:30:35.138,-0.056,0.158,0.725
2026/05/14 10:30:35.157,-0.061,-0.115,1.147
2026/05/14 10:30:35.176,-0.031,0.119,0.719
2026/05/14 10:30:35.196,-0.021,-0.103,1.038
2026/05/14 10:30:35.215,-0.012,0.069,0.928
2026/05/14 10:30:35.234,-0.031,0.068,0.911
2026/05/14 10:30:35.254,-0.038,-0.079,1.084
2026/05/14 10:30:35.273,-0.043,0.038,0.945
2026/05/14 10:30:35.292,0.022,0.056,0.885
2026/05/14 10:30:35.312,-0.092,0.128,0.921
2026/05/14 10:30:35.331,0.052,0.014,0.747
2026/05/14 10:30:35.350,-0.038,0.02,0.854
2026/05/14 10:30:35.370,-0.041,0.015,0.976
2026/05/14 10:30:35.389,-0.025,0.026,0.983
2026/05/14 10:30:35.408,-0.03,0.028,0.963
2026/05/14 10:30:35.427,-0.033,0.021,0.968
2026/05/14 10:30:35.447,-0.028,0.016,0.894
2026/05/14 10:30:35.466,-0.042,0.015,0.98
2026/05/14 10:30:35.485,-0.047,0.016,0.965
2026/05/14 10:30:35.505,-0.047,0.01,0.974
2026/05/14 10:30:35.524,-0.045,0.01,0.97
2026/05/14 10:30:35.543,-0.04,0.017,0.97
2026/05/14 10:30:35.563,-0.055,-0.039,1.037
2026/05/14 10:30:35.582,0.012,0.043,0.844
2026/05/14 10:30:35.601,-0.049,0.011,1.014
2026/05/14 10:30:35.621,-0.033,0.05,0.991
2026/05/14 10:30:35.640,0.038,0.059,0.799
2026/05/14 10:30:35.659,-0.054,0.017,0.98
2026/05/14 10:30:35.679,-0.069,0.02,0.997
2026/05/14 10:30:35.698,-0.004,0.029,0.997
2026/05/14 10:30:35.717,-0.13,0.016,1.062
2026/05/14 10:30:35.737,-0.016,-0.03,0.855
2026/05/14 10:30:35.756,0.011,0.016,0.856
2026/05/14 10:30:35.775,0.008,0.028,0.935
2026/05/14 10:30:35.795,-0.038,0.014,0.966
2026/05/14 10:30:35.814,-0.043,0.023,0.975
2026/05/14 10:30:35.833,-0.037,0.019,0.952
2026/05/14 10:30:35.853,-0.046,0.012,0.979
2026/05/14 10:30:35.872,-0.043,0.018,0.953
2026/05/14 10:30:35.891,-0.004,0.021,0.73
2026/05/14 10:30:35.911,-0.012,0.008,0.755
2026/05/14 10:30:35.930,-0.028,0.016,1.03
2026/05/14 10:30:35.949,-0.047,0.021,0.974
2026/05/14 10:30:35.968,-0.039,0.018,0.969
2026/05/14 10:30:35.988,-0.042,0.016,0.971
2026/05/14 10:30:36.007,-0.04,0.019,0.966
2026/05/14 10:30:36.026,-0.048,0.013,0.969
2026/05/14 10:30:36.046,-0.037,0.014,0.948
2026/05/14 10:30:36.065,-0.168,0.083,1.113
2026/05/14 10:30:36.084,-0.06,-0.009,0.949
2026/05/14 10:30:36.104,-0.036,0.016,0.971
2026/05/14 10:30:36.123,-0.046,0.016,0.97
2026/05/14 10:30:36.142,-0.033,0.02,0.945
2026/05/14 10:30:36.162,-0.044,-0.011,0.958
2026/05/14 10:30:36.181,-0.013,0.029,0.833
2026/05/14 10:30:36.200,0.033,0.018,0.849
2026/05/14 10:30:36.220,-0.007,0.016,0.881
2026/05/14 10:30:36.239,0.026,0.017,1.676
2026/05/14 10:30:36.258,0.069,0.027,0.642
2026/05/14 10:30:36.278,-0.088,0.025,1.054
2026/05/14 10:30:36.297,-0.037,0.011,1.002
2026/05/14 10:30:36.316,0.086,0.041,0.235
2026/05/14 10:30:36.336,-0.032,0.023,0.837
2026/05/14 10:30:36.355,0.039,0.044,0.506
2026/05/14 10:30:36.374,-0.1,0.016,1.033
2026/05/14 10:30:36.394,-0.046,0.015,0.99
2026/05/14 10:30:36.413,0.01,0.034,0.816
2026/05/14 10:30:36.432,-0.031,0.031,0.922
2026/05/14 10:30:36.452,-0.036,0.021,0.953
2026/05/14 10:30:36.471,-0.039,0.021,0.965
2026/05/14 10:30:36.490,-0.046,0.018,0.957
2026/05/14 10:30:36.509,-0.045,0.019,0.958
2026/05/14 10:30:36.529,-0.047,0.021,0.967
2026/05/14 10:30:36.548,-0.013,-0.024,0.921
2026/05/14 10:30:36.567,0.005,0.021,0.912
2026/05/14 10:30:36.587,-0.013,0.038,0.981
2026/05/14 10:30:36.606,-0.046,0.012,0.999
2026/05/14 10:30:36.625,-0.039,0.034,0.961
2026/05/14 10:30:36.645,-0.044,0.037,0.997
2026/05/14 10:30:36.664,-0.026,0.018,0.944
2026/05/14 10:30:36.683,0.079,0.047,0.863
2026/05/14 10:30:36.703,-0.05,0.015,0.984
2026/05/14 10:30:36.722,0.088,0.036,0.681
2026/05/14 10:30:36.741,-0.087,0.02,0.968
2026/05/14 10:30:36.761,-0.016,0.115,0.46
2026/05/14 10:30:36.780,-0.096,-0.004,1.137
2026/05/14 10:30:36.799,-0.078,0.02,0.987
2026/05/14 10:30:36.819,-0.037,-0.003,0.969
2026/05/14 10:30:36.838,-0.035,0.013,0.992
2026/05/14 10:30:36.857,-0.051,0.019,0.986
2026/05/14 10:30:36.877,-0.078,0.023,1.027
2026/05/14 10:30:36.896,-0.051,0.026,0.952
2026/05/14 10:30:36.915,-0.04,0.024,0.935
2026/05/14 10:30:36.935,-0.052,0.026,0.976
2026/05/14 10:30:36.954,-0.067,0.021,1.01
2026/05/14 10:30:36.973,-0.035,0.031,0.913
2026/05/14 10:30:36.993,-0.036,0.023,0.968
2026/05/14 10:30:37.012,-0.04,0.011,0.961
2026/05/14 10:30:37.031,-0.06,0.004,1.055
2026/05/14 10:30:37.050,-0.022,-0.01,0.962
2026/05/14 10:30:37.070,-0.038,0.007,0.98
2026/05/14 10:30:37.089,-0.037,0.008,0.978
2026/05/14 10:30:37.108,-0.041,0.016,0.975
2026/05/14 10:30:37.128,-0.122,-0.066,0.57
2026/05/14 10:30:37.147,-0.046,0.014,0.999
2026/05/14 10:30:37.166,-0.06,0.021,0.977
2026/05/14 10:30:37.186,-0.043,0.031,0.962
2026/05/14 10:30:37.205,-0.053,0.019,0.992
2026/05/14 10:30:37.224,-0.043,0.019,0.952
2026/05/14 10:30:37.244,-0.064,0.014,1.025
2026/05/14 10:30:37.263,-0.049,0.02,1.029
2026/05/14 10:30:37.282,0.03,0.038,0.757
2026/05/14 10:30:37.302,-0.184,-0.033,1.355
2026/05/14 10:30:37.321,-0.036,0.004,0.986
2026/05/14 10:30:37.340,-0.042,0.014,0.962
2026/05/14 10:30:37.360,-0.031,0.007,0.96
2026/05/14 10:30:37.379,-0.046,0.021,0.98
2026/05/14 10:30:37.398,-0.045,0.022,0.972
2026/05/14 10:30:37.418,-0.041,0.02,0.967
2026/05/14 10:30:37.437,-0.037,-0.016,1.041
2026/05/14 10:30:37.456,-0.052,0.022,0.984
2026/05/14 10:30:37.476,-0.008,0.033,0.912
2026/05/14 10:30:37.495,-0.042,0.023,0.951
2026/05/14 10:30:37.514,-0.068,-0.005,1.107
2026/05/14 10:30:37.534,-0.043,0.016,0.966
2026/05/14 10:30:37.553,-0.016,0.009,0.894
2026/05/14 10:30:37.572,-0.043,0.011,0.972
2026/05/14 10:30:37.592,-0.029,-0.003,1.056
2026/05/14 10:30:37.611,-0.036,0.038,0.913
2026/05/14 10:30:37.630,-0.051,0.023,0.989
2026/05/14 10:30:37.649,-0.035,0.014,0.967
2026/05/14 10:30:37.669,-0.03,0.016,0.94
2026/05/14 10:30:37.688,-0.044,0.018,0.973
2026/05/14 10:30:37.707,-0.043,0.021,0.96
2026/05/14 10:30:37.727,-0.08,0.011,1.067
2026/05/14 10:30:37.746,-0.035,0.023,0.945
2026/05/14 10:30:37.765,-0.047,0.02,0.983
2026/05/14 10:30:37.785,-0.039,0.018,0.971
2026/05/14 10:30:37.804,-0.04,0.022,0.948
2026/05/14 10:30:37.823,-0.043,0.02,0.97
2026/05/14 10:30:37.843,-0.047,0.021,0.972
2026/05/14 10:30:37.862,-0.143,0.074,0.999
2026/05/14 10:30:37.881,-0.033,0.017,1.034
2026/05/14 10:30:37.901,-0.093,0.007,1.096
2026/05/14 10:30:37.920,-0.08,0.004,1.127
2026/05/14 10:30:37.939,-0.073,0.029,1.012
2026/05/14 10:30:37.959,0.051,0.026,0.754
2026/05/14 10:30:37.978,0.068,0.061,0.611
2026/05/14 10:30:37.997,-0.106,0.03,1.086
2026/05/14 10:30:38.017,0.019,0.045,0.904
2026/05/14 10:30:38.036,-0.017,0.026,0.974
2026/05/14 10:30:38.055,-0.04,0.025,0.955
2026/05/14 10:30:38.075,0.065,0.024,0.591
2026/05/14 10:30:38.094,-0.091,0.023,1.019
2026/05/14 10:30:38.113,-0.032,0.035,0.952
2026/05/14 10:30:38.133,-0.061,0.01,1.028
2026/05/14 10:30:38.152,-0.041,0.02,0.912
2026/05/14 10:30:38.171,-0.066,0.011,1.014
2026/05/14 10:30:38.191,-0.048,0.013,0.976
2026/05/14 10:30:38.210,-0.038,0.009,0.973
2026/05/14 10:30:38.229,-0.042,0.021,0.97
2026/05/14 10:30:38.248,-0.039,0.019,0.962
2026/05/14 10:30:38.268,-0.043,0.022,0.96
2026/05/14 10:30:38.287,-0.043,0.02,0.971
2026/05/14 10:30:38.306,-0.045,0.022,0.968
2026/05/14 10:30:38.326,-0.046,0.017,0.966
2026/05/14 10:30:38.345,-0.138,0.013,1.101
2026/05/14 10:30:38.364,-0.014,0.044,0.991
2026/05/14 10:30:38.384,-0.061,0.023,1.017
2026/05/14 10:30:38.403,-0.036,0.021,0.957
2026/05/14 10:30:38.422,-0.044,0.024,0.965
2026/05/14 10:30:38.442,-0.026,0.032,0.951
2026/05/14 10:30:38.461,-0.042,0.013,0.974
2026/05/14 10:30:38.480,-0.052,0.014,0.973
2026/05/14 10:30:38.500,-0.055,0.013,0.989
2026/05/14 10:30:38.519,-0.053,0.014,0.97
2026/05/14 10:30:38.538,-0.049,0.014,0.974
2026/05/14 10:30:38.558,-0.045,0.019,0.939
2026/05/14 10:30:38.577,-0.052,0.003,1.012
2026/05/14 10:30:38.596,0.071,0.025,-0.055
2026/05/14 10:30:38.616,-0.046,0.036,1.071
2026/05/14 10:30:38.635,-0.086,0.065,0.798
2026/05/14 10:30:38.654,-0.015,0.027,0.879
2026/05/14 10:30:38.674,0.065,0.005,0.741
2026/05/14 10:30:38.693,-0.012,0.091,0.713
2026/05/14 10:30:38.712,-0.087,-0.011,0.95
2026/05/14 10:30:38.732,-0.017,0.022,0.951
2026/05/14 10:30:38.751,-0.033,0.016,0.997
2026/05/14 10:30:38.770,-0.045,0.012,0.987
2026/05/14 10:30:38.790,-0.057,0.022,0.95
2026/05/14 10:30:38.809,-0.047,0.009,0.963
2026/05/14 10:30:38.828,-0.034,0.019,0.975
2026/05/14 10:30:38.848,-0.044,0.02,0.994
2026/05/14 10:30:38.867,-0.049,0.026,0.967
2026/05/14 10:30:38.886,-0.044,0.026,0.966
2026/05/14 10:30:38.905,-0.043,0.018,0.976
2026/05/14 10:30:38.925,-0.053,0.017,0.982
2026/05/14 10:30:38.944,-0.054,0.017,0.972
2026/05/14 10:30:38.963,-0.07,0.015,1.0
2026/05/14 10:30:38.983,-0.049,0.021,0.973
2026/05/14 10:30:39.002,-0.028,0.059,0.902
2026/05/14 10:30:39.021,-0.045,0.023,0.981
2026/05/14 10:30:39.041,-0.053,0.027,0.991
2026/05/14 10:30:39.060,0.011,0.035,0.805
2026/05/14 10:30:39.079,-0.047,0.007,1.019
2026/05/14 10:30:39.099,-0.046,0.02,1.039
2026/05/14 10:30:39.118,-0.111,0.013,1.081
2026/05/14 10:30:39.137,-0.028,0.016,0.896
2026/05/14 10:30:39.157,-0.113,-0.017,1.102
2026/05/14 10:30:39.176,-0.013,-0.031,1.106
2026/05/14 10:30:39.195,-0.064,0.017,0.914
2026/05/14 10:30:39.215,-0.245,-0.048,1.484
2026/05/14 10:30:39.234,-0.034,0.018,0.921
2026/05/14 10:30:39.253,-0.123,0.037,1.128
2026/05/14 10:30:39.273,-0.071,0.115,0.932
2026/05/14 10:30:39.292,-0.107,-0.022,1.057
2026/05/14 10:30:39.311,-0.041,0.017,0.97
2026/05/14 10:30:39.331,-0.035,0.019,0.97
2026/05/14 10:30:39.350,-0.036,0.022,0.97
2026/05/14 10:30:39.369,-0.045,0.022,0.971
2026/05/14 10:30:39.389,-0.039,0.009,0.974
2026/05/14 10:30:39.408,-0.038,0.015,0.966
2026/05/14 10:30:39.427,-0.042,0.017,0.961
2026/05/14 10:30:39.447,-0.046,0.015,0.968
2026/05/14 10:30:39.466,-0.046,0.018,0.969
2026/05/14 10:30:39.485,-0.042,0.023,0.97
2026/05/14 10:30:39.504,-0.04,0.021,0.962
2026/05/14 10:30:39.524,-0.043,0.022,0.965
2026/05/14 10:30:39.543,-0.043,0.023,0.965
2026/05/14 10:30:39.562,-0.043,0.017,0.966
2026/05/14 10:30:39.582,-0.043,0.018,0.974
2026/05/14 10:30:39.601,-0.044,0.015,0.974
2026/05/14 10:30:39.620,-0.043,0.012,0.966
2026/05/14 10:30:39.640,-0.036,0.014,0.967
2026/05/14 10:30:39.659,-0.04,0.015,0.967
2026/05/14 10:30:39.678,-0.038,0.019,0.968
2026/05/14 10:30:39.698,-0.043,0.021,0.971
2026/05/14 10:30:39.717,-0.042,0.022,0.97
2026/05/14 10:30:39.736,-0.044,0.021,0.971
2026/05/14 10:30:39.756,-0.044,0.016,0.967
2026/05/14 10:30:39.775,-0.044,0.02,0.972
2026/05/14 10:30:39.794,-0.043,0.022,0.972
2026/05/14 10:30:39.814,-0.046,0.024,0.968
2026/05/14 10:30:39.833,-0.043,0.018,0.971
2026/05/14 10:30:39.852,-0.042,0.02,0.97
2026/05/14 10:30:39.872,-0.039,0.02,0.97
2026/05/14 10:30:39.891,-0.04,0.018,0.973
2026/05/14 10:30:39.910,-0.043,0.012,0.969
2026/05/14 10:30:39.930,-0.046,0.014,0.964
2026/05/14 10:30:39.949,-0.046,0.015,0.973
2026/05/14 10:30:39.968,-0.042,0.015,0.969
2026/05/14 10:30:39.987,-0.039,0.017,0.967
2026/05/14 10:30:40.007,-0.041,0.02,0.971
2026/05/14 10:30:40.026,-0.039,0.022,0.969
2026/05/14 10:30:40.045,-0.044,0.022,0.969
2026/05/14 10:30:40.065,-0.045,0.017,0.967
2026/05/14 10:30:40.084,-0.046,0.02,0.966
2026/05/14 10:30:40.103,-0.041,0.019,0.97
2026/05/14 10:30:40.123,-0.044,0.018,0.968
2026/05/14 10:30:40.142,-0.041,0.018,0.969
2026/05/14 10:30:40.161,-0.042,0.015,0.969
2026/05/14 10:30:40.181,-0.041,0.019,0.968
2026/05/14 10:30:40.200,-0.042,0.015,0.973
2026/05/14 10:30:40.219,-0.042,0.019,0.972
2026/05/14 10:30:40.239,-0.043,0.017,0.968
2026/05/14 10:30:40.258,-0.042,0.018,0.968
2026/05/14 10:30:40.277,-0.045,0.017,0.971
2026/05/14 10:30:40.297,-0.042,0.015,0.968
2026/05/14 10:30:40.316,-0.041,0.02,0.964
2026/05/14 10:30:40.335,-0.04,0.018,0.969
2026/05/14 10:30:40.355,-0.041,0.018,0.97
2026/05/14 10:30:40.374,-0.042,0.017,0.969
2026/05/14 10:30:40.393,-0.046,0.018,0.971
2026/05/14 10:30:40.413,-0.045,0.017,0.966
2026/05/14 10:30:40.432,-0.045,0.016,0.967
2026/05/14 10:30:40.451,-0.043,0.016,0.967
2026/05/14 10:30:40.470,-0.042,0.017,0.973
2026/05/14 10:30:40.490,-0.041,0.021,0.971
2026/05/14 10:30:40.509,-0.038,0.019,0.969
2026/05/14 10:30:40.528,-0.036,0.024,0.968
2026/05/14 10:30:40.548,-0.043,0.023,0.966
2026/05/14 10:30:40.567,-0.042,0.017,0.967
2026/05/14 10:30:40.586,-0.045,0.017,0.969
2026/05/14 10:30:40.606,-0.046,0.018,0.973
2026/05/14 10:30:40.625,-0.043,0.018,0.967
2026/05/14 10:30:40.644,-0.041,0.017,0.97
2026/05/14 10:30:40.664,-0.041,0.02,0.97
2026/05/14 10:30:40.683,-0.042,0.015,0.973
2026/05/14 10:30:40.702,-0.04,0.018,0.97
2026/05/14 10:30:40.722,-0.042,0.015,0.969
2026/05/14 10:30:40.741,-0.043,0.018,0.971
2026/05/14 10:30:40.760,-0.044,0.016,0.971
2026/05/14 10:30:40.780,-0.045,0.015,0.967
2026/05/14 10:30:40.799,-0.043,0.02,0.972
2026/05/14 10:30:40.818,-0.042,0.019,0.972
2026/05/14 10:30:40.838,-0.041,0.02,0.965
2026/05/14 10:30:40.857,-0.041,0.017,0.97
2026/05/14 10:30:40.876,-0.041,0.019,0.967
2026/05/14 10:30:40.896,-0.043,0.019,0.966
2026/05/14 10:30:40.915,-0.044,0.014,0.97
2026/05/14 10:30:40.934,-0.044,0.016,0.97
2026/05/14 10:30:40.954,-0.04,0.018,0.967
2026/05/14 10:30:40.973,-0.045,0.015,0.969
2026/05/14 10:30:40.992,-0.042,0.016,0.97
2026/05/14 10:30:41.011,-0.044,0.018,0.97
2026/05/14 10:30:41.031,-0.044,0.022,0.968
2026/05/14 10:30:41.050,-0.044,0.018,0.968
2026/05/14 10:30:41.069,-0.046,0.02,0.968
2026/05/14 10:30:41.089,-0.046,0.019,0.969
2026/05/14 10:30:41.108,-0.043,0.018,0.97
2026/05/14 10:30:41.127,-0.042,0.02,0.969
2026/05/14 10:30:41.147,-0.041,0.021,0.97
2026/05/14 10:30:41.166,-0.04,0.019,0.969
2026/05/14 10:30:41.185,-0.043,0.017,0.971
2026/05/14 10:30:41.205,-0.043,0.017,0.968
2026/05/14 10:30:41.224,-0.043,0.019,0.968
2026/05/14 10:30:41.243,-0.045,0.019,0.969
2026/05/14 10:30:41.263,-0.045,0.021,0.971
2026/05/14 10:30:41.282,-0.043,0.018,0.97
2026/05/14 10:30:41.301,-0.043,0.021,0.969
2026/05/14 10:30:41.321,-0.044,0.021,0.969
2026/05/14 10:30:41.340,-0.039,0.021,0.969
2026/05/14 10:30:41.359,-0.044,0.019,0.967
2026/05/14 10:30:41.379,-0.042,0.019,0.97
2026/05/14 10:30:41.398,-0.043,0.018,0.969
2026/05/14 10:30:41.417,-0.042,0.015,0.969
2026/05/14 10:30:41.437,-0.043,0.016,0.97
2026/05/14 10:30:41.456,-0.042,0.019,0.97
2026/05/14 10:30:41.475,-0.041,0.017,0.969
2026/05/14 10:30:41.494,-0.042,0.017,0.972
2026/05/14 10:30:41.514,-0.042,0.016,0.965
2026/05/14 10:30:41.533,-0.045,0.018,0.967
2026/05/14 10:30:41.552,-0.04,0.019,0.968
2026/05/14 10:30:41.572,-0.045,0.017,0.968
2026/05/14 10:30:41.591,-0.042,0.018,0.968
2026/05/14 10:30:41.610,-0.042,0.018,0.971
2026/05/14 10:30:41.630,-0.044,0.02,0.97
2026/05/14 10:30:41.649,-0.043,0.018,0.969
2026/05/14 10:30:41.668,-0.042,0.022,0.964
2026/05/14 10:30:41.688,-0.043,0.021,0.968
2026/05/14 10:30:41.707,-0.043,0.015,0.969
2026/05/14 10:30:41.726,-0.047,0.02,0.967
2026/05/14 10:30:41.746,-0.045,0.017,0.967
2026/05/14 10:30:41.765,-0.039,0.021,0.967
2026/05/14 10:30:41.784,-0.043,0.019,0.967
2026/05/14 10:30:41.804,-0.045,0.017,0.969
2026/05/14 10:30:41.823,-0.041,0.02,0.969
2026/05/14 10:30:41.842,-0.046,0.016,0.971
2026/05/14 10:30:41.862,-0.045,0.019,0.969
2026/05/14 10:30:41.881,-0.043,0.018,0.971
2026/05/14 10:30:41.900,-0.044,0.016,0.97
2026/05/14 10:30:41.920,-0.04,0.023,0.972
2026/05/14 10:30:41.939,-0.04,0.019,0.968
2026/05/14 10:30:41.958,-0.042,0.018,0.968
2026/05/14 10:30:41.977,-0.045,0.014,0.97
2026/05/14 10:30:41.997,-0.046,0.018,0.968
2026/05/14 10:30:42.016,-0.043,0.017,0.965
2026/05/14 10:30:42.035,-0.043,0.018,0.969
2026/05/14 10:30:42.055,-0.046,0.02,0.972
2026/05/14 10:30:42.074,-0.044,0.016,0.968
2026/05/14 10:30:42.093,-0.045,0.02,0.969
2026/05/14 10:30:42.113,-0.042,0.017,0.972
2026/05/14 10:30:42.132,-0.043,0.014,0.97
2026/05/14 10:30:42.151,-0.044,0.019,0.967
2026/05/14 10:30:42.171,-0.039,0.019,0.97
2026/05/14 10:30:42.190,-0.043,0.018,0.97
2026/05/14 10:30:42.209,-0.041,0.016,0.968
2026/05/14 10:30:42.229,-0.043,0.016,0.974
2026/05/14 10:30:42.248,-0.045,0.021,0.97
2026/05/14 10:30:42.267,-0.042,0.02,0.97
2026/05/14 10:30:42.287,-0.041,0.023,0.969
2026/05/14 10:30:42.306,-0.042,0.018,0.968
2026/05/14 10:30:42.325,-0.043,0.016,0.972
2026/05/14 10:30:42.345,-0.041,0.018,0.97
2026/05/14 10:30:42.364,-0.042,0.019,0.967
2026/05/14 10:30:42.383,-0.041,0.021,0.968
2026/05/14 10:30:42.403,-0.042,0.015,0.967
2026/05/14 10:30:42.422,-0.043,0.016,0.97
2026/05/14 10:30:42.441,-0.043,0.018,0.967
2026/05/14 10:30:42.461,-0.045,0.015,0.97
2026/05/14 10:30:42.480,-0.042,0.014,0.969
2026/05/14 10:30:42.499,-0.043,0.018,0.969
2026/05/14 10:30:42.518,-0.043,0.02,0.969
2026/05/14 10:30:42.538,-0.042,0.02,0.966
2026/05/14 10:30:42.557,-0.043,0.02,0.966
2026/05/14 10:30:42.576,-0.044,0.018,0.973
2026/05/14 10:30:42.596,-0.041,0.017,0.969
2026/05/14 10:30:42.615,-0.042,0.017,0.972
2026/05/14 10:30:42.634,-0.042,0.014,0.967
2026/05/14 10:30:42.654,-0.042,0.02,0.972
2026/05/14 10:30:42.673,-0.043,0.017,0.962
2026/05/14 10:30:42.692,-0.039,0.017,0.966
2026/05/14 10:30:42.712,-0.039,0.012,0.974
2026/05/14 10:30:42.731,-0.039,0.017,0.971
2026/05/14 10:30:42.750,-0.043,0.015,0.974
2026/05/14 10:30:42.770,-0.044,0.015,0.972
2026/05/14 10:30:42.789,-0.045,0.019,0.97
2026/05/14 10:30:42.808,-0.048,0.018,0.969
2026/05/14 10:30:42.828,-0.05,0.02,0.969
2026/05/14 10:30:42.847,-0.05,0.018,0.967
2026/05/14 10:30:42.866,-0.05,0.023,0.968
2026/05/14 10:30:42.886,-0.054,0.022,0.966
2026/05/14 10:30:42.905,-0.051,0.027,0.971
2026/05/14 10:30:42.924,-0.05,0.028,0.971
2026/05/14 10:30:42.944,-0.049,0.024,0.968
2026/05/14 10:30:42.963,-0.046,0.02,0.966
2026/05/14 10:30:42.982,-0.04,0.016,0.966
2026/05/14 10:30:43.002,-0.036,0.012,0.968
2026/05/14 10:30:43.021,-0.038,0.01,0.969
2026/05/14 10:30:43.040,-0.038,0.01,0.969
2026/05/14 10:30:43.059,-0.039,0.011,0.971
2026/05/14 10:30:43.079,-0.041,0.009,0.969
2026/05/14 10:30:43.098,-0.042,0.01,0.969
2026/05/14 10:30:43.117,-0.04,0.017,0.968
2026/05/14 10:30:43.137,-0.043,0.022,0.969
2026/05/14 10:30:43.156,-0.045,0.025,0.962
2026/05/14 10:30:43.175,-0.047,0.025,0.968
2026/05/14 10:30:43.195,-0.047,0.025,0.968
2026/05/14 10:30:43.214,-0.044,0.024,0.97
2026/05/14 10:30:43.233,-0.046,0.016,0.968
2026/05/14 10:30:43.253,-0.044,0.019,0.97
2026/05/14 10:30:43.272,-0.041,0.014,0.97
2026/05/14 10:30:43.291,-0.041,0.015,0.97
2026/05/14 10:30:43.311,-0.044,0.017,0.968
2026/05/14 10:30:43.330,-0.039,0.017,0.965
2026/05/14 10:30:43.349,-0.04,0.015,0.973
2026/05/14 10:30:43.369,-0.045,0.018,0.971
2026/05/14 10:30:43.388,-0.046,0.018,0.969
2026/05/14 10:30:43.407,-0.044,0.021,0.972
2026/05/14 10:30:43.427,-0.048,0.023,0.968
2026/05/14 10:30:43.446,-0.044,0.021,0.967
2026/05/14 10:30:43.465,-0.045,0.024,0.965
2026/05/14 10:30:43.485,-0.042,0.022,0.97
2026/05/14 10:30:43.504,-0.039,0.022,0.971
2026/05/14 10:30:43.523,-0.041,0.017,0.969
2026/05/14 10:30:43.543,-0.04,0.012,0.971
2026/05/14 10:30:43.562,-0.046,0.014,0.97
2026/05/14 10:30:43.581,-0.046,0.016,0.97
2026/05/14 10:30:43.601,-0.045,0.017,0.967
2026/05/14 10:30:43.620,-0.042,0.02,0.966
2026/05/14 10:30:43.639,-0.041,0.021,0.969
2026/05/14 10:30:43.658,-0.041,0.021,0.965
2026/05/14 10:30:43.678,-0.042,0.022,0.969
2026/05/14 10:30:43.697,-0.045,0.024,0.963
2026/05/14 10:30:43.716,-0.048,0.025,0.967
2026/05/14 10:30:43.736,-0.047,0.019,0.97
2026/05/14 10:30:43.755,-0.047,0.021,0.967
2026/05/14 10:30:43.774,-0.045,0.018,0.968
2026/05/14 10:30:43.794,-0.044,0.023,0.971
2026/05/14 10:30:43.813,-0.045,0.022,0.97
2026/05/14 10:30:43.832,-0.043,0.014,0.971
2026/05/14 10:30:43.852,-0.045,0.013,0.97
2026/05/14 10:30:43.871,-0.038,0.006,0.966
2026/05/14 10:30:43.890,-0.037,0.007,0.97
2026/05/14 10:30:43.910,-0.033,0.011,0.97
2026/05/14 10:30:43.929,-0.039,0.017,0.967
2026/05/14 10:30:43.948,-0.043,0.014,0.968
2026/05/14 10:30:43.968,-0.045,0.022,0.97
2026/05/14 10:30:43.987,-0.047,0.027,0.972
2026/05/14 10:30:44.006,-0.045,0.024,0.969
2026/05/14 10:30:44.026,-0.045,0.027,0.962
2026/05/14 10:30:44.045,-0.047,0.028,0.97
2026/05/14 10:30:44.064,-0.046,0.023,0.969
2026/05/14 10:30:44.084,-0.044,0.02,0.97
2026/05/14 10:30:44.103,-0.041,0.019,0.97
2026/05/14 10:30:44.122,-0.041,0.008,0.97
2026/05/14 10:30:44.142,-0.038,0.011,0.969
2026/05/14 10:30:44.161,-0.038,0.011,0.968
2026/05/14 10:30:44.180,-0.041,0.01,0.966
2026/05/14 10:30:44.199,-0.046,0.016,0.969
2026/05/14 10:30:44.219,-0.044,0.019,0.971
2026/05/14 10:30:44.238,-0.043,0.022,0.969
2026/05/14 10:30:44.257,-0.047,0.02,0.968
2026/05/14 10:30:44.277,-0.046,0.025,0.97
2026/05/14 10:30:44.296,-0.046,0.024,0.969
2026/05/14 10:30:44.315,-0.048,0.024,0.971
2026/05/14 10:30:44.335,-0.046,0.023,0.967
2026/05/14 10:30:44.354,-0.042,0.019,0.966
2026/05/14 10:30:44.373,-0.041,0.018,0.969
2026/05/14 10:30:44.393,-0.041,0.014,0.966
2026/05/14 10:30:44.412,-0.038,0.014,0.97
2026/05/14 10:30:44.431,-0.044,0.013,0.971
2026/05/14 10:30:44.451,-0.041,0.013,0.969
2026/05/14 10:30:44.470,-0.043,0.016,0.967
2026/05/14 10:30:44.489,-0.047,0.024,0.969
2026/05/14 10:30:44.509,-0.045,0.019,0.968
2026/05/14 10:30:44.528,-0.045,0.021,0.968
2026/05/14 10:30:44.547,-0.046,0.022,0.969
2026/05/14 10:30:44.567,-0.041,0.021,0.971
2026/05/14 10:30:44.586,-0.045,0.023,0.971
2026/05/14 10:30:44.605,-0.043,0.019,0.969
2026/05/14 10:30:44.625,-0.041,0.016,0.968
2026/05/14 10:30:44.644,-0.044,0.016,0.971
2026/05/14 10:30:44.663,-0.042,0.014,0.967
2026/05/14 10:30:44.683,-0.04,0.016,0.969
2026/05/14 10:30:44.702,-0.038,0.014,0.969
2026/05/14 10:30:44.721,-0.046,0.018,0.968
2026/05/14 10:30:44.740,-0.041,0.017,0.967
2026/05/14 10:30:44.760,-0.043,0.019,0.968
2026/05/14 10:30:44.779,-0.047,0.016,0.969
2026/05/14 10:30:44.798,-0.045,0.026,0.969
2026/05/14 10:30:44.818,-0.046,0.021,0.969
2026/05/14 10:30:44.837,-0.046,0.02,0.97
2026/05/14 10:30:44.856,-0.04,0.018,0.966
2026/05/14 10:30:44.876,-0.044,0.016,0.97
2026/05/14 10:30:44.895,-0.043,0.015,0.971
2026/05/14 10:30:44.914,-0.044,0.019,0.968
2026/05/14 10:30:44.934,-0.04,0.013,0.965
2026/05/14 10:30:44.953,-0.043,0.011,0.971
2026/05/14 10:30:44.972,-0.043,0.016,0.965
2026/05/14 10:30:44.992,-0.043,0.015,0.969
2026/05/14 10:30:45.011,-0.046,0.02,0.968
2026/05/14 10:30:45.030,-0.043,0.018,0.971
2026/05/14 10:30:45.050,-0.043,0.026,0.969
2026/05/14 10:30:45.069,-0.043,0.019,0.966
2026/05/14 10:30:45.088,-0.044,0.022,0.967
2026/05/14 10:30:45.108,-0.041,0.02,0.97
2026/05/14 10:30:45.127,-0.045,0.019,0.971
2026/05/14 10:30:45.146,-0.043,0.016,0.964
2026/05/14 10:30:45.166,-0.043,0.018,0.971
2026/05/14 10:30:45.185,-0.043,0.017,0.967
2026/05/14 10:30:45.204,-0.043,0.015,0.965
2026/05/14 10:30:45.224,-0.037,0.017,0.966
2026/05/14 10:30:45.243,-0.041,0.018,0.968
2026/05/14 10:30:45.262,-0.045,0.019,0.966
2026/05/14 10:30:45.281,-0.042,0.02,0.97
2026/05/14 10:30:45.301,-0.044,0.017,0.97
2026/05/14 10:30:45.320,-0.042,0.021,0.967
2026/05/14 10:30:45.339,-0.045,0.021,0.969
2026/05/14 10:30:45.359,-0.044,0.02,0.972
2026/05/14 10:30:45.378,-0.046,0.022,0.967
2026/05/14 10:30:45.397,-0.043,0.012,0.968
2026/05/14 10:30:45.417,-0.044,0.013,0.969
2026/05/14 10:30:45.436,-0.043,0.019,0.97
2026/05/14 10:30:45.455,-0.041,0.015,0.97
2026/05/14 10:30:45.475,-0.043,0.021,0.966
2026/05/14 10:30:45.494,-0.04,0.019,0.965
2026/05/14 10:30:45.513,-0.042,0.017,0.97
2026/05/14 10:30:45.533,-0.044,0.02,0.969
2026/05/14 10:30:45.552,-0.044,0.023,0.969
2026/05/14 10:30:45.571,-0.041,0.021,0.971
2026/05/14 10:30:45.591,-0.046,0.015,0.967
2026/05/14 10:30:45.610,-0.043,0.02,0.97
2026/05/14 10:30:45.629,-0.041,0.022,0.97
