Timestamp,ACC X,ACC Y,ACC Z
2026/05/14 10:30:51.861,0.02,0.021,1.1
2026/05/14 10:30:51.880,-0.036,0.09,0.565
2026/05/14 10:30:51.899,-0.006,0.142,0.672
2026/05/14 10:30:51.919,-0.007,0.122,0.695
2026/05/14 10:30:51.938,0.089,0.137,0.686
2026/05/14 10:30:51.957,0.106,0.095,0.659
2026/05/14 10:30:51.976,0.182,0.047,1.167
2026/05/14 10:30:51.996,0.005,-0.008,0.006
2026/05/14 10:30:52.015,0.108,-0.026,0.423
2026/05/14 10:30:52.034,0.002,0.003,0.021
2026/05/14 10:30:52.053,-0.167,-0.079,0.722
2026/05/14 10:30:52.072,-0.113,-0.031,0.67
2026/05/14 10:30:52.092,-0.083,-0.091,1.063
2026/05/14 10:30:52.111,-0.041,-0.086,1.194
2026/05/14 10:30:52.130,-0.056,-0.007,0.973
2026/05/14 10:30:52.149,-0.062,0.016,1.012
2026/05/14 10:30:52.169,-0.01,0.081,1.071
2026/05/14 10:30:52.188,0.014,0.125,1.021
2026/05/14 10:30:52.207,0.017,0.073,1.075
2026/05/14 10:30:52.226,0.03,0.037,1.03
2026/05/14 10:30:52.246,0.005,0.034,1.022
2026/05/14 10:30:52.265,0.003,0.056,1.006
2026/05/14 10:30:52.284,-0.013,0.055,1.026
2026/05/14 10:30:52.303,-0.015,0.038,1.05
2026/05/14 10:30:52.322,-0.02,0.016,1.021
2026/05/14 10:30:52.342,-0.03,-0.002,0.996
2026/05/14 10:30:52.361,-0.034,-0.014,1.006
2026/05/14 10:30:52.380,-0.025,-0.012,1.004
2026/05/14 10:30:52.399,-0.016,-0.002,1.019
2026/05/14 10:30:52.419,-0.006,0.012,1.011
2026/05/14 10:30:52.438,-0.005,0.03,1.018
2026/05/14 10:30:52.457,-0.006,0.042,1.011
2026/05/14 10:30:52.476,-0.004,0.05,1.009
2026/05/14 10:30:52.496,-0.008,0.037,1.011
2026/05/14 10:30:52.515,-0.012,0.039,1.007
2026/05/14 10:30:52.534,-0.003,0.047,1.024
2026/05/14 10:30:52.553,-0.004,0.047,1.018
2026/05/14 10:30:52.572,-0.004,0.036,1.015
2026/05/14 10:30:52.592,0.0,0.019,1.022
2026/05/14 10:30:52.611,-0.014,0.004,1.014
2026/05/14 10:30:52.630,-0.023,-0.003,1.011
2026/05/14 10:30:52.649,-0.026,0.005,1.015
2026/05/14 10:30:52.669,-0.025,0.009,1.019
2026/05/14 10:30:52.688,-0.017,0.023,1.015
2026/05/14 10:30:52.707,-0.013,0.033,1.026
2026/05/14 10:30:52.726,-0.007,0.035,1.019
2026/05/14 10:30:52.746,-0.003,0.033,1.016
2026/05/14 10:30:52.765,0.005,0.042,1.009
2026/05/14 10:30:52.784,0.005,0.041,1.014
2026/05/14 10:30:52.803,-0.003,0.043,1.011
2026/05/14 10:30:52.822,-0.011,0.04,1.019
2026/05/14 10:30:52.842,-0.016,0.026,1.019
2026/05/14 10:30:52.861,-0.019,0.014,1.02
2026/05/14 10:30:52.880,-0.019,0.011,1.016
2026/05/14 10:30:52.899,-0.019,0.006,1.018
2026/05/14 10:30:52.919,-0.013,0.006,1.018
2026/05/14 10:30:52.938,-0.016,0.009,1.014
2026/05/14 10:30:52.957,-0.016,0.019,1.017
2026/05/14 10:30:52.976,-0.015,0.026,1.021
2026/05/14 10:30:52.996,-0.009,0.033,1.011
2026/05/14 10:30:53.015,-0.003,0.041,1.016
2026/05/14 10:30:53.034,-0.003,0.04,1.009
2026/05/14 10:30:53.053,-0.004,0.038,1.016
2026/05/14 10:30:53.072,-0.006,0.03,1.015
2026/05/14 10:30:53.092,-0.009,0.027,1.02
2026/05/14 10:30:53.111,-0.013,0.027,1.018
2026/05/14 10:30:53.130,-0.017,0.016,1.017
2026/05/14 10:30:53.149,-0.019,0.014,1.02
2026/05/14 10:30:53.169,-0.021,0.01,1.019
2026/05/14 10:30:53.188,-0.019,0.011,1.015
2026/05/14 10:30:53.207,-0.016,0.016,1.019
2026/05/14 10:30:53.226,-0.009,0.026,1.017
2026/05/14 10:30:53.246,-0.008,0.031,1.019
2026/05/14 10:30:53.265,-0.003,0.034,1.017
2026/05/14 10:30:53.284,-0.002,0.035,1.019
2026/05/14 10:30:53.303,-0.011,0.035,1.009
2026/05/14 10:30:53.322,-0.005,0.035,1.02
2026/05/14 10:30:53.342,-0.007,0.029,1.019
2026/05/14 10:30:53.361,-0.013,0.025,1.017
2026/05/14 10:30:53.380,-0.012,0.022,1.021
2026/05/14 10:30:53.399,-0.014,0.011,1.016
2026/05/14 10:30:53.419,-0.017,0.014,1.018
2026/05/14 10:30:53.438,-0.014,0.015,1.017
2026/05/14 10:30:53.457,-0.016,0.017,1.014
2026/05/14 10:30:53.476,-0.012,0.026,1.018
2026/05/14 10:30:53.496,-0.01,0.027,1.015
2026/05/14 10:30:53.515,-0.011,0.031,1.017
2026/05/14 10:30:53.534,-0.004,0.034,1.016
2026/05/14 10:30:53.553,-0.003,0.033,1.016
2026/05/14 10:30:53.572,-0.003,0.034,1.019
2026/05/14 10:30:53.592,-0.004,0.033,1.016
2026/05/14 10:30:53.611,-0.01,0.026,1.018
2026/05/14 10:30:53.630,-0.01,0.023,1.015
2026/05/14 10:30:53.649,-0.019,0.021,1.017
2026/05/14 10:30:53.669,-0.02,0.018,1.018
2026/05/14 10:30:53.688,-0.015,0.016,1.016
2026/05/14 10:30:53.708,-0.013,0.019,1.019
2026/05/14 10:30:53.727,-0.008,0.022,1.013
2026/05/14 10:30:53.747,-0.009,0.025,1.019
2026/05/14 10:30:53.767,-0.005,0.028,1.014
2026/05/14 10:30:53.786,-0.011,0.033,1.012
2026/05/14 10:30:53.806,-0.006,0.031,1.023
2026/05/14 10:30:53.826,-0.004,0.03,1.018
2026/05/14 10:30:53.845,-0.011,0.03,1.016
2026/05/14 10:30:53.865,-0.012,0.027,1.016
2026/05/14 10:30:53.885,-0.013,0.02,1.016
2026/05/14 10:30:53.904,-0.012,0.018,1.017
2026/05/14 10:30:53.924,-0.017,0.016,1.017
2026/05/14 10:30:53.944,-0.013,0.017,1.017
2026/05/14 10:30:53.963,-0.011,0.019,1.016
2026/05/14 10:30:53.983,-0.011,0.024,1.015
2026/05/14 10:30:54.003,-0.011,0.027,1.014
2026/05/14 10:30:54.022,-0.004,0.027,1.019
2026/05/14 10:30:54.042,-0.005,0.03,1.015
2026/05/14 10:30:54.062,-0.005,0.031,1.014
2026/05/14 10:30:54.081,-0.008,0.028,1.017
2026/05/14 10:30:54.101,-0.012,0.027,1.015
2026/05/14 10:30:54.121,-0.011,0.024,1.019
2026/05/14 10:30:54.140,-0.012,0.025,1.018
2026/05/14 10:30:54.160,-0.013,0.019,1.017
2026/05/14 10:30:54.180,-0.013,0.018,1.017
2026/05/14 10:30:54.200,-0.011,0.02,1.015
2026/05/14 10:30:54.219,-0.015,0.019,1.018
2026/05/14 10:30:54.239,-0.01,0.026,1.016
2026/05/14 10:30:54.259,-0.012,0.027,1.015
2026/05/14 10:30:54.278,-0.012,0.028,1.018
2026/05/14 10:30:54.298,-0.009,0.029,1.017
2026/05/14 10:30:54.318,-0.008,0.03,1.013
2026/05/14 10:30:54.337,-0.011,0.027,1.017
2026/05/14 10:30:54.357,-0.008,0.028,1.017
2026/05/14 10:30:54.377,-0.012,0.026,1.018
2026/05/14 10:30:54.396,-0.01,0.027,1.018
2026/05/14 10:30:54.416,-0.016,0.025,1.013
2026/05/14 10:30:54.436,-0.017,0.022,1.019
2026/05/14 10:30:54.455,-0.017,0.022,1.021
2026/05/14 10:30:54.475,-0.019,0.024,1.015
2026/05/14 10:30:54.495,-0.021,0.023,1.01
2026/05/14 10:30:54.514,-0.002,0.025,1.005
2026/05/14 10:30:54.534,0.023,0.021,1.02
2026/05/14 10:30:54.554,0.017,0.017,1.033
2026/05/14 10:30:54.573,-0.015,0.006,0.984
2026/05/14 10:30:54.593,-0.036,0.0,1.021
2026/05/14 10:30:54.613,-0.037,0.023,1.013
2026/05/14 10:30:54.632,-0.048,0.033,0.982
2026/05/14 10:30:54.652,-0.018,0.051,1.035
2026/05/14 10:30:54.672,-0.007,0.048,1.017
2026/05/14 10:30:54.692,0.007,0.042,1.007
2026/05/14 10:30:54.711,0.015,0.029,1.031
2026/05/14 10:30:54.731,0.006,0.021,1.006
2026/05/14 10:30:54.751,-0.002,0.024,1.019
2026/05/14 10:30:54.770,-0.018,0.031,1.02
2026/05/14 10:30:54.790,-0.029,0.032,1.013
2026/05/14 10:30:54.810,-0.027,0.024,1.02
2026/05/14 10:30:54.829,-0.028,0.011,1.016
2026/05/14 10:30:54.849,-0.021,0.004,1.022
2026/05/14 10:30:54.869,-0.01,0.002,1.014
2026/05/14 10:30:54.888,-0.003,0.012,1.014
2026/05/14 10:30:54.908,0.001,0.029,1.019
2026/05/14 10:30:54.928,0.001,0.045,1.017
2026/05/14 10:30:54.947,-0.001,0.04,1.011
2026/05/14 10:30:54.967,-0.011,0.033,1.013
2026/05/14 10:30:54.987,-0.017,0.033,1.011
2026/05/14 10:30:55.006,-0.02,0.035,1.0
2026/05/14 10:30:55.026,-0.015,0.036,1.017
2026/05/14 10:30:55.046,-0.011,0.036,1.017
2026/05/14 10:30:55.065,-0.006,0.033,1.016
2026/05/14 10:30:55.085,-0.005,0.018,1.016
2026/05/14 10:30:55.105,-0.007,0.006,1.023
2026/05/14 10:30:55.125,-0.011,0.012,1.021
2026/05/14 10:30:55.144,-0.021,0.014,1.017
2026/05/14 10:30:55.164,-0.02,0.024,1.014
2026/05/14 10:30:55.184,-0.023,0.024,1.016
2026/05/14 10:30:55.203,-0.017,0.028,1.012
2026/05/14 10:30:55.223,-0.008,0.029,1.014
2026/05/14 10:30:55.243,-0.004,0.024,1.018
2026/05/14 10:30:55.262,0.001,0.03,1.019
2026/05/14 10:30:55.282,-0.002,0.03,1.013
2026/05/14 10:30:55.302,-0.008,0.04,1.012
2026/05/14 10:30:55.321,-0.014,0.035,1.014
2026/05/14 10:30:55.341,-0.017,0.028,1.019
2026/05/14 10:30:55.361,-0.019,0.024,1.015
2026/05/14 10:30:55.380,-0.018,0.021,1.016
2026/05/14 10:30:55.400,-0.012,0.02,1.02
2026/05/14 10:30:55.420,-0.005,0.019,1.023
2026/05/14 10:30:55.439,-0.006,0.016,1.015
2026/05/14 10:30:55.459,-0.01,0.021,1.013
2026/05/14 10:30:55.479,-0.013,0.025,1.017
2026/05/14 10:30:55.498,-0.013,0.025,1.017
2026/05/14 10:30:55.518,-0.015,0.03,1.007
2026/05/14 10:30:55.538,-0.012,0.034,1.021
2026/05/14 10:30:55.557,-0.007,0.036,1.019
2026/05/14 10:30:55.577,-0.006,0.031,1.011
2026/05/14 10:30:55.597,-0.007,0.029,1.02
2026/05/14 10:30:55.617,-0.006,0.028,1.015
2026/05/14 10:30:55.636,-0.006,0.028,1.015
2026/05/14 10:30:55.656,-0.016,0.023,1.017
2026/05/14 10:30:55.676,-0.017,0.023,1.019
2026/05/14 10:30:55.695,-0.016,0.017,1.024
2026/05/14 10:30:55.715,-0.011,0.021,1.015
2026/05/14 10:30:55.735,-0.011,0.016,1.017
2026/05/14 10:30:55.754,-0.008,0.018,1.014
2026/05/14 10:30:55.774,-0.006,0.024,1.019
2026/05/14 10:30:55.794,-0.011,0.025,1.02
2026/05/14 10:30:55.813,-0.007,0.028,1.016
2026/05/14 10:30:55.833,-0.012,0.028,1.019
2026/05/14 10:30:55.853,-0.01,0.032,1.015
2026/05/14 10:30:55.872,-0.011,0.027,1.015
2026/05/14 10:30:55.892,-0.01,0.032,1.015
2026/05/14 10:30:55.912,-0.009,0.028,1.009
2026/05/14 10:30:55.931,-0.009,0.028,1.016
2026/05/14 10:30:55.951,-0.01,0.025,1.018
2026/05/14 10:30:55.971,-0.008,0.02,1.02
2026/05/14 10:30:55.990,-0.012,0.019,1.018
2026/05/14 10:30:56.010,-0.012,0.013,1.016
2026/05/14 10:30:56.030,-0.011,0.018,1.018
2026/05/14 10:30:56.050,-0.016,0.023,1.017
2026/05/14 10:30:56.069,-0.011,0.027,1.021
2026/05/14 10:30:56.089,-0.007,0.026,1.017
2026/05/14 10:30:56.109,-0.009,0.025,1.015
2026/05/14 10:30:56.128,-0.007,0.026,1.019
2026/05/14 10:30:56.148,-0.006,0.032,1.015
2026/05/14 10:30:56.168,-0.009,0.03,1.019
2026/05/14 10:30:56.187,-0.008,0.033,1.016
2026/05/14 10:30:56.207,-0.011,0.027,1.016
2026/05/14 10:30:56.227,-0.014,0.026,1.017
2026/05/14 10:30:56.246,-0.009,0.025,1.014
2026/05/14 10:30:56.266,-0.011,0.027,1.019
2026/05/14 10:30:56.286,-0.01,0.019,1.016
2026/05/14 10:30:56.305,-0.008,0.021,1.017
2026/05/14 10:30:56.325,-0.008,0.018,1.019
2026/05/14 10:30:56.345,-0.013,0.026,1.018
2026/05/14 10:30:56.364,-0.015,0.021,1.016
2026/05/14 10:30:56.384,-0.013,0.022,1.016
2026/05/14 10:30:56.404,-0.012,0.025,1.018
2026/05/14 10:30:56.423,-0.009,0.031,1.021
2026/05/14 10:30:56.443,-0.011,0.027,1.01
2026/05/14 10:30:56.463,-0.008,0.028,1.018
2026/05/14 10:30:56.482,-0.009,0.029,1.013
2026/05/14 10:30:56.502,-0.01,0.027,1.016
2026/05/14 10:30:56.522,-0.012,0.029,1.015
2026/05/14 10:30:56.542,-0.013,0.026,1.022
2026/05/14 10:30:56.561,-0.013,0.026,1.018
2026/05/14 10:30:56.581,-0.012,0.024,1.017
2026/05/14 10:30:56.601,-0.006,0.019,1.021
2026/05/14 10:30:56.620,-0.011,0.019,1.019
2026/05/14 10:30:56.640,-0.011,0.02,1.017
2026/05/14 10:30:56.660,-0.01,0.027,1.018
2026/05/14 10:30:56.679,-0.011,0.025,1.015
2026/05/14 10:30:56.699,-0.012,0.03,1.015
2026/05/14 10:30:56.719,-0.01,0.027,1.014
2026/05/14 10:30:56.738,-0.013,0.027,1.016
2026/05/14 10:30:56.758,-0.012,0.026,1.021
2026/05/14 10:30:56.778,-0.01,0.027,1.014
2026/05/14 10:30:56.797,-0.009,0.03,1.014
2026/05/14 10:30:56.817,-0.009,0.025,1.02
2026/05/14 10:30:56.837,-0.011,0.023,1.018
2026/05/14 10:30:56.856,-0.012,0.026,1.016
2026/05/14 10:30:56.876,-0.014,0.023,1.017
2026/05/14 10:30:56.896,-0.012,0.022,1.014
2026/05/14 10:30:56.915,-0.011,0.024,1.016
2026/05/14 10:30:56.935,-0.013,0.026,1.018
2026/05/14 10:30:56.955,-0.009,0.026,1.016
2026/05/14 10:30:56.974,-0.011,0.028,1.018
2026/05/14 10:30:56.994,-0.01,0.029,1.016
2026/05/14 10:30:57.014,-0.007,0.024,1.02
2026/05/14 10:30:57.034,-0.009,0.027,1.014
2026/05/14 10:30:57.053,-0.007,0.03,1.018
2026/05/14 10:30:57.073,-0.009,0.027,1.015
2026/05/14 10:30:57.093,-0.013,0.027,1.016
2026/05/14 10:30:57.112,-0.013,0.026,1.019
2026/05/14 10:30:57.132,-0.006,0.027,1.017
2026/05/14 10:30:57.152,-0.011,0.025,1.016
2026/05/14 10:30:57.171,-0.011,0.023,1.017
2026/05/14 10:30:57.191,-0.012,0.021,1.017
2026/05/14 10:30:57.211,-0.009,0.025,1.017
2026/05/14 10:30:57.230,-0.014,0.027,1.016
2026/05/14 10:30:57.250,-0.011,0.024,1.014
2026/05/14 10:30:57.270,-0.01,0.025,1.014
2026/05/14 10:30:57.289,-0.009,0.029,1.016
2026/05/14 10:30:57.309,-0.011,0.028,1.016
2026/05/14 10:30:57.329,-0.009,0.024,1.017
2026/05/14 10:30:57.348,-0.008,0.027,1.019
2026/05/14 10:30:57.368,-0.01,0.027,1.016
2026/05/14 10:30:57.388,-0.009,0.024,1.017
2026/05/14 10:30:57.407,-0.012,0.027,1.018
2026/05/14 10:30:57.427,-0.012,0.026,1.016
2026/05/14 10:30:57.447,-0.013,0.023,1.016
2026/05/14 10:30:57.467,-0.01,0.023,1.014
2026/05/14 10:30:57.486,-0.01,0.02,1.015
2026/05/14 10:30:57.506,-0.009,0.025,1.016
2026/05/14 10:30:57.526,-0.006,0.026,1.017
2026/05/14 10:30:57.545,-0.013,0.027,1.019
2026/05/14 10:30:57.565,-0.012,0.028,1.014
2026/05/14 10:30:57.585,-0.011,0.025,1.015
2026/05/14 10:30:57.604,-0.008,0.024,1.018
2026/05/14 10:30:57.624,-0.012,0.024,1.018
2026/05/14 10:30:57.644,-0.008,0.024,1.018
2026/05/14 10:30:57.663,-0.011,0.023,1.017
2026/05/14 10:30:57.683,-0.01,0.028,1.015
2026/05/14 10:30:57.703,-0.012,0.021,1.015
2026/05/14 10:30:57.722,-0.012,0.023,1.017
2026/05/14 10:30:57.742,-0.011,0.029,1.018
2026/05/14 10:30:57.762,-0.01,0.02,1.016
2026/05/14 10:30:57.781,-0.01,0.023,1.019
2026/05/14 10:30:57.801,-0.012,0.027,1.017
2026/05/14 10:30:57.821,-0.011,0.029,1.014
2026/05/14 10:30:57.840,-0.009,0.027,1.017
2026/05/14 10:30:57.860,-0.01,0.018,1.013
2026/05/14 10:30:57.880,-0.012,0.023,1.018
2026/05/14 10:30:57.899,-0.011,0.029,1.017
2026/05/14 10:30:57.919,-0.012,0.026,1.017
2026/05/14 10:30:57.939,-0.015,0.027,1.012
2026/05/14 10:30:57.959,-0.01,0.025,1.015
2026/05/14 10:30:57.978,-0.011,0.026,1.021
2026/05/14 10:30:57.998,-0.012,0.024,1.02
2026/05/14 10:30:58.018,-0.008,0.022,1.015
2026/05/14 10:30:58.037,-0.009,0.02,1.019
2026/05/14 10:30:58.057,-0.012,0.026,1.017
2026/05/14 10:30:58.077,-0.011,0.024,1.012
2026/05/14 10:30:58.096,-0.01,0.025,1.017
2026/05/14 10:30:58.116,-0.009,0.027,1.013
2026/05/14 10:30:58.136,-0.009,0.022,1.013
2026/05/14 10:30:58.155,-0.01,0.025,1.016
2026/05/14 10:30:58.175,-0.011,0.027,1.017
2026/05/14 10:30:58.195,-0.014,0.027,1.016
2026/05/14 10:30:58.214,-0.009,0.027,1.016
2026/05/14 10:30:58.234,-0.011,0.024,1.014
2026/05/14 10:30:58.254,-0.008,0.027,1.017
2026/05/14 10:30:58.273,-0.012,0.02,1.018
2026/05/14 10:30:58.293,-0.013,0.027,1.024
2026/05/14 10:30:58.313,-0.006,0.024,1.015
2026/05/14 10:30:58.332,-0.009,0.021,1.015
2026/05/14 10:30:58.352,-0.009,0.027,1.017
2026/05/14 10:30:58.372,-0.012,0.027,1.02
2026/05/14 10:30:58.391,-0.013,0.027,1.014
2026/05/14 10:30:58.411,-0.011,0.031,1.017
2026/05/14 10:30:58.431,-0.01,0.026,1.015
2026/05/14 10:30:58.451,-0.01,0.025,1.016
2026/05/14 10:30:58.470,-0.009,0.027,1.016
2026/05/14 10:30:58.490,-0.009,0.025,1.014
2026/05/14 10:30:58.510,-0.011,0.026,1.018
2026/05/14 10:30:58.529,-0.01,0.024,1.02
2026/05/14 10:30:58.549,-0.012,0.025,1.018
2026/05/14 10:30:58.569,-0.013,0.027,1.015
2026/05/14 10:30:58.588,-0.012,0.026,1.016
2026/05/14 10:30:58.608,-0.013,0.025,1.02
2026/05/14 10:30:58.628,-0.012,0.027,1.018
2026/05/14 10:30:58.647,-0.009,0.024,1.015
2026/05/14 10:30:58.667,-0.008,0.025,1.018
2026/05/14 10:30:58.687,-0.013,0.028,1.021
2026/05/14 10:30:58.706,-0.009,0.024,1.014
2026/05/14 10:30:58.726,-0.008,0.028,1.016
2026/05/14 10:30:58.746,-0.01,0.028,1.016
2026/05/14 10:30:58.765,-0.009,0.024,1.019
2026/05/14 10:30:58.785,-0.013,0.025,1.013
2026/05/14 10:30:58.805,-0.011,0.025,1.016
2026/05/14 10:30:58.824,-0.011,0.025,1.014
2026/05/14 10:30:58.844,-0.01,0.023,1.014
2026/05/14 10:30:58.864,-0.008,0.024,1.018
2026/05/14 10:30:58.884,-0.012,0.03,1.014
2026/05/14 10:30:58.903,-0.008,0.024,1.016
2026/05/14 10:30:58.923,-0.007,0.024,1.017
2026/05/14 10:30:58.943,-0.013,0.022,1.014
2026/05/14 10:30:58.962,-0.013,0.025,1.012
2026/05/14 10:30:58.982,-0.013,0.022,1.016
2026/05/14 10:30:59.002,-0.009,0.026,1.014
2026/05/14 10:30:59.021,-0.012,0.023,1.017
2026/05/14 10:30:59.041,-0.011,0.029,1.015
2026/05/14 10:30:59.061,-0.012,0.029,1.014
2026/05/14 10:30:59.080,-0.011,0.026,1.018
2026/05/14 10:30:59.100,-0.01,0.022,1.019
2026/05/14 10:30:59.120,-0.008,0.025,1.02
2026/05/14 10:30:59.139,-0.01,0.024,1.018
2026/05/14 10:30:59.159,-0.01,0.025,1.017
2026/05/14 10:30:59.179,-0.013,0.026,1.019
2026/05/14 10:30:59.198,-0.009,0.027,1.015
2026/05/14 10:30:59.218,-0.012,0.026,1.018
2026/05/14 10:30:59.238,-0.009,0.022,1.015
2026/05/14 10:30:59.257,-0.01,0.028,1.018
2026/05/14 10:30:59.277,-0.011,0.027,1.024
2026/05/14 10:30:59.297,-0.012,0.027,1.015
2026/05/14 10:30:59.316,-0.008,0.026,1.014
2026/05/14 10:30:59.336,-0.009,0.023,1.016
2026/05/14 10:30:59.356,-0.007,0.027,1.021
2026/05/14 10:30:59.376,-0.012,0.023,1.016
2026/05/14 10:30:59.395,-0.01,0.028,1.016
2026/05/14 10:30:59.415,-0.011,0.026,1.021
2026/05/14 10:30:59.435,-0.009,0.028,1.017
2026/05/14 10:30:59.454,-0.014,0.03,1.013
2026/05/14 10:30:59.474,-0.011,0.028,1.015
2026/05/14 10:30:59.494,-0.009,0.027,1.017
2026/05/14 10:30:59.513,-0.012,0.029,1.014
2026/05/14 10:30:59.533,-0.011,0.026,1.015
2026/05/14 10:30:59.553,-0.011,0.024,1.017
2026/05/14 10:30:59.572,-0.014,0.025,1.018
2026/05/14 10:30:59.592,-0.011,0.026,1.014
2026/05/14 10:30:59.612,-0.008,0.022,1.017
2026/05/14 10:30:59.631,-0.01,0.027,1.02
2026/05/14 10:30:59.651,-0.008,0.025,1.02
2026/05/14 10:30:59.671,-0.009,0.027,1.015
2026/05/14 10:30:59.690,-0.011,0.024,1.015
2026/05/14 10:30:59.710,-0.012,0.025,1.017
2026/05/14 10:30:59.730,-0.01,0.028,1.013
2026/05/14 10:30:59.749,-0.011,0.025,1.012
2026/05/14 10:30:59.769,-0.009,0.027,1.015
2026/05/14 10:30:59.789,-0.012,0.025,1.015
2026/05/14 10:30:59.808,-0.013,0.027,1.018
2026/05/14 10:30:59.828,-0.014,0.026,1.016
2026/05/14 10:30:59.848,-0.011,0.026,1.015
2026/05/14 10:30:59.868,-0.014,0.024,1.017
2026/05/14 10:30:59.887,-0.013,0.025,1.015
2026/05/14 10:30:59.907,-0.008,0.026,1.014
2026/05/14 10:30:59.927,-0.008,0.024,1.017
2026/05/14 10:30:59.946,-0.009,0.025,1.016
2026/05/14 10:30:59.966,-0.011,0.023,1.016
2026/05/14 10:30:59.986,-0.01,0.024,1.013
2026/05/14 10:31:00.005,-0.01,0.025,1.014
2026/05/14 10:31:00.025,-0.009,0.025,1.019
2026/05/14 10:31:00.045,-0.012,0.023,1.021
2026/05/14 10:31:00.064,-0.008,0.022,1.016
2026/05/14 10:31:00.084,-0.012,0.025,1.014
2026/05/14 10:31:00.104,-0.009,0.025,1.016
2026/05/14 10:31:00.123,-0.011,0.025,1.015
2026/05/14 10:31:00.143,-0.011,0.026,1.017
2026/05/14 10:31:00.163,-0.013,0.029,1.018
2026/05/14 10:31:00.182,-0.01,0.024,1.014
2026/05/14 10:31:00.202,-0.011,0.026,1.018
2026/05/14 10:31:00.222,-0.007,0.027,1.02
2026/05/14 10:31:00.241,-0.011,0.023,1.016
2026/05/14 10:31:00.261,-0.008,0.021,1.016
2026/05/14 10:31:00.281,-0.007,0.024,1.02
2026/05/14 10:31:00.301,-0.011,0.027,1.014
2026/05/14 10:31:00.320,-0.004,0.023,1.011
2026/05/14 10:31:00.340,-0.014,0.024,1.017
2026/05/14 10:31:00.360,-0.01,0.027,1.011
2026/05/14 10:31:00.379,-0.011,0.028,1.019
2026/05/14 10:31:00.399,-0.013,0.029,1.017
2026/05/14 10:31:00.419,-0.011,0.022,1.011
2026/05/14 10:31:00.438,-0.011,0.027,1.022
2026/05/14 10:31:00.458,-0.01,0.023,1.013
2026/05/14 10:31:00.478,-0.009,0.028,1.018
2026/05/14 10:31:00.497,-0.01,0.027,1.016
2026/05/14 10:31:00.517,-0.008,0.028,1.015
2026/05/14 10:31:00.537,-0.007,0.027,1.011
2026/05/14 10:31:00.556,-0.011,0.022,1.017
2026/05/14 10:31:00.576,-0.013,0.025,1.018
2026/05/14 10:31:00.596,-0.01,0.026,1.016
2026/05/14 10:31:00.615,-0.011,0.02,1.016
2026/05/14 10:31:00.635,-0.009,0.028,1.021
2026/05/14 10:31:00.655,-0.011,0.025,1.009
2026/05/14 10:31:00.674,-0.011,0.026,1.014
2026/05/14 10:31:00.694,-0.008,0.021,1.016
2026/05/14 10:31:00.714,-0.009,0.026,1.014
2026/05/14 10:31:00.733,-0.007,0.026,1.014
2026/05/14 10:31:00.753,-0.011,0.025,1.017
2026/05/14 10:31:00.773,-0.012,0.027,1.013
2026/05/14 10:31:00.793,-0.012,0.027,1.017
2026/05/14 10:31:00.812,-0.011,0.024,1.011
2026/05/14 10:31:00.832,-0.006,0.024,1.023
2026/05/14 10:31:00.852,-0.01,0.024,1.021
2026/05/14 10:31:00.871,-0.011,0.022,1.018
2026/05/14 10:31:00.891,-0.011,0.027,1.017
2026/05/14 10:31:00.911,-0.01,0.026,1.019
2026/05/14 10:31:00.930,-0.009,0.026,1.014
2026/05/14 10:31:00.950,-0.011,0.027,1.016
2026/05/14 10:31:00.970,-0.01,0.026,1.015
2026/05/14 10:31:00.989,-0.009,0.023,1.017
2026/05/14 10:31:01.009,-0.011,0.028,1.02
2026/05/14 10:31:01.029,-0.01,0.026,1.016
2026/05/14 10:31:01.048,-0.011,0.027,1.016
2026/05/14 10:31:01.068,-0.006,0.027,1.02
2026/05/14 10:31:01.088,-0.012,0.031,1.017
2026/05/14 10:31:01.107,-0.009,0.023,1.016
2026/05/14 10:31:01.127,-0.009,0.028,1.012
2026/05/14 10:31:01.147,-0.011,0.026,1.017
2026/05/14 10:31:01.166,-0.011,0.022,1.017
2026/05/14 10:31:01.186,-0.01,0.026,1.013
2026/05/14 10:31:01.206,-0.012,0.027,1.015
2026/05/14 10:31:01.225,-0.014,0.023,1.015
2026/05/14 10:31:01.245,-0.008,0.024,1.01
2026/05/14 10:31:01.265,-0.013,0.024,1.016
2026/05/14 10:31:01.285,-0.009,0.027,1.008
2026/05/14 10:31:01.304,-0.012,0.022,1.017
2026/05/14 10:31:01.324,-0.01,0.026,1.012
2026/05/14 10:31:01.344,-0.01,0.029,1.019
2026/05/14 10:31:01.363,-0.009,0.026,1.021
2026/05/14 10:31:01.383,-0.008,0.029,1.016
2026/05/14 10:31:01.403,-0.011,0.028,1.018
2026/05/14 10:31:01.422,-0.012,0.022,1.017
2026/05/14 10:31:01.442,-0.008,0.024,1.02
2026/05/14 10:31:01.462,-0.01,0.024,1.016
2026/05/14 10:31:01.481,-0.011,0.027,1.019
2026/05/14 10:31:01.501,-0.009,0.028,1.013
2026/05/14 10:31:01.521,-0.013,0.027,1.015
2026/05/14 10:31:01.540,-0.011,0.025,1.015
2026/05/14 10:31:01.560,-0.015,0.028,1.018
2026/05/14 10:31:01.580,-0.008,0.024,1.016
2026/05/14 10:31:01.599,-0.01,0.025,1.013
2026/05/14 10:31:01.619,-0.012,0.032,1.018
2026/05/14 10:31:01.639,-0.009,0.023,1.014
2026/05/14 10:31:01.658,-0.009,0.026,1.018
2026/05/14 10:31:01.678,-0.011,0.025,1.016
2026/05/14 10:31:01.698,-0.012,0.025,1.012
2026/05/14 10:31:01.718,-0.011,0.03,1.019
2026/05/14 10:31:01.737,-0.008,0.026,1.011
2026/05/14 10:31:01.757,-0.01,0.026,1.015
2026/05/14 10:31:01.777,-0.012,0.021,1.018
2026/05/14 10:31:01.796,-0.009,0.025,1.019
2026/05/14 10:31:01.816,-0.009,0.028,1.015
2026/05/14 10:31:01.836,-0.006,0.029,1.012
2026/05/14 10:31:01.855,-0.011,0.022,1.017
2026/05/14 10:31:01.875,-0.011,0.024,1.016
2026/05/14 10:31:01.895,-0.011,0.025,1.019
2026/05/14 10:31:01.914,-0.01,0.027,1.013
2026/05/14 10:31:01.934,-0.009,0.03,1.011
2026/05/14 10:31:01.954,-0.012,0.023,1.012
2026/05/14 10:31:01.973,-0.011,0.024,1.018
2026/05/14 10:31:01.993,-0.004,0.025,1.016
2026/05/14 10:31:02.013,-0.01,0.027,1.018
2026/05/14 10:31:02.032,-0.011,0.026,1.016
2026/05/14 10:31:02.052,-0.01,0.025,1.014
2026/05/14 10:31:02.072,-0.006,0.026,1.019
2026/05/14 10:31:02.091,-0.009,0.028,1.02
2026/05/14 10:31:02.111,-0.012,0.029,1.013
2026/05/14 10:31:02.131,-0.01,0.024,1.015
2026/05/14 10:31:02.150,-0.011,0.026,1.012
2026/05/14 10:31:02.170,-0.012,0.024,1.015
2026/05/14 10:31:02.190,-0.013,0.027,1.013
2026/05/14 10:31:02.210,-0.013,0.025,1.014
2026/05/14 10:31:02.229,-0.009,0.026,1.018
2026/05/14 10:31:02.249,-0.009,0.024,1.021
2026/05/14 10:31:02.269,-0.007,0.027,1.024
2026/05/14 10:31:02.288,-0.013,0.024,1.007
2026/05/14 10:31:02.308,-0.012,0.024,1.016
2026/05/14 10:31:02.328,-0.008,0.026,1.018
2026/05/14 10:31:02.347,-0.011,0.026,1.015
2026/05/14 10:31:02.367,-0.009,0.026,1.012
2026/05/14 10:31:02.387,-0.01,0.029,1.017
2026/05/14 10:31:02.406,-0.011,0.031,1.019
2026/05/14 10:31:02.426,-0.012,0.026,1.015
2026/05/14 10:31:02.446,-0.013,0.028,1.013
2026/05/14 10:31:02.465,-0.014,0.024,1.023
2026/05/14 10:31:02.485,-0.01,0.03,1.007
2026/05/14 10:31:02.505,-0.011,0.025,1.019
2026/05/14 10:31:02.524,-0.01,0.029,1.018
2026/05/14 10:31:02.544,-0.009,0.024,1.017
2026/05/14 10:31:02.564,-0.009,0.026,1.013
2026/05/14 10:31:02.583,-0.01,0.029,1.016
2026/05/14 10:31:02.603,-0.011,0.025,1.02
2026/05/14 10:31:02.623,-0.011,0.023,1.015
2026/05/14 10:31:02.643,-0.011,0.029,1.016
2026/05/14 10:31:02.662,-0.014,0.025,1.017
2026/05/14 10:31:02.682,-0.008,0.026,1.01
2026/05/14 10:31:02.702,-0.01,0.025,1.018
2026/05/14 10:31:02.721,-0.01,0.025,1.021
2026/05/14 10:31:02.741,-0.009,0.023,1.017
2026/05/14 10:31:02.761,-0.012,0.027,1.018
2026/05/14 10:31:02.780,-0.01,0.024,1.017
2026/05/14 10:31:02.800,-0.01,0.024,1.018
2026/05/14 10:31:02.820,-0.005,0.027,1.013
2026/05/14 10:31:02.839,-0.009,0.027,1.018
2026/05/14 10:31:02.859,-0.008,0.029,1.015
2026/05/14 10:31:02.879,-0.011,0.027,1.018
2026/05/14 10:31:02.898,-0.009,0.025,1.017
2026/05/14 10:31:02.918,-0.012,0.025,1.016
2026/05/14 10:31:02.938,-0.011,0.025,1.014
2026/05/14 10:31:02.957,-0.01,0.025,1.021
2026/05/14 10:31:02.977,-0.009,0.021,1.015
2026/05/14 10:31:02.997,-0.012,0.022,1.023
2026/05/14 10:31:03.016,-0.008,0.023,1.018
2026/05/14 10:31:03.036,-0.009,0.023,1.021
2026/05/14 10:31:03.056,-0.012,0.024,1.016
2026/05/14 10:31:03.075,-0.01,0.023,1.019
2026/05/14 10:31:03.095,-0.009,0.029,1.016
2026/05/14 10:31:03.115,-0.01,0.026,1.022
2026/05/14 10:31:03.135,-0.012,0.023,1.019
2026/05/14 10:31:03.154,-0.012,0.02,1.019
2026/05/14 10:31:03.174,-0.012,0.026,1.018
2026/05/14 10:31:03.194,-0.009,0.024,1.014
2026/05/14 10:31:03.213,-0.011,0.024,1.012
2026/05/14 10:31:03.233,-0.013,0.022,1.012
2026/05/14 10:31:03.253,-0.011,0.028,1.023
2026/05/14 10:31:03.272,-0.011,0.027,1.016
2026/05/14 10:31:03.292,-0.015,0.028,1.017
2026/05/14 10:31:03.312,-0.011,0.021,1.016
2026/05/14 10:31:03.331,-0.011,0.025,1.021
2026/05/14 10:31:03.351,-0.015,0.027,1.019
2026/05/14 10:31:03.371,-0.007,0.027,1.014
2026/05/14 10:31:03.390,-0.011,0.027,1.006
2026/05/14 10:31:03.410,-0.011,0.021,1.014
2026/05/14 10:31:03.430,-0.009,0.023,1.02
2026/05/14 10:31:03.449,-0.009,0.026,1.02
2026/05/14 10:31:03.469,-0.012,0.027,1.016
2026/05/14 10:31:03.489,-0.011,0.028,1.008
2026/05/14 10:31:03.508,-0.012,0.026,1.019
2026/05/14 10:31:03.528,-0.012,0.025,1.014
2026/05/14 10:31:03.548,-0.011,0.025,1.012
2026/05/14 10:31:03.568,-0.013,0.025,1.022
2026/05/14 10:31:03.587,-0.015,0.025,1.019
2026/05/14 10:31:03.607,-0.009,0.024,1.015
2026/05/14 10:31:03.627,-0.01,0.026,1.017
2026/05/14 10:31:03.646,-0.011,0.023,1.015
2026/05/14 10:31:03.666,-0.011,0.026,1.017
2026/05/14 10:31:03.686,-0.008,0.025,1.018
2026/05/14 10:31:03.705,-0.012,0.024,1.019
2026/05/14 10:31:03.725,-0.008,0.023,1.014
2026/05/14 10:31:03.745,-0.011,0.024,1.017
2026/05/14 10:31:03.764,-0.008,0.026,1.019
2026/05/14 10:31:03.784,-0.01,0.03,1.016
2026/05/14 10:31:03.804,-0.012,0.03,1.014
2026/05/14 10:31:03.823,-0.012,0.024,1.015
2026/05/14 10:31:03.843,-0.01,0.023,1.015
2026/05/14 10:31:03.863,-0.01,0.029,1.018
2026/05/14 10:31:03.882,-0.014,0.02,1.018
2026/05/14 10:31:03.902,-0.012,0.027,1.019
2026/05/14 10:31:03.922,-0.009,0.027,1.019
2026/05/14 10:31:03.941,-0.012,0.026,1.014
2026/05/14 10:31:03.961,-0.013,0.023,1.015
2026/05/14 10:31:03.981,-0.012,0.026,1.012
2026/05/14 10:31:04.000,-0.01,0.027,1.017
2026/05/14 10:31:04.020,-0.011,0.028,1.015
2026/05/14 10:31:04.040,-0.007,0.028,1.017
2026/05/14 10:31:04.060,-0.011,0.027,1.022
2026/05/14 10:31:04.079,-0.012,0.027,1.017
2026/05/14 10:31:04.099,-0.009,0.026,1.014
2026/05/14 10:31:04.119,-0.009,0.023,1.015
2026/05/14 10:31:04.138,-0.011,0.025,1.014
2026/05/14 10:31:04.158,-0.01,0.025,1.017
2026/05/14 10:31:04.178,-0.014,0.026,1.017
2026/05/14 10:31:04.197,-0.008,0.022,1.014
2026/05/14 10:31:04.217,-0.012,0.025,1.016
2026/05/14 10:31:04.237,-0.01,0.028,1.02
2026/05/14 10:31:04.256,-0.011,0.025,1.016
2026/05/14 10:31:04.276,-0.009,0.026,1.017
2026/05/14 10:31:04.296,-0.01,0.028,1.017
2026/05/14 10:31:04.315,-0.011,0.03,1.015
2026/05/14 10:31:04.335,-0.012,0.027,1.019
2026/05/14 10:31:04.355,-0.011,0.025,1.015
2026/05/14 10:31:04.374,-0.011,0.022,1.021
2026/05/14 10:31:04.394,-0.012,0.028,1.017
2026/05/14 10:31:04.414,-0.01,0.026,1.018
2026/05/14 10:31:04.433,-0.011,0.024,1.015
2026/05/14 10:31:04.453,-0.011,0.024,1.016
2026/05/14 10:31:04.473,-0.015,0.023,1.018
2026/05/14 10:31:04.492,-0.012,0.024,1.016
2026/05/14 10:31:04.512,-0.01,0.027,1.014
2026/05/14 10:31:04.532,-0.011,0.025,1.014
2026/05/14 10:31:04.552,-0.009,0.026,1.018
2026/05/14 10:31:04.571,-0.01,0.025,1.015
2026/05/14 10:31:04.591,-0.011,0.028,1.017
2026/05/14 10:31:04.611,-0.015,0.025,1.017
2026/05/14 10:31:04.630,-0.01,0.026,1.018
2026/05/14 10:31:04.650,-0.009,0.027,1.018
2026/05/14 10:31:04.670,-0.008,0.023,1.013
2026/05/14 10:31:04.689,-0.009,0.037,1.015
2026/05/14 10:31:04.709,-0.005,0.03,0.991
2026/05/14 10:31:04.729,-0.007,0.025,1.025
2026/05/14 10:31:04.748,-0.011,0.017,1.021
2026/05/14 10:31:04.768,-0.015,0.021,1.009
2026/05/14 10:31:04.788,-0.008,0.022,0.997
2026/05/14 10:31:04.807,-0.013,0.016,1.024
2026/05/14 10:31:04.827,-0.011,0.027,1.014
2026/05/14 10:31:04.847,-0.009,0.025,1.022
2026/05/14 10:31:04.866,-0.011,0.024,1.022
2026/05/14 10:31:04.886,-0.005,0.02,1.019
2026/05/14 10:31:04.906,-0.009,0.031,1.009
2026/05/14 10:31:04.925,-0.013,0.031,1.018
2026/05/14 10:31:04.945,-0.008,0.03,1.018
2026/05/14 10:31:04.965,-0.016,0.03,1.015
2026/05/14 10:31:04.984,-0.01,0.031,1.017
2026/05/14 10:31:05.004,-0.009,0.02,1.021
2026/05/14 10:31:05.024,-0.005,0.024,1.012
2026/05/14 10:31:05.044,-0.01,0.023,1.015
2026/05/14 10:31:05.063,-0.01,0.025,1.022
2026/05/14 10:31:05.083,-0.009,0.026,1.012
2026/05/14 10:31:05.103,-0.015,0.023,1.02
2026/05/14 10:31:05.122,-0.013,0.025,1.012
2026/05/14 10:31:05.142,-0.015,0.024,1.018
2026/05/14 10:31:05.162,-0.012,0.027,1.016
2026/05/14 10:31:05.181,-0.008,0.027,1.021
2026/05/14 10:31:05.201,-0.008,0.027,1.014
2026/05/14 10:31:05.221,-0.009,0.025,1.014
2026/05/14 10:31:05.240,-0.009,0.027,1.018
2026/05/14 10:31:05.260,-0.011,0.027,1.013
2026/05/14 10:31:05.280,-0.015,0.024,1.014
2026/05/14 10:31:05.299,-0.014,0.022,1.016
2026/05/14 10:31:05.319,-0.013,0.024,1.017
2026/05/14 10:31:05.339,-0.01,0.027,1.013
2026/05/14 10:31:05.358,-0.009,0.026,1.016
2026/05/14 10:31:05.378,-0.009,0.026,1.015
2026/05/14 10:31:05.398,-0.011,0.025,1.015
2026/05/14 10:31:05.417,-0.012,0.026,1.013
2026/05/14 10:31:05.437,-0.009,0.026,1.016
2026/05/14 10:31:05.457,-0.011,0.028,1.018
2026/05/14 10:31:05.476,-0.01,0.027,1.014
2026/05/14 10:31:05.496,-0.011,0.022,1.018
2026/05/14 10:31:05.516,-0.011,0.021,1.014
2026/05/14 10:31:05.536,-0.01,0.024,1.016
2026/05/14 10:31:05.555,-0.01,0.027,1.018
2026/05/14 10:31:05.575,-0.01,0.021,1.018
2026/05/14 10:31:05.595,-0.01,0.024,1.016
2026/05/14 10:31:05.614,-0.012,0.026,1.016
2026/05/14 10:31:05.634,-0.015,0.023,1.012
2026/05/14 10:31:05.654,-0.011,0.02,1.015
2026/05/14 10:31:05.673,-0.011,0.024,1.015
2026/05/14 10:31:05.693,-0.007,0.025,1.013
2026/05/14 10:31:05.713,-0.01,0.024,1.015
2026/05/14 10:31:05.732,-0.008,0.028,1.014
2026/05/14 10:31:05.752,-0.008,0.028,1.014
2026/05/14 10:31:05.772,-0.007,0.024,1.014
2026/05/14 10:31:05.791,-0.012,0.026,1.012
2026/05/14 10:31:05.811,-0.009,0.024,1.014
2026/05/14 10:31:05.831,-0.009,0.026,1.02
2026/05/14 10:31:05.850,-0.008,0.024,1.017
2026/05/14 10:31:05.870,-0.009,0.026,1.016
2026/05/14 10:31:05.890,-0.011,0.026,1.02
2026/05/14 10:31:05.909,-0.011,0.025,1.018
2026/05/14 10:31:05.929,-0.013,0.023,1.016
2026/05/14 10:31:05.949,-0.015,0.021,1.013
2026/05/14 10:31:05.968,-0.011,0.022,1.018
2026/05/14 10:31:05.988,-0.01,0.022,1.017
2026/05/14 10:31:06.008,-0.008,0.026,1.014
2026/05/14 10:31:06.028,-0.008,0.027,1.017
2026/05/14 10:31:06.047,-0.01,0.027,1.013
2026/05/14 10:31:06.067,-0.011,0.024,1.018
2026/05/14 10:31:06.087,-0.012,0.027,1.016
2026/05/14 10:31:06.106,-0.016,0.026,1.013
2026/05/14 10:31:06.126,-0.013,0.025,1.017
2026/05/14 10:31:06.146,-0.014,0.025,1.016
2026/05/14 10:31:06.165,-0.01,0.023,1.017
2026/05/14 10:31:06.185,-0.011,0.024,1.017
2026/05/14 10:31:06.205,-0.009,0.024,1.017
2026/05/14 10:31:06.224,-0.011,0.025,1.015
2026/05/14 10:31:06.244,-0.015,0.026,1.014
2026/05/14 10:31:06.264,-0.009,0.024,1.015
2026/05/14 10:31:06.283,-0.01,0.027,1.015
2026/05/14 10:31:06.303,-0.012,0.026,1.015
2026/05/14 10:31:06.323,-0.01,0.027,1.017
2026/05/14 10:31:06.342,-0.009,0.024,1.014
2026/05/14 10:31:06.362,-0.01,0.025,1.019
2026/05/14 10:31:06.382,-0.007,0.028,1.016
2026/05/14 10:31:06.401,-0.011,0.026,1.014
2026/05/14 10:31:06.421,-0.01,0.03,1.018
2026/05/14 10:31:06.441,-0.015,0.025,1.019
2026/05/14 10:31:06.460,-0.01,0.027,1.018
2026/05/14 10:31:06.480,-0.011,0.026,1.017
2026/05/14 10:31:06.500,-0.011,0.028,1.02
2026/05/14 10:31:06.520,-0.009,0.024,1.015
2026/05/14 10:31:06.539,-0.012,0.021,1.016
2026/05/14 10:31:06.559,-0.01,0.023,1.019
2026/05/14 10:31:06.579,-0.009,0.03,1.014
2026/05/14 10:31:06.598,-0.011,0.026,1.015
2026/05/14 10:31:06.618,-0.011,0.028,1.017
2026/05/14 10:31:06.638,-0.01,0.024,1.015
2026/05/14 10:31:06.657,-0.009,0.022,1.016
2026/05/14 10:31:06.677,-0.013,0.024,1.013
2026/05/14 10:31:06.697,-0.01,0.022,1.017
2026/05/14 10:31:06.716,-0.013,0.026,1.017
2026/05/14 10:31:06.736,-0.01,0.024,1.019
2026/05/14 10:31:06.756,-0.013,0.032,1.021
2026/05/14 10:31:06.775,-0.012,0.031,1.014
2026/05/14 10:31:06.795,-0.014,0.027,1.016
2026/05/14 10:31:06.815,-0.01,0.027,1.02
2026/05/14 10:31:06.834,-0.009,0.019,1.018
2026/05/14 10:31:06.854,-0.007,0.024,1.016
2026/05/14 10:31:06.874,-0.007,0.017,1.019
2026/05/14 10:31:06.893,-0.011,0.018,1.017
2026/05/14 10:31:06.913,-0.016,0.021,1.02
2026/05/14 10:31:06.933,-0.017,0.025,1.016
2026/05/14 10:31:06.952,-0.018,0.026,1.015
2026/05/14 10:31:06.972,-0.004,0.031,1.031
2026/05/14 10:31:06.992,-0.005,0.028,1.003
2026/05/14 10:31:07.012,-0.01,0.023,1.012
2026/05/14 10:31:07.031,-0.003,0.021,1.039
2026/05/14 10:31:07.051,0.0,0.032,1.019
2026/05/14 10:31:07.071,-0.007,0.032,1.028
2026/05/14 10:31:07.090,-0.011,0.032,1.006
2026/05/14 10:31:07.110,-0.015,0.027,1.011
2026/05/14 10:31:07.130,-0.01,0.026,1.015
2026/05/14 10:31:07.149,-0.008,0.022,1.011
2026/05/14 10:31:07.169,-0.008,0.028,1.014
2026/05/14 10:31:07.189,-0.003,0.029,1.021
2026/05/14 10:31:07.208,-0.005,0.027,1.015
2026/05/14 10:31:07.228,-0.007,0.022,1.016
2026/05/14 10:31:07.248,-0.017,0.025,1.014
2026/05/14 10:31:07.267,0.084,-0.046,1.783
2026/05/14 10:31:07.287,-0.254,-0.186,0.992
2026/05/14 10:31:07.307,0.067,0.163,0.832
2026/05/14 10:31:07.326,-0.061,0.049,1.154
2026/05/14 10:31:07.346,-0.006,0.031,1.034
2026/05/14 10:31:07.366,-0.006,0.028,0.947
2026/05/14 10:31:07.385,-0.019,0.019,1.031
2026/05/14 10:31:07.405,-0.007,0.025,1.015
2026/05/14 10:31:07.425,-0.008,0.022,1.021
2026/05/14 10:31:07.444,0.0,0.033,1.016
2026/05/14 10:31:07.464,0.002,0.037,1.028
2026/05/14 10:31:07.484,-0.006,0.046,1.02
2026/05/14 10:31:07.503,-0.009,0.042,0.999
2026/05/14 10:31:07.523,-0.015,0.047,0.998
2026/05/14 10:31:07.543,-0.015,0.035,1.021
2026/05/14 10:31:07.563,-0.019,0.025,1.02
2026/05/14 10:31:07.582,-0.01,0.021,1.015
2026/05/14 10:31:07.602,-0.015,0.011,0.999
2026/05/14 10:31:07.622,-0.011,0.001,1.015
2026/05/14 10:31:07.641,-0.02,-0.002,1.02
2026/05/14 10:31:07.661,-0.016,0.005,0.995
2026/05/14 10:31:07.681,-0.021,0.025,0.973
2026/05/14 10:31:07.700,-0.025,0.021,1.046
2026/05/14 10:31:07.720,-0.011,0.034,0.999
2026/05/14 10:31:07.740,-0.007,0.031,1.006
2026/05/14 10:31:07.759,-0.003,0.033,1.013
2026/05/14 10:31:07.779,-0.002,0.035,1.013
2026/05/14 10:31:07.799,-0.003,0.039,1.007
2026/05/14 10:31:07.818,-0.009,0.034,1.01
2026/05/14 10:31:07.838,-0.009,0.028,1.02
2026/05/14 10:31:07.858,-0.017,0.028,1.009
2026/05/14 10:31:07.877,-0.015,0.015,1.011
2026/05/14 10:31:07.897,-0.013,0.008,1.023
2026/05/14 10:31:07.917,-0.014,0.008,1.014
2026/05/14 10:31:07.936,-0.008,0.009,1.016
2026/05/14 10:31:07.956,-0.013,0.015,1.012
2026/05/14 10:31:07.976,-0.017,0.021,1.016
2026/05/14 10:31:07.995,-0.016,0.029,1.02
2026/05/14 10:31:08.015,-0.012,0.034,1.007
2026/05/14 10:31:08.035,-0.008,0.032,1.015
2026/05/14 10:31:08.055,-0.007,0.033,1.016
2026/05/14 10:31:08.074,-0.008,0.035,1.016
2026/05/14 10:31:08.094,-0.006,0.035,1.015
2026/05/14 10:31:08.114,-0.007,0.03,1.01
2026/05/14 10:31:08.133,-0.013,0.028,1.019
2026/05/14 10:31:08.153,-0.012,0.028,1.014
2026/05/14 10:31:08.173,-0.018,0.018,1.018
2026/05/14 10:31:08.192,-0.013,0.018,1.018
2026/05/14 10:31:08.212,-0.011,0.012,1.02
2026/05/14 10:31:08.232,-0.016,0.015,1.02
2026/05/14 10:31:08.251,-0.015,0.011,1.016
2026/05/14 10:31:08.271,-0.013,0.026,1.016
2026/05/14 10:31:08.291,-0.006,0.031,1.018
2026/05/14 10:31:08.310,-0.01,0.029,1.016
2026/05/14 10:31:08.330,-0.009,0.032,1.024
2026/05/14 10:31:08.350,-0.008,0.035,1.016
2026/05/14 10:31:08.369,-0.009,0.032,1.017
2026/05/14 10:31:08.389,-0.009,0.032,1.013
2026/05/14 10:31:08.409,-0.015,0.034,1.01
2026/05/14 10:31:08.428,-0.017,0.027,1.014
2026/05/14 10:31:08.448,-0.013,0.022,1.017
2026/05/14 10:31:08.468,-0.009,0.018,1.024
2026/05/14 10:31:08.487,-0.011,0.015,1.018
2026/05/14 10:31:08.507,-0.009,0.015,1.019
2026/05/14 10:31:08.527,-0.011,0.018,1.017
2026/05/14 10:31:08.547,-0.016,0.026,1.016
2026/05/14 10:31:08.566,-0.015,0.03,1.016
2026/05/14 10:31:08.586,-0.013,0.028,1.012
2026/05/14 10:31:08.606,-0.006,0.027,1.019
2026/05/14 10:31:08.625,-0.007,0.029,1.014
2026/05/14 10:31:08.645,-0.005,0.031,1.014
2026/05/14 10:31:08.665,-0.007,0.03,1.013
2026/05/14 10:31:08.684,-0.008,0.031,1.011
2026/05/14 10:31:08.704,-0.01,0.029,1.015
2026/05/14 10:31:08.724,-0.011,0.026,1.016
2026/05/14 10:31:08.743,-0.013,0.023,1.018
2026/05/14 10:31:08.763,-0.013,0.02,1.018
2026/05/14 10:31:08.783,-0.011,0.017,1.019
2026/05/14 10:31:08.802,-0.009,0.017,1.014
2026/05/14 10:31:08.822,-0.008,0.021,1.017
2026/05/14 10:31:08.842,-0.012,0.023,1.021
2026/05/14 10:31:08.861,-0.011,0.029,1.018
2026/05/14 10:31:08.881,-0.01,0.027,1.017
2026/05/14 10:31:08.901,-0.01,0.034,1.019
2026/05/14 10:31:08.920,-0.004,0.028,1.015
2026/05/14 10:31:08.940,-0.01,0.031,1.014
2026/05/14 10:31:08.960,-0.007,0.034,1.014
2026/05/14 10:31:08.979,-0.015,0.03,1.013
2026/05/14 10:31:08.999,-0.01,0.027,1.016
2026/05/14 10:31:09.019,-0.01,0.02,1.016
2026/05/14 10:31:09.039,-0.012,0.022,1.021
2026/05/14 10:31:09.058,-0.014,0.018,1.015
2026/05/14 10:31:09.078,-0.011,0.02,1.02
2026/05/14 10:31:09.098,-0.011,0.021,1.013
2026/05/14 10:31:09.117,-0.009,0.026,1.018
2026/05/14 10:31:09.137,-0.015,0.025,1.019
2026/05/14 10:31:09.157,-0.011,0.029,1.014
2026/05/14 10:31:09.176,-0.011,0.028,1.015
2026/05/14 10:31:09.196,-0.008,0.029,1.01
2026/05/14 10:31:09.216,-0.008,0.026,1.015
2026/05/14 10:31:09.235,-0.009,0.026,1.014
2026/05/14 10:31:09.255,-0.009,0.026,1.013
2026/05/14 10:31:09.275,-0.012,0.028,1.018
2026/05/14 10:31:09.294,-0.011,0.025,1.021
2026/05/14 10:31:09.314,-0.011,0.025,1.016
2026/05/14 10:31:09.334,-0.012,0.019,1.009
2026/05/14 10:31:09.353,-0.014,0.023,1.015
2026/05/14 10:31:09.373,-0.011,0.023,1.014
2026/05/14 10:31:09.393,-0.012,0.021,1.015
2026/05/14 10:31:09.412,-0.013,0.021,1.016
2026/05/14 10:31:09.432,-0.01,0.028,1.019
2026/05/14 10:31:09.452,-0.01,0.027,1.011
2026/05/14 10:31:09.472,-0.007,0.027,1.013
2026/05/14 10:31:09.491,-0.008,0.027,1.014
2026/05/14 10:31:09.511,-0.008,0.028,1.013
2026/05/14 10:31:09.531,-0.012,0.026,1.018
2026/05/14 10:31:09.550,-0.011,0.027,1.015
2026/05/14 10:31:09.570,-0.011,0.026,1.017
2026/05/14 10:31:09.590,-0.014,0.023,1.014
2026/05/14 10:31:09.609,-0.011,0.022,1.021
2026/05/14 10:31:09.629,-0.008,0.024,1.014
2026/05/14 10:31:09.649,-0.012,0.021,1.022
2026/05/14 10:31:09.668,-0.009,0.024,1.015
2026/05/14 10:31:09.688,-0.012,0.025,1.016
2026/05/14 10:31:09.708,-0.011,0.027,1.014
2026/05/14 10:31:09.727,-0.012,0.033,1.014
2026/05/14 10:31:09.747,-0.011,0.026,1.016
2026/05/14 10:31:09.767,-0.011,0.026,1.016
2026/05/14 10:31:09.786,-0.011,0.029,1.018
2026/05/14 10:31:09.806,-0.011,0.023,1.016
2026/05/14 10:31:09.826,-0.012,0.025,1.013
2026/05/14 10:31:09.845,-0.011,0.026,1.017
2026/05/14 10:31:09.865,-0.013,0.024,1.014
2026/05/14 10:31:09.885,-0.013,0.026,1.017
2026/05/14 10:31:09.904,-0.013,0.022,1.014
2026/05/14 10:31:09.924,-0.011,0.02,1.016
2026/05/14 10:31:09.944,-0.011,0.023,1.019
2026/05/14 10:31:09.964,-0.01,0.023,1.015
2026/05/14 10:31:09.983,-0.014,0.027,1.019
2026/05/14 10:31:10.003,-0.011,0.025,1.016
2026/05/14 10:31:10.023,-0.006,0.026,1.015
2026/05/14 10:31:10.042,-0.01,0.03,1.018
2026/05/14 10:31:10.062,-0.01,0.026,1.014
2026/05/14 10:31:10.082,-0.009,0.031,1.016
2026/05/14 10:31:10.101,-0.009,0.027,1.014
2026/05/14 10:31:10.121,-0.011,0.026,1.013
2026/05/14 10:31:10.141,-0.015,0.028,1.017
2026/05/14 10:31:10.160,-0.011,0.028,1.016
2026/05/14 10:31:10.180,-0.013,0.02,1.015
2026/05/14 10:31:10.200,-0.011,0.025,1.017
2026/05/14 10:31:10.219,-0.01,0.025,1.017
2026/05/14 10:31:10.239,-0.012,0.021,1.015
2026/05/14 10:31:10.259,-0.009,0.023,1.018
2026/05/14 10:31:10.278,-0.007,0.022,1.014
2026/05/14 10:31:10.298,-0.015,0.024,1.015
2026/05/14 10:31:10.318,-0.008,0.027,1.018
2026/05/14 10:31:10.337,-0.011,0.025,1.013
2026/05/14 10:31:10.357,-0.01,0.027,1.018
2026/05/14 10:31:10.377,-0.01,0.025,1.018
2026/05/14 10:31:10.396,-0.011,0.023,1.012
2026/05/14 10:31:10.416,-0.011,0.024,1.019
2026/05/14 10:31:10.436,-0.015,0.026,1.014
2026/05/14 10:31:10.456,-0.018,0.02,1.016
2026/05/14 10:31:10.475,-0.007,0.026,1.016
2026/05/14 10:31:10.495,-0.01,0.021,1.019
2026/05/14 10:31:10.515,-0.01,0.022,1.018
2026/05/14 10:31:10.534,-0.009,0.023,1.014
2026/05/14 10:31:10.554,-0.012,0.026,1.013
2026/05/14 10:31:10.574,-0.01,0.027,1.015
2026/05/14 10:31:10.593,-0.01,0.024,1.016
2026/05/14 10:31:10.613,-0.011,0.027,1.013
2026/05/14 10:31:10.633,-0.009,0.024,1.012
2026/05/14 10:31:10.652,-0.01,0.025,1.015
2026/05/14 10:31:10.672,-0.01,0.026,1.018
2026/05/14 10:31:10.692,-0.012,0.022,1.019
2026/05/14 10:31:10.711,-0.011,0.028,1.016
2026/05/14 10:31:10.731,-0.009,0.024,1.015
2026/05/14 10:31:10.751,-0.011,0.023,1.015
2026/05/14 10:31:10.770,-0.011,0.027,1.014
2026/05/14 10:31:10.790,-0.013,0.026,1.017
2026/05/14 10:31:10.810,-0.01,0.025,1.019
2026/05/14 10:31:10.829,-0.011,0.024,1.015
2026/05/14 10:31:10.849,-0.012,0.024,1.018
2026/05/14 10:31:10.869,-0.011,0.025,1.013
2026/05/14 10:31:10.889,-0.013,0.023,1.016
2026/05/14 10:31:10.908,-0.012,0.027,1.015
2026/05/14 10:31:10.928,-0.009,0.03,1.014
2026/05/14 10:31:10.948,-0.011,0.027,1.017
2026/05/14 10:31:10.967,-0.01,0.027,1.017
2026/05/14 10:31:10.987,-0.011,0.025,1.015
2026/05/14 10:31:11.007,-0.009,0.026,1.018
2026/05/14 10:31:11.026,-0.009,0.024,1.017
2026/05/14 10:31:11.046,-0.011,0.027,1.018
2026/05/14 10:31:11.066,-0.012,0.026,1.016
2026/05/14 10:31:11.085,-0.014,0.028,1.021
2026/05/14 10:31:11.105,-0.012,0.022,1.021
2026/05/14 10:31:11.125,-0.011,0.025,1.01
2026/05/14 10:31:11.144,-0.011,0.024,1.018
2026/05/14 10:31:11.164,-0.011,0.027,1.015
2026/05/14 10:31:11.184,-0.01,0.027,1.015
2026/05/14 10:31:11.203,-0.01,0.024,1.017
2026/05/14 10:31:11.223,-0.013,0.026,1.02
2026/05/14 10:31:11.243,-0.012,0.027,1.016
2026/05/14 10:31:11.262,-0.013,0.023,1.017
2026/05/14 10:31:11.282,-0.009,0.026,1.015
2026/05/14 10:31:11.302,-0.009,0.022,1.013
2026/05/14 10:31:11.321,-0.012,0.021,1.018
2026/05/14 10:31:11.341,-0.009,0.03,1.016
2026/05/14 10:31:11.361,-0.016,0.028,1.02
2026/05/14 10:31:11.381,-0.012,0.024,1.016
2026/05/14 10:31:11.400,-0.008,0.028,1.016
2026/05/14 10:31:11.420,-0.009,0.024,1.016
2026/05/14 10:31:11.440,-0.011,0.025,1.014
2026/05/14 10:31:11.459,-0.008,0.028,1.017
2026/05/14 10:31:11.479,-0.012,0.025,1.016
2026/05/14 10:31:11.499,-0.01,0.025,1.013
2026/05/14 10:31:11.518,-0.012,0.025,1.014
2026/05/14 10:31:11.538,-0.013,0.021,1.016
2026/05/14 10:31:11.558,-0.009,0.023,1.015
2026/05/14 10:31:11.577,-0.009,0.025,1.016
2026/05/14 10:31:11.597,-0.011,0.024,1.019
2026/05/14 10:31:11.617,-0.013,0.026,1.016
2026/05/14 10:31:11.636,-0.007,0.024,1.016
2026/05/14 10:31:11.656,-0.012,0.025,1.013
2026/05/14 10:31:11.676,-0.012,0.024,1.015
2026/05/14 10:31:11.695,-0.009,0.027,1.014
2026/05/14 10:31:11.715,-0.013,0.028,1.016
2026/05/14 10:31:11.735,-0.014,0.025,1.015
2026/05/14 10:31:11.754,-0.012,0.026,1.016
2026/05/14 10:31:11.774,-0.012,0.024,1.016
2026/05/14 10:31:11.794,-0.011,0.019,1.019
2026/05/14 10:31:11.813,-0.014,0.022,1.01
2026/05/14 10:31:11.833,-0.012,0.025,1.015
2026/05/14 10:31:11.853,-0.012,0.029,1.014
2026/05/14 10:31:11.873,-0.011,0.027,1.018
2026/05/14 10:31:11.892,-0.013,0.025,1.016
2026/05/14 10:31:11.912,-0.008,0.025,1.018
2026/05/14 10:31:11.932,-0.01,0.028,1.013
2026/05/14 10:31:11.951,-0.011,0.023,1.014
2026/05/14 10:31:11.971,-0.01,0.026,1.019
2026/05/14 10:31:11.991,-0.012,0.024,1.018
2026/05/14 10:31:12.010,-0.012,0.029,1.013
2026/05/14 10:31:12.030,-0.008,0.024,1.016
2026/05/14 10:31:12.050,-0.011,0.022,1.014
2026/05/14 10:31:12.069,-0.012,0.027,1.018
2026/05/14 10:31:12.089,-0.014,0.026,1.015
2026/05/14 10:31:12.109,-0.01,0.025,1.014
2026/05/14 10:31:12.128,-0.01,0.025,1.018
2026/05/14 10:31:12.148,-0.011,0.026,1.013
2026/05/14 10:31:12.168,-0.008,0.024,1.013
2026/05/14 10:31:12.187,-0.011,0.024,1.019
2026/05/14 10:31:12.207,-0.012,0.024,1.016
2026/05/14 10:31:12.227,-0.014,0.022,1.02
2026/05/14 10:31:12.246,-0.012,0.026,1.015
2026/05/14 10:31:12.266,-0.011,0.024,1.017
2026/05/14 10:31:12.286,-0.012,0.027,1.021
2026/05/14 10:31:12.305,-0.012,0.021,1.015
2026/05/14 10:31:12.325,-0.011,0.027,1.019
2026/05/14 10:31:12.345,-0.011,0.026,1.015
2026/05/14 10:31:12.365,-0.011,0.026,1.014
2026/05/14 10:31:12.384,-0.01,0.023,1.014
2026/05/14 10:31:12.404,-0.01,0.027,1.016
2026/05/14 10:31:12.424,-0.01,0.026,1.017
2026/05/14 10:31:12.443,-0.012,0.026,1.017
2026/05/14 10:31:12.463,-0.009,0.027,1.015
2026/05/14 10:31:12.483,-0.012,0.025,1.013
2026/05/14 10:31:12.502,-0.006,0.027,1.018
2026/05/14 10:31:12.522,-0.014,0.025,1.016
2026/05/14 10:31:12.542,-0.012,0.021,1.015
2026/05/14 10:31:12.561,-0.01,0.026,1.011
2026/05/14 10:31:12.581,-0.01,0.027,1.018
2026/05/14 10:31:12.601,-0.01,0.022,1.014
2026/05/14 10:31:12.620,-0.012,0.021,1.015
2026/05/14 10:31:12.640,-0.01,0.029,1.023
2026/05/14 10:31:12.660,-0.012,0.026,1.018
2026/05/14 10:31:12.679,-0.011,0.024,1.019
2026/05/14 10:31:12.699,-0.01,0.024,1.014
2026/05/14 10:31:12.719,-0.012,0.029,1.015
2026/05/14 10:31:12.738,-0.011,0.027,1.014
2026/05/14 10:31:12.758,-0.01,0.024,1.015
2026/05/14 10:31:12.778,-0.011,0.027,1.019
2026/05/14 10:31:12.798,-0.015,0.025,1.018
2026/05/14 10:31:12.817,-0.012,0.022,1.015
2026/05/14 10:31:12.837,-0.009,0.026,1.017
2026/05/14 10:31:12.857,-0.013,0.024,1.017
2026/05/14 10:31:12.876,-0.008,0.026,1.012
2026/05/14 10:31:12.896,-0.013,0.025,1.016
2026/05/14 10:31:12.916,-0.008,0.029,1.019
2026/05/14 10:31:12.935,-0.016,0.024,1.015
2026/05/14 10:31:12.955,-0.006,0.026,1.014
2026/05/14 10:31:12.975,-0.012,0.024,1.014
2026/05/14 10:31:12.994,-0.009,0.025,1.012
2026/05/14 10:31:13.014,-0.013,0.024,1.015
2026/05/14 10:31:13.034,-0.012,0.026,1.013
2026/05/14 10:31:13.053,-0.014,0.026,1.015
2026/05/14 10:31:13.073,-0.011,0.027,1.014
2026/05/14 10:31:13.093,-0.013,0.027,1.017
2026/05/14 10:31:13.112,-0.015,0.02,1.019
2026/05/14 10:31:13.132,-0.011,0.025,1.014
2026/05/14 10:31:13.152,-0.01,0.027,1.015
2026/05/14 10:31:13.171,-0.014,0.025,1.019
2026/05/14 10:31:13.191,-0.012,0.027,1.014
2026/05/14 10:31:13.211,-0.011,0.024,1.016
2026/05/14 10:31:13.230,-0.008,0.023,1.016
2026/05/14 10:31:13.250,-0.008,0.023,1.019
2026/05/14 10:31:13.270,-0.013,0.03,1.016
2026/05/14 10:31:13.290,-0.007,0.027,1.016
2026/05/14 10:31:13.309,-0.011,0.029,1.015
2026/05/14 10:31:13.329,-0.008,0.025,1.017
2026/05/14 10:31:13.349,-0.011,0.029,1.013
2026/05/14 10:31:13.368,-0.014,0.028,1.018
2026/05/14 10:31:13.388,-0.011,0.025,1.014
2026/05/14 10:31:13.408,-0.011,0.026,1.015
2026/05/14 10:31:13.427,-0.014,0.025,1.019
2026/05/14 10:31:13.447,-0.012,0.024,1.018
2026/05/14 10:31:13.467,-0.011,0.023,1.017
2026/05/14 10:31:13.486,-0.015,0.02,1.014
2026/05/14 10:31:13.506,-0.009,0.027,1.015
2026/05/14 10:31:13.526,-0.013,0.024,1.015
2026/05/14 10:31:13.545,-0.014,0.021,1.019
2026/05/14 10:31:13.565,-0.011,0.024,1.016
2026/05/14 10:31:13.585,-0.011,0.027,1.014
2026/05/14 10:31:13.604,-0.011,0.024,1.018
2026/05/14 10:31:13.624,-0.013,0.025,1.019
2026/05/14 10:31:13.644,-0.01,0.024,1.019
2026/05/14 10:31:13.663,-0.011,0.027,1.016
2026/05/14 10:31:13.683,-0.005,0.02,1.014
2026/05/14 10:31:13.703,-0.012,0.025,1.014
2026/05/14 10:31:13.722,-0.01,0.021,1.016
2026/05/14 10:31:13.742,-0.013,0.026,1.019
2026/05/14 10:31:13.762,-0.011,0.025,1.019
2026/05/14 10:31:13.782,-0.008,0.03,1.017
2026/05/14 10:31:13.801,-0.011,0.023,1.014
2026/05/14 10:31:13.821,-0.011,0.023,1.017
2026/05/14 10:31:13.841,-0.01,0.026,1.016
2026/05/14 10:31:13.860,-0.01,0.02,1.018
2026/05/14 10:31:13.880,-0.008,0.023,1.014
2026/05/14 10:31:13.900,-0.013,0.026,1.014
2026/05/14 10:31:13.919,-0.01,0.028,1.018
2026/05/14 10:31:13.939,-0.011,0.024,1.015
2026/05/14 10:31:13.959,-0.011,0.025,1.017
2026/05/14 10:31:13.978,-0.008,0.023,1.02
2026/05/14 10:31:13.998,-0.011,0.026,1.017
2026/05/14 10:31:14.018,-0.009,0.021,1.015
2026/05/14 10:31:14.037,-0.01,0.028,1.016
2026/05/14 10:31:14.057,-0.008,0.026,1.014
2026/05/14 10:31:14.077,-0.013,0.028,1.018
2026/05/14 10:31:14.096,-0.008,0.026,1.016
2026/05/14 10:31:14.116,-0.011,0.026,1.019
2026/05/14 10:31:14.136,-0.011,0.026,1.017
2026/05/14 10:31:14.155,-0.009,0.027,1.016
2026/05/14 10:31:14.175,-0.011,0.027,1.013
2026/05/14 10:31:14.195,-0.013,0.025,1.015
2026/05/14 10:31:14.214,-0.014,0.028,1.016
2026/05/14 10:31:14.234,-0.012,0.026,1.015
2026/05/14 10:31:14.254,-0.009,0.024,1.017
2026/05/14 10:31:14.274,-0.012,0.024,1.017
2026/05/14 10:31:14.293,-0.011,0.026,1.016
2026/05/14 10:31:14.313,-0.01,0.022,1.014
2026/05/14 10:31:14.333,-0.011,0.025,1.015
2026/05/14 10:31:14.352,-0.012,0.027,1.016
2026/05/14 10:31:14.372,-0.013,0.027,1.017
2026/05/14 10:31:14.392,-0.009,0.025,1.015
2026/05/14 10:31:14.411,-0.012,0.025,1.017
2026/05/14 10:31:14.431,-0.012,0.026,1.019
2026/05/14 10:31:14.451,-0.008,0.026,1.019
2026/05/14 10:31:14.470,-0.009,0.026,1.015
2026/05/14 10:31:14.490,-0.012,0.026,1.017
2026/05/14 10:31:14.510,-0.011,0.026,1.019
2026/05/14 10:31:14.529,-0.011,0.027,1.013
2026/05/14 10:31:14.549,-0.012,0.024,1.016
2026/05/14 10:31:14.569,-0.012,0.025,1.015
2026/05/14 10:31:14.588,-0.01,0.027,1.018
2026/05/14 10:31:14.608,-0.011,0.026,1.022
2026/05/14 10:31:14.628,-0.01,0.028,1.018
2026/05/14 10:31:14.647,-0.012,0.03,1.016
2026/05/14 10:31:14.667,-0.01,0.028,1.015
2026/05/14 10:31:14.687,-0.011,0.023,1.015
2026/05/14 10:31:14.706,-0.009,0.025,1.017
2026/05/14 10:31:14.726,-0.007,0.022,1.017
2026/05/14 10:31:14.746,-0.011,0.026,1.018
2026/05/14 10:31:14.765,-0.011,0.029,1.015
2026/05/14 10:31:14.785,-0.011,0.027,1.014
2026/05/14 10:31:14.805,-0.012,0.025,1.02
2026/05/14 10:31:14.825,-0.011,0.026,1.015
2026/05/14 10:31:14.844,-0.012,0.026,1.014
2026/05/14 10:31:14.864,-0.01,0.025,1.016
2026/05/14 10:31:14.884,-0.011,0.027,1.018
2026/05/14 10:31:14.903,-0.015,0.021,1.017
2026/05/14 10:31:14.923,-0.01,0.025,1.013
2026/05/14 10:31:14.943,-0.012,0.025,1.019
2026/05/14 10:31:14.962,-0.011,0.027,1.017
2026/05/14 10:31:14.982,-0.008,0.021,1.02
2026/05/14 10:31:15.002,-0.01,0.023,1.018
2026/05/14 10:31:15.021,-0.01,0.026,1.016
2026/05/14 10:31:15.041,-0.014,0.022,1.015
2026/05/14 10:31:15.061,-0.008,0.022,1.018
2026/05/14 10:31:15.080,-0.01,0.025,1.017
2026/05/14 10:31:15.100,-0.012,0.026,1.014
2026/05/14 10:31:15.120,-0.011,0.025,1.018
2026/05/14 10:31:15.139,-0.012,0.024,1.015
2026/05/14 10:31:15.159,-0.011,0.025,1.014
2026/05/14 10:31:15.179,-0.009,0.023,1.013
2026/05/14 10:31:15.198,-0.014,0.024,1.016
2026/05/14 10:31:15.218,-0.009,0.027,1.015
2026/05/14 10:31:15.238,-0.015,0.026,1.016
2026/05/14 10:31:15.257,-0.011,0.025,1.016
2026/05/14 10:31:15.277,-0.013,0.024,1.013
2026/05/14 10:31:15.297,-0.013,0.021,1.016
2026/05/14 10:31:15.317,-0.008,0.026,1.014
2026/05/14 10:31:15.336,-0.011,0.026,1.013
2026/05/14 10:31:15.356,-0.009,0.027,1.014
2026/05/14 10:31:15.376,-0.011,0.026,1.014
2026/05/14 10:31:15.395,-0.012,0.025,1.012
2026/05/14 10:31:15.415,-0.009,0.026,1.014
2026/05/14 10:31:15.435,-0.011,0.026,1.012
2026/05/14 10:31:15.454,-0.012,0.025,1.015
2026/05/14 10:31:15.474,-0.011,0.026,1.017
2026/05/14 10:31:15.494,-0.014,0.022,1.014
2026/05/14 10:31:15.513,-0.012,0.023,1.017
2026/05/14 10:31:15.533,-0.012,0.026,1.012
2026/05/14 10:31:15.553,-0.01,0.027,1.019
2026/05/14 10:31:15.572,-0.012,0.023,1.014
2026/05/14 10:31:15.592,-0.013,0.027,1.016
2026/05/14 10:31:15.612,-0.008,0.025,1.016
2026/05/14 10:31:15.631,-0.011,0.027,1.016
2026/05/14 10:31:15.651,-0.008,0.025,1.017
2026/05/14 10:31:15.671,-0.009,0.028,1.011
2026/05/14 10:31:15.690,-0.016,0.026,1.018
2026/05/14 10:31:15.710,-0.013,0.024,1.015
2026/05/14 10:31:15.730,-0.01,0.026,1.015
2026/05/14 10:31:15.749,-0.011,0.026,1.012
2026/05/14 10:31:15.769,-0.009,0.023,1.019
2026/05/14 10:31:15.789,-0.009,0.023,1.012
2026/05/14 10:31:15.809,-0.009,0.027,1.015
2026/05/14 10:31:15.828,-0.011,0.022,1.015
2026/05/14 10:31:15.848,-0.01,0.028,1.013
2026/05/14 10:31:15.868,-0.008,0.025,1.013
2026/05/14 10:31:15.887,-0.01,0.025,1.015
2026/05/14 10:31:15.907,-0.014,0.028,1.016
2026/05/14 10:31:15.927,-0.011,0.021,1.021
2026/05/14 10:31:15.946,-0.01,0.027,1.016
2026/05/14 10:31:15.966,-0.01,0.024,1.019
2026/05/14 10:31:15.986,-0.01,0.024,1.015
2026/05/14 10:31:16.005,-0.009,0.028,1.016
2026/05/14 10:31:16.025,-0.011,0.026,1.019
2026/05/14 10:31:16.045,-0.009,0.022,1.011
2026/05/14 10:31:16.064,-0.012,0.024,1.013
2026/05/14 10:31:16.084,-0.01,0.029,1.015
2026/05/14 10:31:16.104,-0.008,0.025,1.016
2026/05/14 10:31:16.123,-0.011,0.02,1.012
2026/05/14 10:31:16.143,-0.013,0.025,1.016
2026/05/14 10:31:16.163,-0.012,0.028,1.015
2026/05/14 10:31:16.182,-0.011,0.027,1.017
2026/05/14 10:31:16.202,-0.007,0.023,1.013
2026/05/14 10:31:16.222,-0.01,0.024,1.017
2026/05/14 10:31:16.241,-0.01,0.026,1.017
2026/05/14 10:31:16.261,-0.012,0.023,1.017
2026/05/14 10:31:16.281,-0.013,0.026,1.016
2026/05/14 10:31:16.301,-0.013,0.025,1.014
2026/05/14 10:31:16.320,-0.011,0.028,1.016
2026/05/14 10:31:16.340,-0.013,0.028,1.017
2026/05/14 10:31:16.360,-0.011,0.025,1.017
2026/05/14 10:31:16.379,-0.008,0.024,1.016
2026/05/14 10:31:16.399,-0.008,0.024,1.015
2026/05/14 10:31:16.419,-0.007,0.021,1.019
2026/05/14 10:31:16.438,-0.009,0.028,1.013
2026/05/14 10:31:16.458,-0.01,0.028,1.016
2026/05/14 10:31:16.478,-0.012,0.029,1.014
2026/05/14 10:31:16.497,-0.012,0.028,1.016
2026/05/14 10:31:16.517,-0.011,0.028,1.019
2026/05/14 10:31:16.537,-0.009,0.024,1.018
2026/05/14 10:31:16.556,-0.007,0.025,1.021
2026/05/14 10:31:16.576,-0.01,0.024,1.018
2026/05/14 10:31:16.596,-0.011,0.026,1.017
2026/05/14 10:31:16.615,-0.012,0.026,1.015
2026/05/14 10:31:16.635,-0.01,0.023,1.017
2026/05/14 10:31:16.655,-0.009,0.025,1.016
2026/05/14 10:31:16.674,-0.011,0.027,1.018
2026/05/14 10:31:16.694,-0.005,0.028,1.021
2026/05/14 10:31:16.714,-0.01,0.022,1.015
2026/05/14 10:31:16.733,-0.006,0.023,1.013
2026/05/14 10:31:16.753,-0.011,0.026,1.018
2026/05/14 10:31:16.773,-0.009,0.021,1.01
2026/05/14 10:31:16.793,-0.01,0.026,1.017
2026/05/14 10:31:16.812,-0.008,0.025,1.016
2026/05/14 10:31:16.832,-0.007,0.023,1.017
2026/05/14 10:31:16.852,-0.008,0.022,1.014
2026/05/14 10:31:16.871,-0.01,0.028,1.016
2026/05/14 10:31:16.891,-0.009,0.024,1.016
2026/05/14 10:31:16.911,-0.011,0.025,1.017
2026/05/14 10:31:16.930,-0.01,0.026,1.016
2026/05/14 10:31:16.950,-0.01,0.025,1.017
2026/05/14 10:31:16.970,-0.011,0.022,1.015
2026/05/14 10:31:16.989,-0.008,0.024,1.015
2026/05/14 10:31:17.009,-0.008,0.025,1.019
2026/05/14 10:31:17.029,-0.009,0.025,1.015
2026/05/14 10:31:17.048,-0.013,0.024,1.014
2026/05/14 10:31:17.068,-0.01,0.026,1.014
2026/05/14 10:31:17.088,-0.008,0.027,1.018
2026/05/14 10:31:17.107,-0.01,0.025,1.015
2026/05/14 10:31:17.127,-0.015,0.023,1.018
2026/05/14 10:31:17.147,-0.008,0.025,1.012
2026/05/14 10:31:17.166,-0.007,0.025,1.019
2026/05/14 10:31:17.186,-0.011,0.022,1.014
2026/05/14 10:31:17.206,-0.009,0.026,1.018
2026/05/14 10:31:17.225,-0.011,0.025,1.014
2026/05/14 10:31:17.245,-0.013,0.026,1.016
2026/05/14 10:31:17.265,-0.012,0.023,1.012
2026/05/14 10:31:17.285,-0.009,0.027,1.016
2026/05/14 10:31:17.304,-0.009,0.026,1.018
2026/05/14 10:31:17.324,-0.01,0.023,1.013
2026/05/14 10:31:17.344,-0.011,0.029,1.013
2026/05/14 10:31:17.363,-0.008,0.024,1.013
2026/05/14 10:31:17.383,-0.013,0.025,1.019
2026/05/14 10:31:17.403,-0.012,0.023,1.016
2026/05/14 10:31:17.422,-0.011,0.021,1.019
2026/05/14 10:31:17.442,-0.009,0.023,1.014
2026/05/14 10:31:17.462,-0.014,0.022,1.016
2026/05/14 10:31:17.481,-0.01,0.027,1.016
2026/05/14 10:31:17.501,-0.012,0.027,1.013
2026/05/14 10:31:17.521,-0.012,0.026,1.018
2026/05/14 10:31:17.540,-0.011,0.027,1.016
2026/05/14 10:31:17.560,-0.012,0.024,1.016
2026/05/14 10:31:17.580,-0.01,0.023,1.02
2026/05/14 10:31:17.599,-0.01,0.026,1.017
2026/05/14 10:31:17.619,-0.006,0.024,1.014
2026/05/14 10:31:17.639,-0.01,0.027,1.011
2026/05/14 10:31:17.658,-0.012,0.027,1.02
2026/05/14 10:31:17.678,-0.011,0.027,1.016
2026/05/14 10:31:17.698,-0.011,0.026,1.021
2026/05/14 10:31:17.718,-0.011,0.028,1.013
2026/05/14 10:31:17.737,-0.007,0.024,1.014
2026/05/14 10:31:17.757,-0.014,0.027,1.021
2026/05/14 10:31:17.777,-0.011,0.025,1.015
2026/05/14 10:31:17.796,-0.009,0.026,1.017
2026/05/14 10:31:17.816,-0.015,0.025,1.017
2026/05/14 10:31:17.836,-0.01,0.028,1.018
2026/05/14 10:31:17.855,-0.01,0.023,1.016
2026/05/14 10:31:17.875,-0.011,0.029,1.015
2026/05/14 10:31:17.895,-0.011,0.024,1.016
2026/05/14 10:31:17.914,-0.011,0.028,1.014
2026/05/14 10:31:17.934,-0.012,0.029,1.014
2026/05/14 10:31:17.954,-0.007,0.023,1.015
2026/05/14 10:31:17.973,-0.01,0.027,1.016
2026/05/14 10:31:17.993,-0.01,0.023,1.016
2026/05/14 10:31:18.013,-0.008,0.023,1.014
2026/05/14 10:31:18.032,-0.011,0.025,1.017
2026/05/14 10:31:18.052,-0.014,0.026,1.018
2026/05/14 10:31:18.072,-0.013,0.024,1.023
2026/05/14 10:31:18.091,-0.012,0.027,1.016
2026/05/14 10:31:18.111,-0.012,0.025,1.016
2026/05/14 10:31:18.131,-0.011,0.024,1.018
2026/05/14 10:31:18.150,-0.011,0.026,1.013
2026/05/14 10:31:18.170,-0.01,0.024,1.018
2026/05/14 10:31:18.190,-0.009,0.027,1.011
2026/05/14 10:31:18.210,-0.012,0.027,1.016
2026/05/14 10:31:18.229,-0.011,0.026,1.017
2026/05/14 10:31:18.249,-0.01,0.026,1.015
2026/05/14 10:31:18.269,-0.009,0.028,1.013
2026/05/14 10:31:18.288,-0.01,0.027,1.017
2026/05/14 10:31:18.308,-0.012,0.025,1.017
2026/05/14 10:31:18.328,-0.009,0.026,1.018
2026/05/14 10:31:18.347,-0.008,0.026,1.014
2026/05/14 10:31:18.367,-0.012,0.024,1.018
2026/05/14 10:31:18.387,-0.012,0.024,1.014
2026/05/14 10:31:18.406,-0.011,0.027,1.015
2026/05/14 10:31:18.426,-0.009,0.026,1.019
2026/05/14 10:31:18.446,-0.011,0.027,1.018
2026/05/14 10:31:18.465,-0.011,0.023,1.013
2026/05/14 10:31:18.485,-0.012,0.022,1.015
2026/05/14 10:31:18.505,-0.008,0.027,1.014
2026/05/14 10:31:18.524,-0.013,0.025,1.015
2026/05/14 10:31:18.544,-0.011,0.027,1.018
2026/05/14 10:31:18.564,-0.01,0.027,1.014
2026/05/14 10:31:18.583,-0.01,0.024,1.014
2026/05/14 10:31:18.603,-0.012,0.026,1.015
2026/05/14 10:31:18.623,-0.015,0.024,1.02
2026/05/14 10:31:18.642,-0.015,0.023,1.014
2026/05/14 10:31:18.662,-0.011,0.028,1.017
2026/05/14 10:31:18.682,-0.009,0.027,1.015
2026/05/14 10:31:18.702,-0.01,0.026,1.016
2026/05/14 10:31:18.721,-0.011,0.025,1.015
2026/05/14 10:31:18.741,-0.012,0.024,1.015
2026/05/14 10:31:18.761,-0.009,0.026,1.015
2026/05/14 10:31:18.780,-0.009,0.024,1.017
2026/05/14 10:31:18.800,-0.009,0.026,1.017
2026/05/14 10:31:18.820,-0.012,0.027,1.015
2026/05/14 10:31:18.839,-0.011,0.03,1.017
2026/05/14 10:31:18.859,-0.013,0.026,1.018
2026/05/14 10:31:18.879,-0.014,0.021,1.012
2026/05/14 10:31:18.898,-0.009,0.03,1.016
2026/05/14 10:31:18.918,-0.011,0.028,1.016
2026/05/14 10:31:18.938,-0.013,0.025,1.017
2026/05/14 10:31:18.957,-0.01,0.024,1.021
2026/05/14 10:31:18.977,-0.011,0.024,1.018
2026/05/14 10:31:18.997,-0.01,0.024,1.017
2026/05/14 10:31:19.016,-0.012,0.03,1.016
2026/05/14 10:31:19.036,-0.011,0.029,1.016
2026/05/14 10:31:19.056,-0.011,0.025,1.017
2026/05/14 10:31:19.075,-0.012,0.026,1.02
2026/05/14 10:31:19.095,-0.009,0.028,1.015
2026/05/14 10:31:19.115,-0.012,0.024,1.02
2026/05/14 10:31:19.134,-0.011,0.028,1.014
2026/05/14 10:31:19.154,-0.007,0.026,1.013
2026/05/14 10:31:19.174,-0.013,0.021,1.014
2026/05/14 10:31:19.194,-0.009,0.023,1.018
2026/05/14 10:31:19.213,-0.011,0.028,1.015
2026/05/14 10:31:19.233,-0.01,0.028,1.019
2026/05/14 10:31:19.253,-0.011,0.025,1.017
2026/05/14 10:31:19.272,-0.01,0.028,1.011
2026/05/14 10:31:19.292,-0.011,0.025,1.014
2026/05/14 10:31:19.312,-0.009,0.021,1.016
2026/05/14 10:31:19.331,-0.011,0.024,1.015
2026/05/14 10:31:19.351,-0.011,0.025,1.015
2026/05/14 10:31:19.371,-0.009,0.022,1.014
2026/05/14 10:31:19.390,-0.009,0.027,1.016
2026/05/14 10:31:19.410,-0.011,0.025,1.017
2026/05/14 10:31:19.430,-0.008,0.023,1.018
2026/05/14 10:31:19.449,-0.015,0.028,1.017
2026/05/14 10:31:19.469,-0.01,0.025,1.014
2026/05/14 10:31:19.489,-0.008,0.021,1.016
2026/05/14 10:31:19.508,-0.013,0.025,1.014
2026/05/14 10:31:19.528,-0.013,0.028,1.016
2026/05/14 10:31:19.548,-0.008,0.026,1.017
2026/05/14 10:31:19.567,-0.008,0.025,1.016
2026/05/14 10:31:19.587,-0.01,0.024,1.019
2026/05/14 10:31:19.607,-0.008,0.022,1.019
2026/05/14 10:31:19.627,-0.011,0.025,1.019
2026/05/14 10:31:19.646,-0.01,0.027,1.019
2026/05/14 10:31:19.666,-0.012,0.026,1.02
2026/05/14 10:31:19.686,-0.011,0.029,1.015
2026/05/14 10:31:19.705,-0.014,0.026,1.016
2026/05/14 10:31:19.725,-0.012,0.025,1.016
2026/05/14 10:31:19.745,-0.013,0.027,1.015
2026/05/14 10:31:19.764,-0.01,0.026,1.016
2026/05/14 10:31:19.784,-0.009,0.025,1.013
2026/05/14 10:31:19.804,-0.012,0.027,1.02
2026/05/14 10:31:19.823,-0.005,0.027,1.019
2026/05/14 10:31:19.843,-0.013,0.026,1.019
2026/05/14 10:31:19.863,-0.013,0.023,1.018
2026/05/14 10:31:19.882,-0.013,0.025,1.017
2026/05/14 10:31:19.902,-0.009,0.025,1.017
2026/05/14 10:31:19.922,-0.015,0.027,1.012
2026/05/14 10:31:19.941,-0.009,0.02,1.016
2026/05/14 10:31:19.961,-0.012,0.027,1.019
2026/05/14 10:31:19.981,-0.011,0.024,1.016
2026/05/14 10:31:20.000,-0.009,0.026,1.016
2026/05/14 10:31:20.020,-0.013,0.024,1.014
2026/05/14 10:31:20.040,-0.009,0.029,1.019
2026/05/14 10:31:20.059,-0.01,0.024,1.012
2026/05/14 10:31:20.079,-0.013,0.025,1.016
2026/05/14 10:31:20.099,-0.011,0.022,1.011
2026/05/14 10:31:20.118,-0.011,0.027,1.016
2026/05/14 10:31:20.138,-0.011,0.03,1.016
2026/05/14 10:31:20.158,-0.013,0.026,1.01
2026/05/14 10:31:20.178,-0.008,0.027,1.015
2026/05/14 10:31:20.197,-0.014,0.026,1.02
2026/05/14 10:31:20.217,-0.008,0.027,1.016
2026/05/14 10:31:20.237,-0.008,0.022,1.018
2026/05/14 10:31:20.256,-0.013,0.023,1.015
2026/05/14 10:31:20.276,-0.011,0.025,1.016
2026/05/14 10:31:20.296,-0.013,0.025,1.018
2026/05/14 10:31:20.315,-0.009,0.027,1.015
2026/05/14 10:31:20.335,-0.012,0.027,1.016
2026/05/14 10:31:20.355,-0.01,0.025,1.016
2026/05/14 10:31:20.374,-0.011,0.026,1.016
2026/05/14 10:31:20.394,-0.011,0.025,1.015
2026/05/14 10:31:20.414,-0.008,0.027,1.015
2026/05/14 10:31:20.433,-0.004,0.025,1.014
2026/05/14 10:31:20.453,-0.01,0.026,1.014
2026/05/14 10:31:20.473,-0.011,0.026,1.019
2026/05/14 10:31:20.492,-0.011,0.026,1.017
2026/05/14 10:31:20.512,-0.011,0.027,1.015
2026/05/14 10:31:20.532,-0.012,0.023,1.019
2026/05/14 10:31:20.551,-0.008,0.026,1.016
2026/05/14 10:31:20.571,-0.007,0.026,1.015
2026/05/14 10:31:20.591,-0.01,0.024,1.017
2026/05/14 10:31:20.610,-0.011,0.021,1.017
2026/05/14 10:31:20.630,-0.01,0.026,1.019
2026/05/14 10:31:20.650,-0.013,0.027,1.016
2026/05/14 10:31:20.670,-0.011,0.028,1.017
2026/05/14 10:31:20.689,-0.011,0.024,1.017
2026/05/14 10:31:20.709,-0.01,0.026,1.017
2026/05/14 10:31:20.729,-0.009,0.02,1.013
2026/05/14 10:31:20.748,-0.009,0.026,1.018
2026/05/14 10:31:20.768,-0.014,0.022,1.015
2026/05/14 10:31:20.788,-0.013,0.028,1.014
2026/05/14 10:31:20.807,-0.011,0.027,1.013
2026/05/14 10:31:20.827,-0.011,0.026,1.019
2026/05/14 10:31:20.847,-0.009,0.027,1.014
2026/05/14 10:31:20.866,-0.007,0.02,1.012
2026/05/14 10:31:20.886,-0.013,0.027,1.015
2026/05/14 10:31:20.906,-0.013,0.027,1.016
2026/05/14 10:31:20.925,-0.01,0.027,1.015
2026/05/14 10:31:20.945,-0.012,0.028,1.017
2026/05/14 10:31:20.965,-0.009,0.027,1.016
2026/05/14 10:31:20.984,-0.008,0.024,1.013
2026/05/14 10:31:21.004,-0.012,0.024,1.015
2026/05/14 10:31:21.024,-0.01,0.027,1.017
2026/05/14 10:31:21.043,-0.008,0.026,1.018
2026/05/14 10:31:21.063,-0.01,0.027,1.019
2026/05/14 10:31:21.083,-0.012,0.025,1.014
2026/05/14 10:31:21.102,-0.008,0.024,1.015
2026/05/14 10:31:21.122,-0.013,0.027,1.019
2026/05/14 10:31:21.142,-0.013,0.023,1.018
2026/05/14 10:31:21.161,-0.012,0.025,1.017
2026/05/14 10:31:21.181,-0.011,0.024,1.015
2026/05/14 10:31:21.201,-0.014,0.029,1.016
2026/05/14 10:31:21.221,-0.01,0.025,1.013
2026/05/14 10:31:21.240,-0.011,0.028,1.014
2026/05/14 10:31:21.260,-0.01,0.024,1.019
2026/05/14 10:31:21.280,-0.013,0.025,1.016
2026/05/14 10:31:21.299,-0.007,0.024,1.011
2026/05/14 10:31:21.319,-0.011,0.025,1.015
2026/05/14 10:31:21.339,-0.013,0.028,1.017
2026/05/14 10:31:21.358,-0.012,0.028,1.018
2026/05/14 10:31:21.378,-0.01,0.024,1.011
2026/05/14 10:31:21.398,-0.012,0.026,1.02
2026/05/14 10:31:21.417,-0.01,0.024,1.016
2026/05/14 10:31:21.437,-0.01,0.026,1.016
2026/05/14 10:31:21.457,-0.009,0.024,1.018
2026/05/14 10:31:21.476,-0.007,0.023,1.016
2026/05/14 10:31:21.496,-0.01,0.025,1.015
2026/05/14 10:31:21.516,-0.013,0.025,1.019
2026/05/14 10:31:21.535,-0.012,0.026,1.015
2026/05/14 10:31:21.555,-0.008,0.023,1.016
2026/05/14 10:31:21.575,-0.01,0.028,1.019
2026/05/14 10:31:21.594,-0.014,0.029,1.019
2026/05/14 10:31:21.614,-0.011,0.024,1.018
2026/05/14 10:31:21.634,-0.007,0.025,1.017
2026/05/14 10:31:21.653,-0.011,0.026,1.016
2026/05/14 10:31:21.673,-0.011,0.027,1.013
2026/05/14 10:31:21.693,-0.009,0.025,1.019
2026/05/14 10:31:21.712,-0.011,0.025,1.017
2026/05/14 10:31:21.732,-0.013,0.025,1.017
2026/05/14 10:31:21.752,-0.012,0.025,1.016
2026/05/14 10:31:21.772,-0.01,0.025,1.011
2026/05/14 10:31:21.791,-0.012,0.024,1.022
2026/05/14 10:31:21.811,-0.012,0.027,1.019
2026/05/14 10:31:21.831,-0.011,0.026,1.017
2026/05/14 10:31:21.850,-0.013,0.024,1.019
2026/05/14 10:31:21.870,-0.013,0.026,1.019
2026/05/14 10:31:21.890,-0.01,0.022,1.014
2026/05/14 10:31:21.909,-0.01,0.024,1.017
2026/05/14 10:31:21.929,-0.009,0.027,1.013
2026/05/14 10:31:21.949,-0.011,0.023,1.014
2026/05/14 10:31:21.968,-0.014,0.025,1.017
2026/05/14 10:31:21.988,-0.014,0.022,1.017
2026/05/14 10:31:22.008,-0.011,0.023,1.017
2026/05/14 10:31:22.027,-0.008,0.023,1.015
2026/05/14 10:31:22.047,-0.011,0.027,1.014
2026/05/14 10:31:22.067,-0.01,0.028,1.013
2026/05/14 10:31:22.086,-0.011,0.026,1.013
2026/05/14 10:31:22.106,-0.012,0.025,1.015
2026/05/14 10:31:22.126,-0.011,0.027,1.016
2026/05/14 10:31:22.145,-0.01,0.025,1.016
2026/05/14 10:31:22.165,-0.01,0.022,1.017
2026/05/14 10:31:22.185,-0.013,0.025,1.014
2026/05/14 10:31:22.204,-0.01,0.026,1.013
2026/05/14 10:31:22.224,-0.008,0.025,1.017
2026/05/14 10:31:22.244,-0.009,0.025,1.014
2026/05/14 10:31:22.264,-0.013,0.029,1.012
2026/05/14 10:31:22.283,-0.011,0.024,1.013
2026/05/14 10:31:22.303,-0.009,0.028,1.015
2026/05/14 10:31:22.323,-0.012,0.025,1.014
2026/05/14 10:31:22.342,-0.012,0.027,1.014
2026/05/14 10:31:22.362,-0.01,0.027,1.017
2026/05/14 10:31:22.382,-0.011,0.025,1.018
2026/05/14 10:31:22.401,-0.011,0.025,1.018
2026/05/14 10:31:22.421,-0.01,0.02,1.016
2026/05/14 10:31:22.441,-0.011,0.029,1.015
2026/05/14 10:31:22.460,-0.013,0.025,1.017
2026/05/14 10:31:22.480,-0.009,0.027,1.015
2026/05/14 10:31:22.500,-0.011,0.024,1.019
2026/05/14 10:31:22.519,-0.009,0.025,1.013
2026/05/14 10:31:22.539,-0.012,0.027,1.014
2026/05/14 10:31:22.559,-0.011,0.024,1.014
2026/05/14 10:31:22.578,-0.009,0.023,1.013
2026/05/14 10:31:22.598,-0.011,0.029,1.014
2026/05/14 10:31:22.618,-0.008,0.026,1.018
2026/05/14 10:31:22.637,-0.009,0.025,1.02
2026/05/14 10:31:22.657,-0.01,0.024,1.018
2026/05/14 10:31:22.677,-0.01,0.023,1.02
2026/05/14 10:31:22.696,-0.014,0.028,1.016
2026/05/14 10:31:22.716,-0.012,0.026,1.017
2026/05/14 10:31:22.736,-0.01,0.026,1.016
2026/05/14 10:31:22.756,-0.011,0.025,1.015
2026/05/14 10:31:22.775,-0.011,0.026,1.017
2026/05/14 10:31:22.795,-0.012,0.027,1.013
2026/05/14 10:31:22.815,-0.013,0.027,1.012
2026/05/14 10:31:22.834,-0.01,0.027,1.015
2026/05/14 10:31:22.854,-0.01,0.026,1.014
2026/05/14 10:31:22.874,-0.009,0.026,1.014
2026/05/14 10:31:22.893,-0.011,0.023,1.017
2026/05/14 10:31:22.913,-0.01,0.027,1.016
2026/05/14 10:31:22.933,-0.004,0.025,1.015
2026/05/14 10:31:22.952,-0.01,0.022,1.017
2026/05/14 10:31:22.972,-0.008,0.027,1.016
2026/05/14 10:31:22.992,-0.01,0.028,1.015
2026/05/14 10:31:23.011,-0.011,0.025,1.019
2026/05/14 10:31:23.031,-0.014,0.027,1.014
2026/05/14 10:31:23.051,-0.009,0.026,1.012
2026/05/14 10:31:23.070,-0.01,0.027,1.017
2026/05/14 10:31:23.090,-0.009,0.022,1.019
2026/05/14 10:31:23.110,-0.013,0.026,1.016
2026/05/14 10:31:23.129,-0.011,0.026,1.018
2026/05/14 10:31:23.149,-0.011,0.027,1.015
2026/05/14 10:31:23.169,-0.011,0.023,1.012
2026/05/14 10:31:23.188,-0.013,0.025,1.011
2026/05/14 10:31:23.208,-0.013,0.027,1.015
2026/05/14 10:31:23.228,-0.016,0.027,1.017
2026/05/14 10:31:23.248,-0.01,0.022,1.014
2026/05/14 10:31:23.267,-0.014,0.026,1.02
2026/05/14 10:31:23.287,-0.013,0.023,1.017
2026/05/14 10:31:23.307,-0.009,0.028,1.018
2026/05/14 10:31:23.326,-0.014,0.022,1.011
2026/05/14 10:31:23.346,-0.011,0.027,1.017
2026/05/14 10:31:23.366,-0.009,0.027,1.017
2026/05/14 10:31:23.385,-0.013,0.026,1.013
2026/05/14 10:31:23.405,-0.013,0.024,1.014
2026/05/14 10:31:23.425,-0.011,0.029,1.017
2026/05/14 10:31:23.444,-0.011,0.027,1.013
2026/05/14 10:31:23.464,-0.011,0.022,1.02
2026/05/14 10:31:23.484,-0.012,0.025,1.015
2026/05/14 10:31:23.503,-0.011,0.029,1.015
2026/05/14 10:31:23.523,-0.012,0.025,1.015
2026/05/14 10:31:23.543,-0.009,0.028,1.013
2026/05/14 10:31:23.562,-0.014,0.029,1.014
2026/05/14 10:31:23.582,-0.012,0.029,1.019
2026/05/14 10:31:23.602,-0.011,0.027,1.02
2026/05/14 10:31:23.621,-0.01,0.03,1.015
2026/05/14 10:31:23.641,-0.012,0.029,1.014
2026/05/14 10:31:23.661,-0.011,0.024,1.013
2026/05/14 10:31:23.680,-0.012,0.022,1.019
2026/05/14 10:31:23.700,-0.009,0.024,1.017
2026/05/14 10:31:23.720,-0.006,0.028,1.019
2026/05/14 10:31:23.740,-0.012,0.026,1.013
2026/05/14 10:31:23.759,-0.009,0.027,1.024
2026/05/14 10:31:23.779,-0.012,0.024,1.014
2026/05/14 10:31:23.799,-0.008,0.027,1.014
2026/05/14 10:31:23.818,-0.01,0.025,1.015
2026/05/14 10:31:23.838,-0.01,0.023,1.015
2026/05/14 10:31:23.858,-0.011,0.023,1.022
2026/05/14 10:31:23.877,-0.01,0.026,1.016
2026/05/14 10:31:23.897,-0.009,0.024,1.014
2026/05/14 10:31:23.917,-0.013,0.025,1.017
2026/05/14 10:31:23.936,-0.012,0.022,1.018
2026/05/14 10:31:23.956,-0.012,0.023,1.016
2026/05/14 10:31:23.976,-0.011,0.023,1.018
2026/05/14 10:31:23.995,-0.011,0.022,1.012
2026/05/14 10:31:24.015,-0.01,0.026,1.016
2026/05/14 10:31:24.035,-0.008,0.026,1.02
2026/05/14 10:31:24.054,-0.009,0.022,1.014
2026/05/14 10:31:24.074,-0.009,0.026,1.016
2026/05/14 10:31:24.094,-0.015,0.025,1.019
2026/05/14 10:31:24.113,-0.013,0.026,1.015
2026/05/14 10:31:24.133,-0.014,0.027,1.013
2026/05/14 10:31:24.153,-0.008,0.027,1.016
2026/05/14 10:31:24.172,-0.011,0.023,1.015
2026/05/14 10:31:24.192,-0.011,0.025,1.021
2026/05/14 10:31:24.212,-0.01,0.027,1.018
2026/05/14 10:31:24.232,-0.013,0.026,1.015
2026/05/14 10:31:24.251,-0.011,0.021,1.02
2026/05/14 10:31:24.271,-0.012,0.022,1.014
2026/05/14 10:31:24.291,-0.011,0.024,1.014
2026/05/14 10:31:24.310,-0.01,0.026,1.015
2026/05/14 10:31:24.330,-0.01,0.027,1.015
2026/05/14 10:31:24.350,-0.011,0.021,1.016
2026/05/14 10:31:24.369,-0.013,0.027,1.014
2026/05/14 10:31:24.389,-0.007,0.024,1.012
2026/05/14 10:31:24.409,-0.013,0.022,1.022
2026/05/14 10:31:24.428,-0.01,0.027,1.014
2026/05/14 10:31:24.448,-0.015,0.024,1.016
2026/05/14 10:31:24.468,-0.011,0.029,1.013
2026/05/14 10:31:24.487,-0.009,0.022,1.014
2026/05/14 10:31:24.507,-0.012,0.024,1.018
2026/05/14 10:31:24.527,-0.006,0.03,1.016
2026/05/14 10:31:24.546,-0.013,0.023,1.014
2026/05/14 10:31:24.566,-0.014,0.026,1.019
2026/05/14 10:31:24.586,-0.006,0.023,1.026
2026/05/14 10:31:24.605,-0.01,0.026,1.017
2026/05/14 10:31:24.625,-0.014,0.025,1.019
2026/05/14 10:31:24.645,-0.012,0.022,1.017
2026/05/14 10:31:24.664,-0.01,0.022,1.017
2026/05/14 10:31:24.684,-0.012,0.025,1.016
2026/05/14 10:31:24.704,-0.012,0.023,1.023
2026/05/14 10:31:24.724,-0.012,0.025,1.016
2026/05/14 10:31:24.743,-0.011,0.024,1.016
2026/05/14 10:31:24.763,-0.009,0.025,1.024
2026/05/14 10:31:24.783,-0.014,0.022,1.016
2026/05/14 10:31:24.802,-0.013,0.027,1.014
2026/05/14 10:31:24.822,-0.013,0.026,1.014
2026/05/14 10:31:24.842,-0.014,0.024,1.018
2026/05/14 10:31:24.861,-0.013,0.022,1.016
2026/05/14 10:31:24.881,-0.014,0.027,1.013
2026/05/14 10:31:24.901,-0.01,0.022,1.018
2026/05/14 10:31:24.920,-0.01,0.022,1.013
2026/05/14 10:31:24.940,-0.01,0.024,1.018
2026/05/14 10:31:24.960,-0.01,0.024,1.017
2026/05/14 10:31:24.979,-0.012,0.024,1.017
2026/05/14 10:31:24.999,-0.011,0.025,1.015
2026/05/14 10:31:25.019,-0.009,0.023,1.017
2026/05/14 10:31:25.038,-0.01,0.026,1.012
2026/05/14 10:31:25.058,-0.011,0.03,1.015
2026/05/14 10:31:25.078,-0.007,0.024,1.018
2026/05/14 10:31:25.097,-0.009,0.024,1.016
2026/05/14 10:31:25.117,-0.013,0.028,1.012
2026/05/14 10:31:25.137,-0.01,0.027,1.018
2026/05/14 10:31:25.157,-0.009,0.024,1.017
2026/05/14 10:31:25.176,-0.009,0.027,1.015
2026/05/14 10:31:25.196,-0.01,0.026,1.02
2026/05/14 10:31:25.216,-0.013,0.024,1.017
2026/05/14 10:31:25.235,-0.008,0.027,1.015
2026/05/14 10:31:25.255,-0.012,0.026,1.014
2026/05/14 10:31:25.275,-0.014,0.023,1.013
2026/05/14 10:31:25.294,-0.01,0.026,1.019
2026/05/14 10:31:25.314,-0.008,0.026,1.015
2026/05/14 10:31:25.334,-0.01,0.026,1.016
2026/05/14 10:31:25.353,-0.007,0.025,1.019
2026/05/14 10:31:25.373,-0.011,0.028,1.014
2026/05/14 10:31:25.393,-0.012,0.028,1.011
2026/05/14 10:31:25.412,-0.01,0.024,1.018
2026/05/14 10:31:25.432,-0.01,0.023,1.017
2026/05/14 10:31:25.452,-0.01,0.027,1.016
2026/05/14 10:31:25.471,-0.01,0.026,1.018
2026/05/14 10:31:25.491,-0.01,0.022,1.016
2026/05/14 10:31:25.511,-0.008,0.026,1.017
2026/05/14 10:31:25.530,-0.009,0.025,1.016
2026/05/14 10:31:25.550,-0.012,0.024,1.013
2026/05/14 10:31:25.570,-0.01,0.029,1.018
2026/05/14 10:31:25.589,-0.011,0.026,1.017
2026/05/14 10:31:25.609,-0.009,0.027,1.014
2026/05/14 10:31:25.629,-0.008,0.027,1.021
2026/05/14 10:31:25.649,-0.012,0.027,1.021
2026/05/14 10:31:25.668,-0.011,0.024,1.015
2026/05/14 10:31:25.688,-0.01,0.027,1.017
2026/05/14 10:31:25.708,-0.009,0.027,1.016
2026/05/14 10:31:25.727,-0.012,0.023,1.016
2026/05/14 10:31:25.747,-0.01,0.026,1.017
2026/05/14 10:31:25.767,-0.01,0.027,1.017
2026/05/14 10:31:25.786,-0.01,0.023,1.016
2026/05/14 10:31:25.806,-0.009,0.025,1.017
2026/05/14 10:31:25.826,-0.015,0.035,1.013
2026/05/14 10:31:25.845,-0.012,0.024,1.016
2026/05/14 10:31:25.865,-0.013,0.028,1.018
2026/05/14 10:31:25.885,-0.012,0.027,1.014
2026/05/14 10:31:25.904,-0.01,0.026,1.014
2026/05/14 10:31:25.924,-0.011,0.023,1.018
2026/05/14 10:31:25.944,-0.012,0.026,1.017
2026/05/14 10:31:25.963,-0.011,0.025,1.022
2026/05/14 10:31:25.983,-0.008,0.024,1.018
2026/05/14 10:31:26.003,-0.011,0.024,1.016
2026/05/14 10:31:26.022,-0.008,0.026,1.02
2026/05/14 10:31:26.042,-0.01,0.025,1.021
2026/05/14 10:31:26.062,-0.006,0.025,1.016
2026/05/14 10:31:26.081,-0.011,0.029,1.014
2026/05/14 10:31:26.101,-0.011,0.024,1.011
2026/05/14 10:31:26.121,-0.011,0.025,1.019
2026/05/14 10:31:26.141,-0.011,0.031,1.016
2026/05/14 10:31:26.160,-0.014,0.028,1.016
2026/05/14 10:31:26.180,-0.013,0.024,1.017
2026/05/14 10:31:26.200,-0.011,0.025,1.013
2026/05/14 10:31:26.219,-0.009,0.025,1.012
2026/05/14 10:31:26.239,-0.013,0.028,1.022
2026/05/14 10:31:26.259,-0.012,0.024,1.018
2026/05/14 10:31:26.278,-0.008,0.024,1.017
2026/05/14 10:31:26.298,-0.013,0.022,1.014
2026/05/14 10:31:26.318,-0.011,0.022,1.018
2026/05/14 10:31:26.337,-0.015,0.026,1.015
2026/05/14 10:31:26.357,-0.011,0.027,1.013
2026/05/14 10:31:26.377,-0.012,0.025,1.017
2026/05/14 10:31:26.396,-0.009,0.027,1.014
2026/05/14 10:31:26.416,-0.01,0.023,1.022
2026/05/14 10:31:26.436,-0.009,0.024,1.018
2026/05/14 10:31:26.455,-0.01,0.025,1.017
2026/05/14 10:31:26.475,-0.011,0.024,1.013
2026/05/14 10:31:26.495,-0.012,0.027,1.014
2026/05/14 10:31:26.514,-0.012,0.025,1.017
2026/05/14 10:31:26.534,-0.01,0.025,1.015
2026/05/14 10:31:26.554,-0.011,0.029,1.018
2026/05/14 10:31:26.574,-0.01,0.025,1.013
2026/05/14 10:31:26.593,-0.011,0.024,1.018
2026/05/14 10:31:26.613,-0.01,0.025,1.012
2026/05/14 10:31:26.633,-0.015,0.024,1.013
2026/05/14 10:31:26.652,-0.011,0.026,1.018
2026/05/14 10:31:26.672,-0.011,0.023,1.016
2026/05/14 10:31:26.692,-0.011,0.027,1.018
2026/05/14 10:31:26.711,-0.011,0.022,1.015
2026/05/14 10:31:26.731,-0.011,0.026,1.019
2026/05/14 10:31:26.751,-0.011,0.024,1.018
2026/05/14 10:31:26.770,-0.008,0.027,1.012
2026/05/14 10:31:26.790,-0.005,0.03,1.015
2026/05/14 10:31:26.810,-0.011,0.026,1.009
2026/05/14 10:31:26.829,-0.013,0.027,1.023
2026/05/14 10:31:26.849,-0.014,0.025,1.017
2026/05/14 10:31:26.869,-0.01,0.026,1.011
2026/05/14 10:31:26.888,-0.009,0.024,1.015
2026/05/14 10:31:26.908,-0.009,0.026,1.018
2026/05/14 10:31:26.928,-0.011,0.024,1.015
2026/05/14 10:31:26.947,-0.012,0.022,1.017
2026/05/14 10:31:26.967,-0.009,0.024,1.015
2026/05/14 10:31:26.987,-0.01,0.023,1.015
2026/05/14 10:31:27.006,-0.008,0.026,1.017
2026/05/14 10:31:27.026,-0.01,0.022,1.016
2026/05/14 10:31:27.046,-0.011,0.029,1.021
2026/05/14 10:31:27.066,-0.011,0.026,1.02
2026/05/14 10:31:27.085,-0.011,0.023,1.018
2026/05/14 10:31:27.105,-0.012,0.024,1.015
2026/05/14 10:31:27.125,-0.009,0.026,1.014
2026/05/14 10:31:27.144,-0.006,0.026,1.016
2026/05/14 10:31:27.164,-0.014,0.024,1.018
2026/05/14 10:31:27.184,-0.012,0.025,1.017
2026/05/14 10:31:27.203,-0.009,0.023,1.015
2026/05/14 10:31:27.223,-0.014,0.023,1.015
2026/05/14 10:31:27.243,-0.016,0.027,1.014
2026/05/14 10:31:27.262,-0.01,0.027,1.02
2026/05/14 10:31:27.282,-0.011,0.023,1.011
2026/05/14 10:31:27.302,-0.011,0.029,1.017
2026/05/14 10:31:27.321,-0.01,0.028,1.014
2026/05/14 10:31:27.341,-0.008,0.027,1.017
2026/05/14 10:31:27.361,-0.011,0.027,1.014
2026/05/14 10:31:27.380,-0.006,0.023,1.017
2026/05/14 10:31:27.400,-0.012,0.026,1.016
2026/05/14 10:31:27.420,-0.006,0.027,1.014
2026/05/14 10:31:27.439,-0.013,0.021,1.017
2026/05/14 10:31:27.459,-0.007,0.024,1.018
2026/05/14 10:31:27.479,-0.009,0.026,1.018
2026/05/14 10:31:27.499,-0.011,0.022,1.019
2026/05/14 10:31:27.518,-0.015,0.027,1.019
2026/05/14 10:31:27.538,-0.01,0.025,1.019
2026/05/14 10:31:27.558,-0.009,0.023,1.015
2026/05/14 10:31:27.577,-0.014,0.026,1.015
2026/05/14 10:31:27.597,-0.011,0.027,1.016
2026/05/14 10:31:27.617,-0.011,0.027,1.015
2026/05/14 10:31:27.636,-0.01,0.026,1.018
2026/05/14 10:31:27.656,-0.012,0.022,1.019
2026/05/14 10:31:27.676,-0.011,0.027,1.016
2026/05/14 10:31:27.695,-0.011,0.026,1.021
2026/05/14 10:31:27.715,-0.016,0.029,1.02
2026/05/14 10:31:27.735,-0.012,0.022,1.01
2026/05/14 10:31:27.754,-0.01,0.022,1.008
2026/05/14 10:31:27.774,-0.011,0.028,1.012
2026/05/14 10:31:27.794,-0.009,0.024,1.01
2026/05/14 10:31:27.813,-0.009,0.023,1.014
2026/05/14 10:31:27.833,-0.008,0.023,1.021
2026/05/14 10:31:27.853,-0.011,0.026,1.021
2026/05/14 10:31:27.872,-0.009,0.025,1.02
2026/05/14 10:31:27.892,-0.008,0.03,1.014
2026/05/14 10:31:27.912,-0.014,0.025,1.012
2026/05/14 10:31:27.931,-0.012,0.026,1.019
2026/05/14 10:31:27.951,-0.011,0.025,1.014
2026/05/14 10:31:27.971,-0.014,0.028,1.017
2026/05/14 10:31:27.991,-0.011,0.027,1.013
2026/05/14 10:31:28.010,-0.013,0.027,1.017
2026/05/14 10:31:28.030,-0.013,0.026,1.017
2026/05/14 10:31:28.050,-0.011,0.024,1.015
2026/05/14 10:31:28.069,-0.011,0.028,1.014
2026/05/14 10:31:28.089,-0.012,0.028,1.013
2026/05/14 10:31:28.109,-0.013,0.027,1.014
2026/05/14 10:31:28.128,-0.012,0.022,1.016
2026/05/14 10:31:28.148,-0.012,0.025,1.017
2026/05/14 10:31:28.168,-0.011,0.026,1.014
2026/05/14 10:31:28.187,-0.012,0.023,1.013
2026/05/14 10:31:28.207,-0.011,0.029,1.014
2026/05/14 10:31:28.227,-0.011,0.023,1.014
2026/05/14 10:31:28.246,-0.009,0.027,1.014
2026/05/14 10:31:28.266,-0.011,0.024,1.017
2026/05/14 10:31:28.286,-0.014,0.025,1.016
2026/05/14 10:31:28.305,-0.01,0.026,1.017
2026/05/14 10:31:28.325,-0.011,0.025,1.015
2026/05/14 10:31:28.345,-0.008,0.029,1.013
2026/05/14 10:31:28.364,-0.009,0.026,1.015
2026/05/14 10:31:28.384,-0.009,0.026,1.015
2026/05/14 10:31:28.404,-0.01,0.024,1.018
2026/05/14 10:31:28.423,-0.014,0.023,1.017
2026/05/14 10:31:28.443,-0.011,0.027,1.018
2026/05/14 10:31:28.463,-0.011,0.024,1.017
2026/05/14 10:31:28.483,-0.012,0.024,1.016
2026/05/14 10:31:28.502,-0.011,0.024,1.013
2026/05/14 10:31:28.522,-0.011,0.027,1.02
2026/05/14 10:31:28.542,-0.012,0.023,1.013
2026/05/14 10:31:28.561,-0.009,0.022,1.017
2026/05/14 10:31:28.581,-0.011,0.027,1.014
2026/05/14 10:31:28.601,-0.013,0.026,1.018
2026/05/14 10:31:28.620,-0.011,0.026,1.02
2026/05/14 10:31:28.640,-0.009,0.025,1.016
2026/05/14 10:31:28.660,-0.008,0.022,1.017
2026/05/14 10:31:28.679,-0.01,0.024,1.021
2026/05/14 10:31:28.699,-0.011,0.023,1.016
2026/05/14 10:31:28.719,-0.011,0.021,1.016
2026/05/14 10:31:28.738,-0.007,0.027,1.015
2026/05/14 10:31:28.758,-0.007,0.026,1.018
2026/05/14 10:31:28.778,-0.012,0.027,1.014
2026/05/14 10:31:28.797,-0.012,0.025,1.018
2026/05/14 10:31:28.817,-0.014,0.025,1.016
2026/05/14 10:31:28.837,-0.009,0.028,1.015
2026/05/14 10:31:28.856,-0.011,0.029,1.014
2026/05/14 10:31:28.876,-0.012,0.024,1.009
2026/05/14 10:31:28.896,-0.009,0.025,1.023
2026/05/14 10:31:28.916,-0.012,0.027,1.017
2026/05/14 10:31:28.935,-0.011,0.025,1.014
2026/05/14 10:31:28.955,-0.008,0.026,1.015
2026/05/14 10:31:28.975,-0.016,0.025,1.013
2026/05/14 10:31:28.994,-0.014,0.024,1.014
2026/05/14 10:31:29.014,-0.016,0.027,1.011
2026/05/14 10:31:29.034,-0.013,0.028,1.019
2026/05/14 10:31:29.053,-0.009,0.026,1.017
2026/05/14 10:31:29.073,-0.01,0.021,1.015
2026/05/14 10:31:29.093,-0.012,0.024,1.015
2026/05/14 10:31:29.112,-0.013,0.026,1.015
2026/05/14 10:31:29.132,-0.01,0.027,1.013
2026/05/14 10:31:29.152,-0.011,0.021,1.01
2026/05/14 10:31:29.171,-0.01,0.026,1.018
2026/05/14 10:31:29.191,-0.008,0.026,1.019
2026/05/14 10:31:29.211,-0.008,0.027,1.018
2026/05/14 10:31:29.230,-0.011,0.022,1.016
2026/05/14 10:31:29.250,-0.01,0.026,1.019
2026/05/14 10:31:29.270,-0.01,0.028,1.014
2026/05/14 10:31:29.289,-0.008,0.024,1.014
2026/05/14 10:31:29.309,-0.008,0.025,1.014
2026/05/14 10:31:29.329,-0.012,0.028,1.014
2026/05/14 10:31:29.348,-0.013,0.025,1.014
2026/05/14 10:31:29.368,-0.013,0.028,1.019
2026/05/14 10:31:29.388,-0.012,0.028,1.018
2026/05/14 10:31:29.408,-0.012,0.021,1.013
2026/05/14 10:31:29.427,-0.009,0.027,1.016
2026/05/14 10:31:29.447,-0.012,0.023,1.017
2026/05/14 10:31:29.467,-0.011,0.027,1.023
2026/05/14 10:31:29.486,-0.009,0.027,1.014
2026/05/14 10:31:29.506,-0.007,0.026,1.015
2026/05/14 10:31:29.526,-0.011,0.028,1.018
2026/05/14 10:31:29.545,-0.011,0.023,1.013
2026/05/14 10:31:29.565,-0.009,0.026,1.024
2026/05/14 10:31:29.585,-0.011,0.027,1.021
2026/05/14 10:31:29.604,-0.013,0.026,1.016
2026/05/14 10:31:29.624,-0.01,0.026,1.015
2026/05/14 10:31:29.644,-0.011,0.024,1.019
2026/05/14 10:31:29.663,-0.012,0.024,1.016
2026/05/14 10:31:29.683,-0.012,0.022,1.017
2026/05/14 10:31:29.703,-0.011,0.026,1.015
2026/05/14 10:31:29.722,-0.01,0.028,1.02
2026/05/14 10:31:29.742,-0.01,0.024,1.018
2026/05/14 10:31:29.762,-0.011,0.024,1.018
2026/05/14 10:31:29.781,-0.013,0.023,1.014
2026/05/14 10:31:29.801,-0.012,0.026,1.014
2026/05/14 10:31:29.821,-0.01,0.029,1.021
2026/05/14 10:31:29.840,-0.015,0.022,1.014
2026/05/14 10:31:29.860,-0.015,0.026,1.016
2026/05/14 10:31:29.880,-0.011,0.023,1.017
2026/05/14 10:31:29.900,-0.013,0.024,1.015
2026/05/14 10:31:29.919,-0.009,0.026,1.015
2026/05/14 10:31:29.939,-0.012,0.027,1.016
2026/05/14 10:31:29.959,-0.011,0.023,1.014
2026/05/14 10:31:29.978,-0.009,0.028,1.018
2026/05/14 10:31:29.998,-0.011,0.025,1.018
2026/05/14 10:31:30.018,-0.007,0.023,1.014
2026/05/14 10:31:30.037,-0.011,0.028,1.013
2026/05/14 10:31:30.057,-0.006,0.024,1.017
2026/05/14 10:31:30.077,-0.008,0.019,1.018
2026/05/14 10:31:30.096,-0.006,0.027,1.011
2026/05/14 10:31:30.116,-0.011,0.028,1.015
2026/05/14 10:31:30.136,-0.013,0.03,1.013
2026/05/14 10:31:30.155,-0.007,0.023,1.013
2026/05/14 10:31:30.175,-0.011,0.023,1.019
2026/05/14 10:31:30.195,-0.01,0.024,1.019
2026/05/14 10:31:30.214,-0.015,0.023,1.011
2026/05/14 10:31:30.234,-0.009,0.024,1.019
2026/05/14 10:31:30.254,-0.011,0.026,1.016
2026/05/14 10:31:30.273,-0.014,0.024,1.015
2026/05/14 10:31:30.293,-0.006,0.03,1.015
2026/05/14 10:31:30.313,-0.01,0.021,1.017
2026/05/14 10:31:30.333,-0.009,0.026,1.018
2026/05/14 10:31:30.352,-0.013,0.026,1.019
2026/05/14 10:31:30.372,-0.012,0.024,1.017
2026/05/14 10:31:30.392,-0.01,0.026,1.015
2026/05/14 10:31:30.411,-0.013,0.023,1.015
2026/05/14 10:31:30.431,-0.011,0.024,1.018
2026/05/14 10:31:30.451,-0.013,0.027,1.017
2026/05/14 10:31:30.470,-0.013,0.026,1.013
2026/05/14 10:31:30.490,-0.008,0.027,1.015
2026/05/14 10:31:30.510,-0.013,0.027,1.012
2026/05/14 10:31:30.529,-0.009,0.028,1.011
2026/05/14 10:31:30.549,-0.01,0.026,1.017
2026/05/14 10:31:30.569,-0.011,0.026,1.014
2026/05/14 10:31:30.588,-0.009,0.027,1.021
2026/05/14 10:31:30.608,-0.01,0.024,1.014
2026/05/14 10:31:30.628,-0.008,0.025,1.02
2026/05/14 10:31:30.647,-0.009,0.026,1.015
2026/05/14 10:31:30.667,-0.014,0.023,1.018
2026/05/14 10:31:30.687,-0.012,0.025,1.015
2026/05/14 10:31:30.706,-0.011,0.021,1.014
2026/05/14 10:31:30.726,-0.011,0.025,1.014
2026/05/14 10:31:30.746,-0.011,0.028,1.021
2026/05/14 10:31:30.766,-0.011,0.026,1.015
2026/05/14 10:31:30.785,-0.013,0.028,1.014
2026/05/14 10:31:30.805,-0.013,0.026,1.015
2026/05/14 10:31:30.825,-0.012,0.022,1.014
2026/05/14 10:31:30.844,-0.011,0.026,1.019
2026/05/14 10:31:30.864,-0.013,0.024,1.012
2026/05/14 10:31:30.884,-0.011,0.023,1.017
2026/05/14 10:31:30.903,-0.011,0.021,1.018
2026/05/14 10:31:30.923,-0.015,0.027,1.015
2026/05/14 10:31:30.943,-0.011,0.026,1.018
2026/05/14 10:31:30.962,-0.012,0.025,1.022
2026/05/14 10:31:30.982,-0.009,0.025,1.014
2026/05/14 10:31:31.002,-0.008,0.025,1.016
2026/05/14 10:31:31.021,-0.012,0.023,1.02
2026/05/14 10:31:31.041,-0.009,0.025,1.016
2026/05/14 10:31:31.061,-0.011,0.026,1.009
2026/05/14 10:31:31.080,-0.015,0.027,1.018
2026/05/14 10:31:31.100,-0.01,0.024,1.02
2026/05/14 10:31:31.120,-0.014,0.027,1.019
2026/05/14 10:31:31.139,-0.013,0.023,1.019
2026/05/14 10:31:31.159,-0.011,0.026,1.013
2026/05/14 10:31:31.179,-0.011,0.027,1.017
2026/05/14 10:31:31.199,-0.007,0.023,1.012
2026/05/14 10:31:31.218,-0.013,0.025,1.018
2026/05/14 10:31:31.238,-0.01,0.026,1.013
2026/05/14 10:31:31.258,-0.014,0.027,1.019
2026/05/14 10:31:31.277,-0.011,0.027,1.017
2026/05/14 10:31:31.297,-0.013,0.024,1.016
2026/05/14 10:31:31.317,-0.012,0.023,1.016
2026/05/14 10:31:31.336,-0.009,0.024,1.022
2026/05/14 10:31:31.356,-0.015,0.027,1.015
2026/05/14 10:31:31.376,-0.012,0.029,1.014
2026/05/14 10:31:31.395,-0.009,0.026,1.018
2026/05/14 10:31:31.415,-0.011,0.026,1.016
2026/05/14 10:31:31.435,-0.012,0.024,1.016
2026/05/14 10:31:31.454,-0.01,0.028,1.015
2026/05/14 10:31:31.474,-0.012,0.024,1.018
2026/05/14 10:31:31.494,-0.01,0.023,1.017
2026/05/14 10:31:31.513,-0.011,0.024,1.019
2026/05/14 10:31:31.533,-0.011,0.026,1.016
2026/05/14 10:31:31.553,-0.008,0.025,1.017
2026/05/14 10:31:31.573,-0.014,0.029,1.015
2026/05/14 10:31:31.592,-0.012,0.022,1.015
2026/05/14 10:31:31.612,-0.01,0.025,1.016
2026/05/14 10:31:31.632,-0.012,0.025,1.016
2026/05/14 10:31:31.651,-0.012,0.026,1.016
2026/05/14 10:31:31.671,-0.012,0.024,1.017
2026/05/14 10:31:31.691,-0.011,0.023,1.017
2026/05/14 10:31:31.710,-0.012,0.027,1.02
2026/05/14 10:31:31.730,-0.008,0.023,1.014
2026/05/14 10:31:31.750,-0.008,0.025,1.014
2026/05/14 10:31:31.769,-0.012,0.025,1.016
2026/05/14 10:31:31.789,-0.005,0.027,1.016
2026/05/14 10:31:31.809,-0.012,0.027,1.017
2026/05/14 10:31:31.828,-0.014,0.027,1.017
2026/05/14 10:31:31.848,-0.009,0.025,1.015
2026/05/14 10:31:31.868,-0.012,0.025,1.02
2026/05/14 10:31:31.887,-0.008,0.021,1.017
2026/05/14 10:31:31.907,-0.012,0.028,1.018
2026/05/14 10:31:31.927,-0.007,0.03,1.017
2026/05/14 10:31:31.946,-0.01,0.025,1.018
2026/05/14 10:31:31.966,-0.008,0.025,1.017
2026/05/14 10:31:31.986,-0.013,0.026,1.014
2026/05/14 10:31:32.006,-0.011,0.027,1.018
2026/05/14 10:31:32.025,-0.012,0.03,1.015
2026/05/14 10:31:32.045,-0.013,0.026,1.015
2026/05/14 10:31:32.065,-0.011,0.022,1.013
2026/05/14 10:31:32.084,-0.009,0.025,1.019
2026/05/14 10:31:32.104,-0.007,0.022,1.016
2026/05/14 10:31:32.124,-0.011,0.024,1.016
2026/05/14 10:31:32.143,-0.009,0.026,1.017
2026/05/14 10:31:32.163,-0.008,0.02,1.017
2026/05/14 10:31:32.183,-0.012,0.022,1.016
2026/05/14 10:31:32.202,-0.012,0.024,1.013
2026/05/14 10:31:32.222,-0.011,0.024,1.013
2026/05/14 10:31:32.242,-0.008,0.024,1.015
2026/05/14 10:31:32.261,-0.011,0.026,1.014
2026/05/14 10:31:32.281,-0.011,0.024,1.018
2026/05/14 10:31:32.301,-0.01,0.024,1.013
2026/05/14 10:31:32.320,-0.012,0.022,1.014
2026/05/14 10:31:32.340,-0.011,0.024,1.015
2026/05/14 10:31:32.360,-0.011,0.026,1.019
2026/05/14 10:31:32.379,-0.011,0.028,1.017
2026/05/14 10:31:32.399,-0.013,0.026,1.014
2026/05/14 10:31:32.419,-0.006,0.027,1.02
2026/05/14 10:31:32.439,-0.008,0.027,1.012
2026/05/14 10:31:32.458,-0.01,0.024,1.016
2026/05/14 10:31:32.478,-0.011,0.026,1.017
2026/05/14 10:31:32.498,-0.012,0.027,1.014
2026/05/14 10:31:32.517,-0.011,0.022,1.019
2026/05/14 10:31:32.537,-0.011,0.026,1.014
2026/05/14 10:31:32.557,-0.009,0.025,1.014
2026/05/14 10:31:32.576,-0.009,0.024,1.019
2026/05/14 10:31:32.596,-0.008,0.026,1.018
2026/05/14 10:31:32.616,-0.013,0.025,1.016
2026/05/14 10:31:32.635,-0.011,0.023,1.012
2026/05/14 10:31:32.655,-0.009,0.029,1.016
2026/05/14 10:31:32.675,-0.013,0.026,1.018
2026/05/14 10:31:32.694,-0.006,0.027,1.016
2026/05/14 10:31:32.714,-0.009,0.027,1.018
2026/05/14 10:31:32.734,-0.012,0.023,1.02
2026/05/14 10:31:32.753,-0.01,0.028,1.016
2026/05/14 10:31:32.773,-0.01,0.022,1.018
2026/05/14 10:31:32.793,-0.011,0.026,1.017
2026/05/14 10:31:32.812,-0.011,0.026,1.014
2026/05/14 10:31:32.832,-0.012,0.024,1.019
2026/05/14 10:31:32.852,-0.011,0.026,1.013
2026/05/14 10:31:32.872,-0.012,0.026,1.017
2026/05/14 10:31:32.891,-0.008,0.024,1.016
2026/05/14 10:31:32.911,-0.007,0.027,1.014
2026/05/14 10:31:32.931,-0.011,0.022,1.014
2026/05/14 10:31:32.950,-0.011,0.022,1.014
2026/05/14 10:31:32.970,-0.01,0.027,1.014
2026/05/14 10:31:32.990,-0.011,0.026,1.017
2026/05/14 10:31:33.009,-0.011,0.025,1.016
2026/05/14 10:31:33.029,-0.01,0.022,1.019
2026/05/14 10:31:33.049,-0.011,0.023,1.019
2026/05/14 10:31:33.068,-0.008,0.027,1.018
2026/05/14 10:31:33.088,-0.01,0.023,1.018
2026/05/14 10:31:33.108,-0.011,0.024,1.018
2026/05/14 10:31:33.127,-0.01,0.025,1.015
2026/05/14 10:31:33.147,-0.013,0.026,1.018
2026/05/14 10:31:33.167,-0.008,0.025,1.018
2026/05/14 10:31:33.186,-0.011,0.029,1.015
2026/05/14 10:31:33.206,-0.013,0.027,1.017
2026/05/14 10:31:33.226,-0.011,0.026,1.017
2026/05/14 10:31:33.245,-0.01,0.023,1.017
2026/05/14 10:31:33.265,-0.011,0.025,1.016
2026/05/14 10:31:33.285,-0.01,0.022,1.016
2026/05/14 10:31:33.305,-0.011,0.026,1.018
2026/05/14 10:31:33.324,-0.008,0.027,1.017
2026/05/14 10:31:33.344,-0.01,0.027,1.013
2026/05/14 10:31:33.364,-0.013,0.024,1.017
2026/05/14 10:31:33.383,-0.012,0.027,1.015
2026/05/14 10:31:33.403,-0.009,0.025,1.014
2026/05/14 10:31:33.423,-0.008,0.026,1.015
2026/05/14 10:31:33.442,-0.011,0.029,1.014
2026/05/14 10:31:33.462,-0.015,0.028,1.015
2026/05/14 10:31:33.482,-0.007,0.025,1.018
2026/05/14 10:31:33.501,-0.007,0.031,1.015
2026/05/14 10:31:33.521,-0.012,0.027,1.017
2026/05/14 10:31:33.541,-0.01,0.024,1.012
2026/05/14 10:31:33.560,-0.007,0.028,1.012
2026/05/14 10:31:33.580,-0.01,0.026,1.017
2026/05/14 10:31:33.600,-0.01,0.022,1.016
2026/05/14 10:31:33.619,-0.012,0.028,1.018
2026/05/14 10:31:33.639,-0.009,0.023,1.018
2026/05/14 10:31:33.659,-0.012,0.029,1.015
2026/05/14 10:31:33.678,-0.01,0.025,1.011
2026/05/14 10:31:33.698,-0.011,0.026,1.015
2026/05/14 10:31:33.718,-0.01,0.027,1.016
2026/05/14 10:31:33.737,-0.014,0.026,1.014
2026/05/14 10:31:33.757,-0.01,0.025,1.016
2026/05/14 10:31:33.777,-0.011,0.026,1.02
2026/05/14 10:31:33.797,-0.013,0.024,1.016
2026/05/14 10:31:33.816,-0.008,0.023,1.014
2026/05/14 10:31:33.836,-0.009,0.025,1.015
2026/05/14 10:31:33.856,-0.01,0.029,1.012
2026/05/14 10:31:33.875,-0.01,0.023,1.016
2026/05/14 10:31:33.895,-0.013,0.023,1.017
2026/05/14 10:31:33.915,-0.01,0.026,1.018
2026/05/14 10:31:33.934,-0.011,0.026,1.014
2026/05/14 10:31:33.954,-0.01,0.024,1.015
2026/05/14 10:31:33.974,-0.014,0.029,1.016
2026/05/14 10:31:33.993,-0.012,0.027,1.015
2026/05/14 10:31:34.013,-0.011,0.027,1.018
2026/05/14 10:31:34.033,-0.012,0.026,1.012
2026/05/14 10:31:34.052,-0.009,0.023,1.016
2026/05/14 10:31:34.072,-0.01,0.023,1.012
2026/05/14 10:31:34.092,-0.011,0.027,1.014
2026/05/14 10:31:34.111,-0.007,0.025,1.017
2026/05/14 10:31:34.131,-0.012,0.024,1.017
2026/05/14 10:31:34.151,-0.011,0.025,1.013
2026/05/14 10:31:34.170,-0.009,0.027,1.026
2026/05/14 10:31:34.190,-0.008,0.024,1.011
2026/05/14 10:31:34.210,-0.011,0.025,1.02
2026/05/14 10:31:34.230,-0.009,0.022,1.021
2026/05/14 10:31:34.249,-0.007,0.022,1.01
2026/05/14 10:31:34.269,-0.011,0.024,1.012
2026/05/14 10:31:34.289,-0.007,0.027,1.015
2026/05/14 10:31:34.308,-0.01,0.027,1.019
2026/05/14 10:31:34.328,-0.011,0.028,1.02
2026/05/14 10:31:34.348,-0.009,0.022,1.017
2026/05/14 10:31:34.367,-0.01,0.022,1.017
2026/05/14 10:31:34.387,-0.012,0.027,1.014
2026/05/14 10:31:34.407,-0.01,0.024,1.009
2026/05/14 10:31:34.426,-0.012,0.028,1.015
2026/05/14 10:31:34.446,-0.013,0.027,1.01
2026/05/14 10:31:34.466,-0.014,0.026,1.019
2026/05/14 10:31:34.485,-0.009,0.023,1.012
2026/05/14 10:31:34.505,-0.01,0.022,1.014
2026/05/14 10:31:34.525,-0.009,0.027,1.01
2026/05/14 10:31:34.544,-0.009,0.027,1.018
2026/05/14 10:31:34.564,-0.007,0.027,1.014
2026/05/14 10:31:34.584,-0.011,0.026,1.014
2026/05/14 10:31:34.603,-0.008,0.023,1.012
2026/05/14 10:31:34.623,-0.01,0.021,1.021
2026/05/14 10:31:34.643,-0.011,0.028,1.008
2026/05/14 10:31:34.662,-0.015,0.023,1.005
2026/05/14 10:31:34.682,-0.01,0.024,1.022
2026/05/14 10:31:34.702,-0.009,0.023,1.017
2026/05/14 10:31:34.722,-0.01,0.027,1.018
2026/05/14 10:31:34.741,-0.011,0.02,1.017
2026/05/14 10:31:34.761,-0.005,0.026,1.013
2026/05/14 10:31:34.781,-0.01,0.029,1.013
2026/05/14 10:31:34.800,-0.008,0.026,1.014
2026/05/14 10:31:34.820,-0.01,0.023,1.013
2026/05/14 10:31:34.840,-0.012,0.025,1.017
2026/05/14 10:31:34.859,-0.012,0.025,1.015
2026/05/14 10:31:34.879,-0.012,0.026,1.017
2026/05/14 10:31:34.899,-0.013,0.026,1.02
2026/05/14 10:31:34.918,-0.01,0.026,1.011
2026/05/14 10:31:34.938,-0.012,0.022,1.016
2026/05/14 10:31:34.958,-0.011,0.026,1.021
2026/05/14 10:31:34.977,-0.01,0.027,1.016
2026/05/14 10:31:34.997,-0.007,0.032,1.016
2026/05/14 10:31:35.017,-0.009,0.029,1.016
2026/05/14 10:31:35.036,-0.013,0.024,1.024
2026/05/14 10:31:35.056,-0.013,0.027,1.022
2026/05/14 10:31:35.076,-0.009,0.021,1.027
2026/05/14 10:31:35.095,-0.011,0.027,1.019
2026/05/14 10:31:35.115,-0.009,0.03,1.018
2026/05/14 10:31:35.135,-0.011,0.023,1.021
2026/05/14 10:31:35.155,-0.01,0.025,1.013
2026/05/14 10:31:35.174,-0.01,0.028,1.016
2026/05/14 10:31:35.194,-0.008,0.028,1.014
2026/05/14 10:31:35.214,-0.011,0.023,1.016
2026/05/14 10:31:35.233,-0.014,0.026,1.016
2026/05/14 10:31:35.253,-0.012,0.018,1.018
2026/05/14 10:31:35.273,-0.01,0.023,1.017
2026/05/14 10:31:35.292,-0.01,0.027,1.018
2026/05/14 10:31:35.312,-0.013,0.026,1.016
2026/05/14 10:31:35.332,-0.01,0.023,1.013
2026/05/14 10:31:35.351,-0.008,0.023,1.017
2026/05/14 10:31:35.371,-0.012,0.024,1.014
2026/05/14 10:31:35.391,-0.009,0.026,1.014
2026/05/14 10:31:35.410,-0.013,0.023,1.016
2026/05/14 10:31:35.430,-0.011,0.022,1.016
2026/05/14 10:31:35.450,-0.012,0.025,1.018
2026/05/14 10:31:35.469,-0.013,0.026,1.019
2026/05/14 10:31:35.489,-0.01,0.026,1.013
2026/05/14 10:31:35.509,-0.01,0.029,1.015
2026/05/14 10:31:35.528,-0.014,0.026,1.014
2026/05/14 10:31:35.548,-0.011,0.026,1.014
2026/05/14 10:31:35.568,-0.013,0.025,1.016
2026/05/14 10:31:35.588,-0.011,0.026,1.015
2026/05/14 10:31:35.607,-0.011,0.024,1.018
2026/05/14 10:31:35.627,-0.013,0.026,1.023
2026/05/14 10:31:35.647,-0.007,0.027,1.015
2026/05/14 10:31:35.666,-0.008,0.028,1.016
2026/05/14 10:31:35.686,-0.011,0.022,1.016
2026/05/14 10:31:35.706,-0.011,0.027,1.014
2026/05/14 10:31:35.725,-0.01,0.025,1.017
2026/05/14 10:31:35.745,-0.011,0.027,1.016
2026/05/14 10:31:35.765,-0.011,0.032,1.016
2026/05/14 10:31:35.784,-0.012,0.022,1.013
2026/05/14 10:31:35.804,-0.008,0.029,1.015
2026/05/14 10:31:35.824,-0.009,0.025,1.019
2026/05/14 10:31:35.843,-0.01,0.026,1.011
2026/05/14 10:31:35.863,-0.012,0.028,1.016
2026/05/14 10:31:35.883,-0.01,0.023,1.021
2026/05/14 10:31:35.902,-0.011,0.026,1.014
2026/05/14 10:31:35.922,-0.011,0.025,1.019
2026/05/14 10:31:35.942,-0.013,0.023,1.022
2026/05/14 10:31:35.961,-0.012,0.028,1.009
2026/05/14 10:31:35.981,-0.01,0.027,1.014
2026/05/14 10:31:36.001,-0.009,0.027,1.024
2026/05/14 10:31:36.020,-0.009,0.02,1.021
2026/05/14 10:31:36.040,-0.01,0.024,1.019
2026/05/14 10:31:36.060,-0.012,0.023,1.018
2026/05/14 10:31:36.080,-0.008,0.028,1.014
2026/05/14 10:31:36.099,-0.008,0.026,1.02
2026/05/14 10:31:36.119,-0.012,0.021,1.015
2026/05/14 10:31:36.139,-0.009,0.028,1.018
2026/05/14 10:31:36.158,-0.008,0.027,1.014
2026/05/14 10:31:36.178,-0.008,0.028,1.01
2026/05/14 10:31:36.198,-0.012,0.024,1.015
2026/05/14 10:31:36.217,-0.011,0.023,1.016
2026/05/14 10:31:36.237,-0.013,0.022,1.017
2026/05/14 10:31:36.257,-0.009,0.025,1.012
2026/05/14 10:31:36.276,-0.01,0.024,1.016
2026/05/14 10:31:36.296,-0.012,0.024,1.014
2026/05/14 10:31:36.316,-0.012,0.028,1.014
2026/05/14 10:31:36.335,-0.011,0.026,1.018
2026/05/14 10:31:36.355,-0.01,0.021,1.015
2026/05/14 10:31:36.375,-0.006,0.026,1.017
2026/05/14 10:31:36.394,-0.012,0.023,1.018
2026/05/14 10:31:36.414,-0.011,0.026,1.016
2026/05/14 10:31:36.434,-0.011,0.023,1.018
2026/05/14 10:31:36.453,-0.009,0.026,1.011
2026/05/14 10:31:36.473,-0.011,0.027,1.014
2026/05/14 10:31:36.493,-0.011,0.028,1.012
2026/05/14 10:31:36.512,-0.008,0.026,1.015
2026/05/14 10:31:36.532,-0.012,0.023,1.01
2026/05/14 10:31:36.552,-0.009,0.025,1.018
2026/05/14 10:31:36.572,-0.013,0.024,1.019
2026/05/14 10:31:36.591,-0.01,0.029,1.016
2026/05/14 10:31:36.611,-0.009,0.027,1.016
2026/05/14 10:31:36.631,-0.012,0.027,1.014
2026/05/14 10:31:36.650,-0.015,0.023,1.02
2026/05/14 10:31:36.670,-0.01,0.027,1.016
2026/05/14 10:31:36.690,-0.01,0.024,1.019
2026/05/14 10:31:36.709,-0.012,0.027,1.013
2026/05/14 10:31:36.729,-0.011,0.026,1.02
2026/05/14 10:31:36.749,-0.011,0.026,1.014
2026/05/14 10:31:36.768,-0.012,0.025,1.014
2026/05/14 10:31:36.788,-0.01,0.028,1.015
2026/05/14 10:31:36.808,-0.009,0.026,1.015
2026/05/14 10:31:36.827,-0.009,0.024,1.017
2026/05/14 10:31:36.847,-0.007,0.025,1.017
2026/05/14 10:31:36.867,-0.006,0.027,1.019
2026/05/14 10:31:36.886,-0.012,0.027,1.018
2026/05/14 10:31:36.906,-0.012,0.028,1.018
2026/05/14 10:31:36.926,-0.013,0.025,1.014
2026/05/14 10:31:36.945,-0.01,0.027,1.014
2026/05/14 10:31:36.965,-0.012,0.024,1.016
2026/05/14 10:31:36.985,-0.011,0.027,1.016
2026/05/14 10:31:37.004,-0.01,0.026,1.017
2026/05/14 10:31:37.024,-0.015,0.027,1.017
2026/05/14 10:31:37.044,-0.01,0.026,1.02
2026/05/14 10:31:37.064,-0.01,0.023,1.016
2026/05/14 10:31:37.083,-0.012,0.027,1.019
2026/05/14 10:31:37.103,-0.01,0.027,1.017
2026/05/14 10:31:37.123,-0.013,0.026,1.017
2026/05/14 10:31:37.142,-0.01,0.024,1.017
2026/05/14 10:31:37.162,-0.011,0.022,1.009
2026/05/14 10:31:37.182,-0.009,0.024,1.02
2026/05/14 10:31:37.201,-0.009,0.027,1.013
2026/05/14 10:31:37.221,-0.011,0.03,1.019
2026/05/14 10:31:37.241,-0.01,0.03,1.014
2026/05/14 10:31:37.260,-0.011,0.024,1.015
2026/05/14 10:31:37.280,-0.011,0.024,1.014
2026/05/14 10:31:37.300,-0.009,0.027,1.015
2026/05/14 10:31:37.319,-0.007,0.026,1.017
2026/05/14 10:31:37.339,-0.006,0.025,1.016
2026/05/14 10:31:37.359,-0.009,0.024,1.011
2026/05/14 10:31:37.378,-0.01,0.023,1.019
2026/05/14 10:31:37.398,-0.011,0.024,1.016
2026/05/14 10:31:37.418,-0.009,0.025,1.021
2026/05/14 10:31:37.437,-0.01,0.029,1.019
2026/05/14 10:31:37.457,-0.011,0.024,1.014
2026/05/14 10:31:37.477,-0.008,0.026,1.019
2026/05/14 10:31:37.496,-0.014,0.026,1.019
2026/05/14 10:31:37.516,-0.011,0.027,1.009
2026/05/14 10:31:37.536,-0.009,0.026,1.019
2026/05/14 10:31:37.556,-0.012,0.03,1.017
2026/05/14 10:31:37.575,-0.009,0.027,1.012
2026/05/14 10:31:37.595,-0.007,0.026,1.014
2026/05/14 10:31:37.615,-0.01,0.023,1.014
2026/05/14 10:31:37.634,-0.01,0.028,1.016
2026/05/14 10:31:37.654,-0.015,0.028,1.017
2026/05/14 10:31:37.674,-0.012,0.022,1.015
2026/05/14 10:31:37.693,-0.01,0.027,1.012
2026/05/14 10:31:37.713,-0.011,0.026,1.016
2026/05/14 10:31:37.733,-0.008,0.025,1.014
2026/05/14 10:31:37.752,-0.007,0.028,1.014
2026/05/14 10:31:37.772,-0.012,0.025,1.021
2026/05/14 10:31:37.792,-0.01,0.025,1.019
2026/05/14 10:31:37.811,-0.008,0.028,1.018
2026/05/14 10:31:37.831,-0.009,0.023,1.015
2026/05/14 10:31:37.851,-0.007,0.027,1.016
2026/05/14 10:31:37.870,-0.009,0.025,1.014
2026/05/14 10:31:37.890,-0.013,0.025,1.017
2026/05/14 10:31:37.910,-0.009,0.024,1.014
2026/05/14 10:31:37.929,-0.015,0.027,1.017
2026/05/14 10:31:37.949,-0.01,0.018,1.016
2026/05/14 10:31:37.969,-0.008,0.027,1.015
2026/05/14 10:31:37.988,-0.012,0.024,1.015
2026/05/14 10:31:38.008,-0.011,0.027,1.017
2026/05/14 10:31:38.028,-0.01,0.026,1.012
2026/05/14 10:31:38.048,-0.01,0.027,1.014
2026/05/14 10:31:38.067,-0.01,0.023,1.016
2026/05/14 10:31:38.087,-0.012,0.026,1.015
2026/05/14 10:31:38.107,-0.012,0.028,1.015
2026/05/14 10:31:38.126,-0.01,0.025,1.016
2026/05/14 10:31:38.146,-0.01,0.021,1.019
2026/05/14 10:31:38.166,-0.008,0.024,1.019
2026/05/14 10:31:38.185,-0.012,0.025,1.018
2026/05/14 10:31:38.205,-0.01,0.025,1.014
2026/05/14 10:31:38.225,-0.007,0.024,1.018
2026/05/14 10:31:38.244,-0.01,0.024,1.015
2026/05/14 10:31:38.264,-0.011,0.025,1.018
2026/05/14 10:31:38.284,-0.013,0.026,1.015
2026/05/14 10:31:38.303,-0.01,0.028,1.011
2026/05/14 10:31:38.323,-0.009,0.029,1.014
2026/05/14 10:31:38.343,-0.008,0.025,1.016
2026/05/14 10:31:38.362,-0.012,0.025,1.016
2026/05/14 10:31:38.382,-0.008,0.024,1.018
2026/05/14 10:31:38.402,-0.009,0.024,1.012
2026/05/14 10:31:38.421,-0.012,0.029,1.017
2026/05/14 10:31:38.441,-0.006,0.027,1.015
2026/05/14 10:31:38.461,-0.013,0.029,1.015
2026/05/14 10:31:38.480,-0.009,0.024,1.017
2026/05/14 10:31:38.500,-0.01,0.027,1.016
2026/05/14 10:31:38.520,-0.015,0.028,1.017
2026/05/14 10:31:38.540,-0.01,0.027,1.019
2026/05/14 10:31:38.559,-0.012,0.026,1.015
2026/05/14 10:31:38.579,-0.008,0.025,1.014
2026/05/14 10:31:38.599,-0.011,0.024,1.016
2026/05/14 10:31:38.618,-0.013,0.023,1.015
2026/05/14 10:31:38.638,-0.007,0.027,1.018
2026/05/14 10:31:38.658,-0.012,0.024,1.017
2026/05/14 10:31:38.677,-0.012,0.026,1.016
2026/05/14 10:31:38.697,-0.012,0.026,1.015
2026/05/14 10:31:38.717,-0.013,0.028,1.014
2026/05/14 10:31:38.736,-0.013,0.024,1.018
2026/05/14 10:31:38.756,-0.01,0.027,1.014
2026/05/14 10:31:38.776,-0.008,0.023,1.018
2026/05/14 10:31:38.795,-0.01,0.028,1.015
2026/05/14 10:31:38.815,-0.012,0.027,1.021
2026/05/14 10:31:38.835,-0.011,0.025,1.017
2026/05/14 10:31:38.854,-0.012,0.024,1.011
2026/05/14 10:31:38.874,-0.011,0.027,1.017
2026/05/14 10:31:38.894,-0.011,0.023,1.012
2026/05/14 10:31:38.913,-0.011,0.025,1.018
2026/05/14 10:31:38.933,-0.011,0.025,1.018
2026/05/14 10:31:38.953,-0.011,0.025,1.012
2026/05/14 10:31:38.973,-0.011,0.025,1.018
2026/05/14 10:31:38.992,-0.011,0.021,1.014
2026/05/14 10:31:39.012,-0.015,0.021,1.016
2026/05/14 10:31:39.032,-0.01,0.028,1.02
2026/05/14 10:31:39.051,-0.009,0.027,1.013
2026/05/14 10:31:39.071,-0.009,0.024,1.015
2026/05/14 10:31:39.091,-0.012,0.027,1.02
2026/05/14 10:31:39.110,-0.008,0.024,1.017
2026/05/14 10:31:39.130,-0.009,0.026,1.018
2026/05/14 10:31:39.150,-0.008,0.025,1.016
2026/05/14 10:31:39.169,-0.007,0.025,1.018
2026/05/14 10:31:39.189,-0.011,0.024,1.013
2026/05/14 10:31:39.209,-0.009,0.02,1.015
2026/05/14 10:31:39.228,-0.014,0.026,1.015
2026/05/14 10:31:39.248,-0.011,0.027,1.016
2026/05/14 10:31:39.268,-0.012,0.026,1.015
2026/05/14 10:31:39.287,-0.01,0.028,1.019
2026/05/14 10:31:39.307,-0.012,0.025,1.018
2026/05/14 10:31:39.327,-0.009,0.026,1.015
2026/05/14 10:31:39.346,-0.014,0.025,1.015
2026/05/14 10:31:39.366,-0.01,0.026,1.018
2026/05/14 10:31:39.386,-0.012,0.025,1.016
2026/05/14 10:31:39.405,-0.011,0.024,1.013
2026/05/14 10:31:39.425,-0.014,0.027,1.014
2026/05/14 10:31:39.445,-0.014,0.025,1.018
2026/05/14 10:31:39.465,-0.008,0.026,1.018
2026/05/14 10:31:39.484,-0.009,0.025,1.014
2026/05/14 10:31:39.504,-0.01,0.027,1.017
2026/05/14 10:31:39.524,-0.01,0.028,1.014
2026/05/14 10:31:39.543,-0.012,0.024,1.015
2026/05/14 10:31:39.563,-0.008,0.024,1.014
2026/05/14 10:31:39.583,-0.013,0.026,1.013
2026/05/14 10:31:39.602,-0.007,0.025,1.014
2026/05/14 10:31:39.622,-0.01,0.023,1.015
2026/05/14 10:31:39.642,-0.011,0.026,1.019
2026/05/14 10:31:39.661,-0.011,0.028,1.014
2026/05/14 10:31:39.681,-0.009,0.028,1.014
2026/05/14 10:31:39.701,-0.013,0.025,1.014
2026/05/14 10:31:39.720,-0.011,0.021,1.014
2026/05/14 10:31:39.740,-0.012,0.027,1.016
2026/05/14 10:31:39.760,-0.01,0.025,1.019
2026/05/14 10:31:39.779,-0.016,0.026,1.016
2026/05/14 10:31:39.799,-0.011,0.024,1.016
2026/05/14 10:31:39.819,-0.012,0.023,1.017
2026/05/14 10:31:39.838,-0.009,0.027,1.02
2026/05/14 10:31:39.858,-0.013,0.029,1.015
2026/05/14 10:31:39.878,-0.009,0.024,1.013
2026/05/14 10:31:39.898,-0.012,0.027,1.015
2026/05/14 10:31:39.917,-0.013,0.026,1.016
2026/05/14 10:31:39.937,-0.008,0.026,1.014
2026/05/14 10:31:39.957,-0.011,0.024,1.014
2026/05/14 10:31:39.976,-0.008,0.022,1.018
2026/05/14 10:31:39.996,-0.007,0.024,1.014
2026/05/14 10:31:40.016,-0.011,0.026,1.016
2026/05/14 10:31:40.035,-0.011,0.029,1.014
2026/05/14 10:31:40.055,-0.009,0.022,1.017
2026/05/14 10:31:40.075,-0.011,0.027,1.017
2026/05/14 10:31:40.094,-0.01,0.022,1.015
2026/05/14 10:31:40.114,-0.009,0.025,1.018
2026/05/14 10:31:40.134,-0.012,0.027,1.013
2026/05/14 10:31:40.153,-0.01,0.025,1.018
2026/05/14 10:31:40.173,-0.01,0.024,1.018
2026/05/14 10:31:40.193,-0.008,0.027,1.015
2026/05/14 10:31:40.212,-0.012,0.025,1.012
2026/05/14 10:31:40.232,-0.009,0.025,1.015
2026/05/14 10:31:40.252,-0.012,0.026,1.02
2026/05/14 10:31:40.271,-0.008,0.028,1.014
2026/05/14 10:31:40.291,-0.007,0.027,1.014
2026/05/14 10:31:40.311,-0.011,0.027,1.019
2026/05/14 10:31:40.330,-0.012,0.026,1.016
2026/05/14 10:31:40.350,-0.008,0.024,1.014
2026/05/14 10:31:40.370,-0.012,0.023,1.015
2026/05/14 10:31:40.390,-0.01,0.029,1.02
2026/05/14 10:31:40.409,-0.013,0.026,1.016
2026/05/14 10:31:40.429,-0.011,0.024,1.014
2026/05/14 10:31:40.449,-0.01,0.025,1.019
2026/05/14 10:31:40.468,-0.015,0.025,1.016
2026/05/14 10:31:40.488,-0.014,0.027,1.02
2026/05/14 10:31:40.508,-0.015,0.027,1.018
2026/05/14 10:31:40.527,-0.012,0.028,1.018
2026/05/14 10:31:40.547,-0.011,0.028,1.014
2026/05/14 10:31:40.567,-0.01,0.021,1.018
2026/05/14 10:31:40.586,-0.009,0.028,1.02
2026/05/14 10:31:40.606,-0.013,0.024,1.017
2026/05/14 10:31:40.626,-0.012,0.024,1.014
2026/05/14 10:31:40.645,-0.009,0.026,1.021
2026/05/14 10:31:40.665,-0.009,0.024,1.018
2026/05/14 10:31:40.685,-0.01,0.028,1.015
2026/05/14 10:31:40.704,-0.013,0.026,1.018
2026/05/14 10:31:40.724,-0.014,0.027,1.019
2026/05/14 10:31:40.744,-0.011,0.024,1.011
2026/05/14 10:31:40.763,-0.013,0.027,1.01
2026/05/14 10:31:40.783,-0.011,0.029,1.015
2026/05/14 10:31:40.803,-0.008,0.025,1.016
2026/05/14 10:31:40.823,-0.01,0.024,1.014
2026/05/14 10:31:40.842,-0.011,0.026,1.015
2026/05/14 10:31:40.862,-0.012,0.027,1.017
2026/05/14 10:31:40.882,-0.007,0.027,1.015
2026/05/14 10:31:40.901,-0.01,0.027,1.016
2026/05/14 10:31:40.921,-0.01,0.025,1.017
2026/05/14 10:31:40.941,-0.012,0.026,1.012
2026/05/14 10:31:40.960,-0.009,0.02,1.015
2026/05/14 10:31:40.980,-0.018,0.027,1.013
2026/05/14 10:31:41.000,-0.006,0.026,1.017
2026/05/14 10:31:41.019,-0.011,0.026,1.012
2026/05/14 10:31:41.039,-0.013,0.027,1.014
2026/05/14 10:31:41.059,-0.013,0.029,1.015
2026/05/14 10:31:41.078,-0.009,0.023,1.014
2026/05/14 10:31:41.098,-0.011,0.028,1.016
2026/05/14 10:31:41.118,-0.011,0.028,1.018
2026/05/14 10:31:41.137,-0.01,0.027,1.016
2026/05/14 10:31:41.157,-0.011,0.025,1.011
2026/05/14 10:31:41.177,-0.012,0.026,1.014
2026/05/14 10:31:41.196,-0.009,0.026,1.016
2026/05/14 10:31:41.216,-0.008,0.024,1.019
2026/05/14 10:31:41.236,-0.013,0.026,1.011
2026/05/14 10:31:41.255,-0.012,0.027,1.012
2026/05/14 10:31:41.275,-0.011,0.029,1.016
2026/05/14 10:31:41.295,-0.016,0.03,1.017
2026/05/14 10:31:41.315,-0.012,0.028,1.013
2026/05/14 10:31:41.334,-0.015,0.026,1.015
2026/05/14 10:31:41.354,-0.007,0.029,1.017
2026/05/14 10:31:41.374,-0.011,0.031,1.015
2026/05/14 10:31:41.393,-0.013,0.027,1.016
2026/05/14 10:31:41.413,-0.011,0.026,1.015
2026/05/14 10:31:41.433,-0.01,0.027,1.015
2026/05/14 10:31:41.452,-0.01,0.026,1.013
2026/05/14 10:31:41.472,-0.013,0.025,1.015
2026/05/14 10:31:41.492,-0.008,0.027,1.009
2026/05/14 10:31:41.511,-0.012,0.023,1.015
2026/05/14 10:31:41.531,-0.014,0.023,1.02
2026/05/14 10:31:41.551,-0.012,0.027,1.016
2026/05/14 10:31:41.570,-0.013,0.022,1.019
2026/05/14 10:31:41.590,-0.011,0.028,1.018
2026/05/14 10:31:41.610,-0.008,0.023,1.017
2026/05/14 10:31:41.629,-0.011,0.027,1.016
2026/05/14 10:31:41.649,-0.01,0.029,1.013
2026/05/14 10:31:41.669,-0.011,0.025,1.014
2026/05/14 10:31:41.688,-0.011,0.023,1.016
2026/05/14 10:31:41.708,-0.011,0.029,1.015
2026/05/14 10:31:41.728,-0.012,0.026,1.017
2026/05/14 10:31:41.748,-0.012,0.024,1.017
2026/05/14 10:31:41.767,-0.012,0.028,1.019
2026/05/14 10:31:41.787,-0.009,0.024,1.017
2026/05/14 10:31:41.807,-0.01,0.024,1.019
2026/05/14 10:31:41.826,-0.009,0.03,1.015
2026/05/14 10:31:41.846,-0.01,0.029,1.014
2026/05/14 10:31:41.866,-0.01,0.024,1.017
2026/05/14 10:31:41.885,-0.01,0.022,1.019
2026/05/14 10:31:41.905,-0.01,0.027,1.012
2026/05/14 10:31:41.925,-0.012,0.028,1.021
2026/05/14 10:31:41.944,-0.009,0.023,1.018
2026/05/14 10:31:41.964,-0.015,0.028,1.016
2026/05/14 10:31:41.984,-0.006,0.025,1.016
2026/05/14 10:31:42.003,-0.01,0.027,1.015
2026/05/14 10:31:42.023,-0.01,0.027,1.013
2026/05/14 10:31:42.043,-0.011,0.024,1.014
2026/05/14 10:31:42.062,-0.011,0.023,1.018
2026/05/14 10:31:42.082,-0.01,0.024,1.012
2026/05/14 10:31:42.102,-0.011,0.027,1.019
2026/05/14 10:31:42.121,-0.009,0.026,1.017
2026/05/14 10:31:42.141,-0.011,0.026,1.015
2026/05/14 10:31:42.161,-0.014,0.026,1.018
2026/05/14 10:31:42.181,-0.012,0.025,1.019
2026/05/14 10:31:42.200,-0.012,0.026,1.018
2026/05/14 10:31:42.220,-0.01,0.024,1.015
2026/05/14 10:31:42.240,-0.012,0.024,1.01
2026/05/14 10:31:42.259,-0.012,0.021,1.014
2026/05/14 10:31:42.279,-0.012,0.027,1.014
2026/05/14 10:31:42.299,-0.012,0.028,1.017
2026/05/14 10:31:42.318,-0.008,0.028,1.015
2026/05/14 10:31:42.338,-0.013,0.025,1.022
2026/05/14 10:31:42.358,-0.011,0.029,1.016
2026/05/14 10:31:42.377,-0.012,0.026,1.014
2026/05/14 10:31:42.397,-0.008,0.022,1.018
2026/05/14 10:31:42.417,-0.01,0.027,1.019
2026/05/14 10:31:42.436,-0.009,0.022,1.016
2026/05/14 10:31:42.456,-0.007,0.024,1.009
2026/05/14 10:31:42.476,-0.016,0.024,1.024
2026/05/14 10:31:42.495,-0.008,0.026,1.014
2026/05/14 10:31:42.515,-0.011,0.026,1.017
2026/05/14 10:31:42.535,-0.011,0.028,1.012
2026/05/14 10:31:42.554,-0.01,0.023,1.015
2026/05/14 10:31:42.574,-0.01,0.026,1.015
2026/05/14 10:31:42.594,-0.008,0.028,1.01
2026/05/14 10:31:42.613,-0.01,0.028,1.017
2026/05/14 10:31:42.633,-0.011,0.024,1.015
2026/05/14 10:31:42.653,-0.011,0.026,1.023
2026/05/14 10:31:42.673,-0.016,0.023,1.011
2026/05/14 10:31:42.692,-0.013,0.025,1.014
2026/05/14 10:31:42.712,-0.012,0.025,1.017
2026/05/14 10:31:42.732,-0.011,0.027,1.015
2026/05/14 10:31:42.751,-0.009,0.026,1.016
2026/05/14 10:31:42.771,-0.008,0.027,1.018
2026/05/14 10:31:42.791,-0.01,0.024,1.011
2026/05/14 10:31:42.810,-0.01,0.027,1.018
2026/05/14 10:31:42.830,-0.009,0.028,1.012
2026/05/14 10:31:42.850,-0.016,0.023,1.017
2026/05/14 10:31:42.869,-0.01,0.028,1.019
2026/05/14 10:31:42.889,-0.013,0.026,1.015
2026/05/14 10:31:42.909,-0.009,0.027,1.022
2026/05/14 10:31:42.928,-0.01,0.028,1.014
2026/05/14 10:31:42.948,-0.011,0.022,1.016
2026/05/14 10:31:42.968,-0.007,0.026,1.017
2026/05/14 10:31:42.987,-0.011,0.029,1.014
2026/05/14 10:31:43.007,-0.01,0.027,1.015
2026/05/14 10:31:43.027,-0.01,0.028,1.015
2026/05/14 10:31:43.046,-0.01,0.024,1.016
2026/05/14 10:31:43.066,-0.014,0.026,1.018
2026/05/14 10:31:43.086,-0.011,0.028,1.016
2026/05/14 10:31:43.106,-0.012,0.025,1.013
2026/05/14 10:31:43.125,-0.005,0.026,1.017
2026/05/14 10:31:43.145,-0.012,0.028,1.02
2026/05/14 10:31:43.165,-0.011,0.03,1.01
2026/05/14 10:31:43.184,-0.012,0.023,1.009
2026/05/14 10:31:43.204,-0.013,0.025,1.014
2026/05/14 10:31:43.224,-0.01,0.024,1.014
2026/05/14 10:31:43.243,-0.007,0.026,1.017
2026/05/14 10:31:43.263,-0.013,0.027,1.015
2026/05/14 10:31:43.283,-0.01,0.022,1.01
2026/05/14 10:31:43.302,-0.012,0.024,1.018
2026/05/14 10:31:43.322,-0.012,0.029,1.011
2026/05/14 10:31:43.342,-0.006,0.027,1.014
2026/05/14 10:31:43.361,-0.009,0.026,1.013
2026/05/14 10:31:43.381,-0.012,0.028,1.016
2026/05/14 10:31:43.401,-0.009,0.028,1.017
2026/05/14 10:31:43.420,-0.011,0.025,1.012
2026/05/14 10:31:43.440,-0.015,0.025,1.016
2026/05/14 10:31:43.460,-0.01,0.023,1.017
2026/05/14 10:31:43.479,-0.009,0.023,1.018
2026/05/14 10:31:43.499,-0.011,0.026,1.016
2026/05/14 10:31:43.519,-0.01,0.027,1.015
2026/05/14 10:31:43.539,-0.013,0.026,1.017
2026/05/14 10:31:43.558,-0.011,0.022,1.017
2026/05/14 10:31:43.578,-0.009,0.025,1.015
2026/05/14 10:31:43.598,-0.014,0.025,1.022
2026/05/14 10:31:43.617,-0.011,0.021,1.011
2026/05/14 10:31:43.637,-0.011,0.023,1.015
2026/05/14 10:31:43.657,-0.012,0.025,1.017
2026/05/14 10:31:43.676,-0.011,0.023,1.016
2026/05/14 10:31:43.696,-0.009,0.025,1.014
2026/05/14 10:31:43.716,-0.009,0.024,1.016
2026/05/14 10:31:43.735,-0.01,0.026,1.018
2026/05/14 10:31:43.755,-0.011,0.023,1.014
2026/05/14 10:31:43.775,-0.011,0.027,1.016
2026/05/14 10:31:43.794,-0.006,0.024,1.017
2026/05/14 10:31:43.814,-0.011,0.024,1.018
2026/05/14 10:31:43.834,-0.011,0.026,1.014
2026/05/14 10:31:43.853,-0.011,0.027,1.014
2026/05/14 10:31:43.873,-0.01,0.023,1.018
2026/05/14 10:31:43.893,-0.011,0.022,1.018
2026/05/14 10:31:43.912,-0.01,0.028,1.015
2026/05/14 10:31:43.932,-0.009,0.029,1.014
2026/05/14 10:31:43.952,-0.013,0.026,1.015
2026/05/14 10:31:43.971,-0.01,0.029,1.012
2026/05/14 10:31:43.991,-0.011,0.028,1.012
2026/05/14 10:31:44.011,-0.011,0.022,1.016
2026/05/14 10:31:44.031,-0.01,0.028,1.014
2026/05/14 10:31:44.050,-0.014,0.024,1.015
2026/05/14 10:31:44.070,-0.01,0.025,1.018
2026/05/14 10:31:44.090,-0.011,0.029,1.016
2026/05/14 10:31:44.109,-0.008,0.029,1.017
2026/05/14 10:31:44.129,-0.011,0.025,1.014
2026/05/14 10:31:44.149,-0.01,0.024,1.015
2026/05/14 10:31:44.168,-0.012,0.023,1.016
2026/05/14 10:31:44.188,-0.009,0.027,1.014
2026/05/14 10:31:44.208,-0.015,0.031,1.017
2026/05/14 10:31:44.227,-0.009,0.03,1.012
2026/05/14 10:31:44.247,-0.012,0.027,1.016
2026/05/14 10:31:44.267,-0.007,0.022,1.014
2026/05/14 10:31:44.286,-0.008,0.028,1.014
2026/05/14 10:31:44.306,-0.011,0.024,1.016
2026/05/14 10:31:44.326,-0.009,0.024,1.015
2026/05/14 10:31:44.345,-0.008,0.027,1.017
2026/05/14 10:31:44.365,-0.009,0.027,1.015
2026/05/14 10:31:44.385,-0.01,0.026,1.012
2026/05/14 10:31:44.404,-0.01,0.028,1.015
2026/05/14 10:31:44.424,-0.009,0.026,1.019
2026/05/14 10:31:44.444,-0.012,0.025,1.016
2026/05/14 10:31:44.464,-0.011,0.024,1.016
2026/05/14 10:31:44.483,-0.008,0.028,1.015
2026/05/14 10:31:44.503,-0.01,0.026,1.012
2026/05/14 10:31:44.523,-0.01,0.028,1.02
2026/05/14 10:31:44.542,-0.006,0.026,1.016
2026/05/14 10:31:44.562,-0.015,0.023,1.015
2026/05/14 10:31:44.582,-0.009,0.023,1.015
2026/05/14 10:31:44.601,-0.008,0.025,1.013
2026/05/14 10:31:44.621,-0.014,0.026,1.02
2026/05/14 10:31:44.641,-0.014,0.026,1.02
2026/05/14 10:31:44.660,-0.013,0.026,1.017
2026/05/14 10:31:44.680,-0.009,0.022,1.018
2026/05/14 10:31:44.700,-0.01,0.026,1.016
2026/05/14 10:31:44.719,-0.01,0.026,1.017
2026/05/14 10:31:44.739,-0.014,0.03,1.016
2026/05/14 10:31:44.759,-0.01,0.027,1.014
2026/05/14 10:31:44.778,-0.01,0.025,1.015
2026/05/14 10:31:44.798,-0.01,0.026,1.013
2026/05/14 10:31:44.818,-0.008,0.024,1.012
2026/05/14 10:31:44.837,-0.013,0.025,1.014
2026/05/14 10:31:44.857,-0.009,0.024,1.014
2026/05/14 10:31:44.877,-0.009,0.023,1.016
2026/05/14 10:31:44.897,-0.011,0.025,1.014
2026/05/14 10:31:44.916,-0.009,0.027,1.016
2026/05/14 10:31:44.936,-0.013,0.026,1.019
2026/05/14 10:31:44.956,-0.008,0.028,1.013
2026/05/14 10:31:44.975,-0.011,0.031,1.014
2026/05/14 10:31:44.995,-0.009,0.029,1.018
2026/05/14 10:31:45.015,-0.011,0.029,1.019
2026/05/14 10:31:45.034,-0.008,0.023,1.012
2026/05/14 10:31:45.054,-0.012,0.028,1.015
2026/05/14 10:31:45.074,-0.01,0.024,1.015
2026/05/14 10:31:45.093,-0.01,0.025,1.016
2026/05/14 10:31:45.113,-0.011,0.021,1.015
2026/05/14 10:31:45.133,-0.012,0.025,1.013
2026/05/14 10:31:45.152,-0.012,0.024,1.015
2026/05/14 10:31:45.172,-0.009,0.027,1.019
2026/05/14 10:31:45.192,-0.011,0.026,1.013
2026/05/14 10:31:45.211,-0.009,0.028,1.017
2026/05/14 10:31:45.231,-0.006,0.023,1.018
2026/05/14 10:31:45.251,-0.01,0.026,1.016
2026/05/14 10:31:45.270,-0.006,0.026,1.018
2026/05/14 10:31:45.290,-0.008,0.028,1.014
2026/05/14 10:31:45.310,-0.008,0.028,1.016
2026/05/14 10:31:45.330,-0.009,0.026,1.016
2026/05/14 10:31:45.349,-0.009,0.027,1.018
2026/05/14 10:31:45.369,-0.011,0.024,1.017
2026/05/14 10:31:45.389,-0.014,0.025,1.017
2026/05/14 10:31:45.408,-0.008,0.024,1.019
2026/05/14 10:31:45.428,-0.013,0.024,1.017
2026/05/14 10:31:45.448,-0.01,0.027,1.018
2026/05/14 10:31:45.467,-0.006,0.03,1.014
2026/05/14 10:31:45.487,-0.012,0.026,1.013
2026/05/14 10:31:45.507,-0.012,0.023,1.016
2026/05/14 10:31:45.526,-0.012,0.028,1.014
2026/05/14 10:31:45.546,-0.012,0.024,1.012
2026/05/14 10:31:45.566,-0.014,0.027,1.014
2026/05/14 10:31:45.585,-0.011,0.025,1.019
2026/05/14 10:31:45.605,-0.012,0.025,1.018
2026/05/14 10:31:45.625,-0.013,0.024,1.016
2026/05/14 10:31:45.644,-0.014,0.023,1.015
2026/05/14 10:31:45.664,-0.011,0.024,1.014
2026/05/14 10:31:45.684,-0.01,0.023,1.014
2026/05/14 10:31:45.703,-0.006,0.024,1.02
2026/05/14 10:31:45.723,-0.013,0.021,1.015
2026/05/14 10:31:45.743,-0.008,0.02,1.013
2026/05/14 10:31:45.762,-0.01,0.025,1.015
2026/05/14 10:31:45.782,-0.007,0.026,1.015
2026/05/14 10:31:45.802,-0.009,0.023,1.017
2026/05/14 10:31:45.822,-0.01,0.023,1.015
2026/05/14 10:31:45.841,-0.011,0.025,1.013
2026/05/14 10:31:45.861,-0.013,0.026,1.019
2026/05/14 10:31:45.881,-0.01,0.029,1.019
2026/05/14 10:31:45.900,-0.013,0.03,1.015
2026/05/14 10:31:45.920,-0.009,0.03,1.017
2026/05/14 10:31:45.940,-0.008,0.028,1.017
2026/05/14 10:31:45.959,-0.009,0.027,1.013
2026/05/14 10:31:45.979,-0.009,0.024,1.014
2026/05/14 10:31:45.999,-0.009,0.028,1.015
2026/05/14 10:31:46.018,-0.014,0.028,1.016
2026/05/14 10:31:46.038,-0.013,0.025,1.017
2026/05/14 10:31:46.058,-0.009,0.024,1.019
2026/05/14 10:31:46.077,-0.009,0.026,1.015
2026/05/14 10:31:46.097,-0.011,0.024,1.016
2026/05/14 10:31:46.117,-0.01,0.023,1.02
2026/05/14 10:31:46.136,-0.008,0.029,1.019
2026/05/14 10:31:46.156,-0.014,0.022,1.016
2026/05/14 10:31:46.176,-0.011,0.026,1.016
2026/05/14 10:31:46.195,-0.013,0.026,1.015
2026/05/14 10:31:46.215,-0.012,0.025,1.019
2026/05/14 10:31:46.235,-0.011,0.026,1.015
2026/05/14 10:31:46.255,-0.011,0.025,1.014
2026/05/14 10:31:46.274,-0.009,0.025,1.018
2026/05/14 10:31:46.294,-0.008,0.029,1.015
2026/05/14 10:31:46.314,-0.01,0.024,1.016
2026/05/14 10:31:46.333,-0.013,0.023,1.014
2026/05/14 10:31:46.353,-0.01,0.024,1.018
2026/05/14 10:31:46.373,-0.011,0.023,1.015
2026/05/14 10:31:46.392,-0.014,0.025,1.014
2026/05/14 10:31:46.412,-0.011,0.025,1.017
2026/05/14 10:31:46.432,-0.011,0.027,1.014
2026/05/14 10:31:46.451,-0.011,0.023,1.014
2026/05/14 10:31:46.471,-0.012,0.024,1.018
2026/05/14 10:31:46.491,-0.011,0.024,1.011
2026/05/14 10:31:46.510,-0.012,0.029,1.019
2026/05/14 10:31:46.530,-0.01,0.023,1.018
2026/05/14 10:31:46.550,-0.011,0.029,1.017
2026/05/14 10:31:46.569,-0.012,0.026,1.015
2026/05/14 10:31:46.589,-0.009,0.024,1.013
2026/05/14 10:31:46.609,-0.01,0.021,1.016
2026/05/14 10:31:46.628,-0.008,0.024,1.016
2026/05/14 10:31:46.648,-0.011,0.026,1.02
2026/05/14 10:31:46.668,-0.01,0.023,1.015
2026/05/14 10:31:46.688,-0.008,0.026,1.017
2026/05/14 10:31:46.707,-0.011,0.022,1.016
2026/05/14 10:31:46.727,-0.008,0.027,1.014
2026/05/14 10:31:46.747,-0.012,0.028,1.018
2026/05/14 10:31:46.766,-0.008,0.025,1.018
2026/05/14 10:31:46.786,-0.01,0.026,1.017
2026/05/14 10:31:46.806,-0.008,0.028,1.014
2026/05/14 10:31:46.825,-0.011,0.022,1.016
2026/05/14 10:31:46.845,-0.012,0.027,1.015
2026/05/14 10:31:46.865,-0.009,0.024,1.015
2026/05/14 10:31:46.884,-0.012,0.024,1.014
2026/05/14 10:31:46.904,-0.011,0.024,1.018
2026/05/14 10:31:46.924,-0.01,0.025,1.015
2026/05/14 10:31:46.943,-0.012,0.027,1.018
2026/05/14 10:31:46.963,-0.009,0.027,1.02
2026/05/14 10:31:46.983,-0.012,0.026,1.015
2026/05/14 10:31:47.002,-0.014,0.028,1.017
2026/05/14 10:31:47.022,-0.006,0.025,1.016
2026/05/14 10:31:47.042,-0.008,0.027,1.016
