Timestamp,ACC X,ACC Y,ACC Z
2026/05/14 10:32:00.507,-0.019,0.055,1.005
2026/05/14 10:32:00.527,-0.015,0.06,1.006
2026/05/14 10:32:00.546,-0.016,0.058,1.006
2026/05/14 10:32:00.565,-0.018,0.055,1.006
2026/05/14 10:32:00.584,-0.017,0.057,1.004
2026/05/14 10:32:00.604,-0.013,0.06,1.007
2026/05/14 10:32:00.623,-0.018,0.057,1.003
2026/05/14 10:32:00.642,-0.011,0.054,1.002
2026/05/14 10:32:00.661,-0.016,0.054,1.009
2026/05/14 10:32:00.680,-0.018,0.052,1.004
2026/05/14 10:32:00.700,-0.014,0.054,1.005
2026/05/14 10:32:00.719,-0.016,0.052,1.006
2026/05/14 10:32:00.738,-0.018,0.056,1.003
2026/05/14 10:32:00.757,-0.017,0.056,1.001
2026/05/14 10:32:00.777,-0.013,0.053,1.007
2026/05/14 10:32:00.796,-0.015,0.053,1.011
2026/05/14 10:32:00.815,-0.015,0.052,1.007
2026/05/14 10:32:00.834,-0.013,0.057,1.005
2026/05/14 10:32:00.854,-0.015,0.054,1.004
2026/05/14 10:32:00.873,-0.012,0.057,1.0
2026/05/14 10:32:00.892,-0.013,0.056,1.007
2026/05/14 10:32:00.911,-0.017,0.059,1.006
2026/05/14 10:32:00.930,-0.014,0.058,1.008
2026/05/14 10:32:00.950,-0.013,0.051,1.006
2026/05/14 10:32:00.969,-0.015,0.054,1.003
2026/05/14 10:32:00.988,-0.02,0.057,1.002
2026/05/14 10:32:01.007,-0.019,0.056,1.004
2026/05/14 10:32:01.027,-0.019,0.059,1.006
2026/05/14 10:32:01.046,-0.017,0.055,1.004
2026/05/14 10:32:01.065,-0.019,0.054,1.002
2026/05/14 10:32:01.084,-0.016,0.056,1.005
2026/05/14 10:32:01.104,-0.014,0.055,1.005
2026/05/14 10:32:01.123,-0.015,0.055,1.003
2026/05/14 10:32:01.142,-0.016,0.058,1.001
2026/05/14 10:32:01.161,-0.017,0.056,1.003
2026/05/14 10:32:01.180,-0.013,0.06,1.005
2026/05/14 10:32:01.200,-0.014,0.058,1.006
2026/05/14 10:32:01.219,-0.013,0.057,1.004
2026/05/14 10:32:01.238,-0.012,0.054,1.009
2026/05/14 10:32:01.257,-0.019,0.056,1.003
2026/05/14 10:32:01.277,-0.015,0.054,1.008
2026/05/14 10:32:01.296,-0.02,0.055,1.005
2026/05/14 10:32:01.315,-0.014,0.054,1.007
2026/05/14 10:32:01.334,-0.018,0.054,1.001
2026/05/14 10:32:01.354,-0.017,0.054,1.007
2026/05/14 10:32:01.373,-0.017,0.056,1.001
2026/05/14 10:32:01.392,-0.019,0.053,1.007
2026/05/14 10:32:01.411,-0.016,0.058,1.003
2026/05/14 10:32:01.430,-0.012,0.056,1.003
2026/05/14 10:32:01.450,-0.014,0.055,1.004
2026/05/14 10:32:01.469,-0.016,0.051,1.0
2026/05/14 10:32:01.488,-0.018,0.055,1.009
2026/05/14 10:32:01.507,-0.015,0.057,1.005
2026/05/14 10:32:01.527,-0.015,0.057,1.006
2026/05/14 10:32:01.546,-0.017,0.061,1.005
2026/05/14 10:32:01.565,-0.013,0.057,1.009
2026/05/14 10:32:01.584,-0.013,0.059,1.001
2026/05/14 10:32:01.604,-0.014,0.056,1.002
2026/05/14 10:32:01.623,-0.017,0.058,1.002
2026/05/14 10:32:01.642,-0.018,0.055,1.004
2026/05/14 10:32:01.661,-0.014,0.059,1.008
2026/05/14 10:32:01.680,-0.016,0.054,1.005
2026/05/14 10:32:01.700,-0.013,0.058,1.003
2026/05/14 10:32:01.719,-0.018,0.053,1.004
2026/05/14 10:32:01.738,-0.015,0.053,1.007
2026/05/14 10:32:01.757,-0.014,0.055,1.007
2026/05/14 10:32:01.777,-0.015,0.055,1.003
2026/05/14 10:32:01.796,-0.012,0.056,1.005
2026/05/14 10:32:01.815,-0.012,0.053,1.005
2026/05/14 10:32:01.834,-0.018,0.056,1.004
2026/05/14 10:32:01.854,-0.019,0.057,1.006
2026/05/14 10:32:01.873,-0.019,0.056,1.003
2026/05/14 10:32:01.892,-0.012,0.059,1.001
2026/05/14 10:32:01.911,-0.015,0.058,1.002
2026/05/14 10:32:01.930,-0.015,0.055,1.005
2026/05/14 10:32:01.950,-0.021,0.053,1.008
2026/05/14 10:32:01.969,-0.013,0.058,1.004
2026/05/14 10:32:01.988,-0.015,0.053,1.009
2026/05/14 10:32:02.007,-0.017,0.054,1.005
2026/05/14 10:32:02.027,-0.021,0.061,1.002
2026/05/14 10:32:02.046,-0.012,0.06,1.005
2026/05/14 10:32:02.065,-0.015,0.057,1.005
2026/05/14 10:32:02.084,-0.014,0.06,1.0
2026/05/14 10:32:02.104,-0.011,0.057,1.0
2026/05/14 10:32:02.123,-0.011,0.058,1.006
2026/05/14 10:32:02.142,-0.016,0.054,1.007
2026/05/14 10:32:02.161,-0.016,0.053,1.004
2026/05/14 10:32:02.180,-0.019,0.056,1.004
2026/05/14 10:32:02.200,-0.017,0.051,1.004
2026/05/14 10:32:02.219,-0.017,0.057,1.008
2026/05/14 10:32:02.238,-0.018,0.053,0.999
2026/05/14 10:32:02.257,-0.02,0.058,1.01
2026/05/14 10:32:02.277,-0.014,0.055,1.005
2026/05/14 10:32:02.296,-0.019,0.056,1.0
2026/05/14 10:32:02.315,-0.013,0.056,0.999
2026/05/14 10:32:02.334,-0.018,0.052,1.007
2026/05/14 10:32:02.354,-0.017,0.057,1.003
2026/05/14 10:32:02.373,-0.018,0.059,1.005
2026/05/14 10:32:02.392,-0.014,0.053,1.009
2026/05/14 10:32:02.411,-0.013,0.056,1.004
2026/05/14 10:32:02.430,-0.02,0.054,1.008
2026/05/14 10:32:02.450,-0.017,0.056,1.004
2026/05/14 10:32:02.469,-0.013,0.055,1.005
2026/05/14 10:32:02.488,-0.014,0.058,1.003
2026/05/14 10:32:02.507,-0.018,0.057,1.009
2026/05/14 10:32:02.527,-0.014,0.055,1.005
2026/05/14 10:32:02.546,-0.017,0.053,1.006
2026/05/14 10:32:02.565,-0.016,0.058,1.006
2026/05/14 10:32:02.584,-0.016,0.057,1.005
2026/05/14 10:32:02.604,-0.016,0.053,1.008
2026/05/14 10:32:02.623,-0.019,0.05,1.001
2026/05/14 10:32:02.642,-0.018,0.055,1.003
2026/05/14 10:32:02.661,-0.019,0.054,1.001
2026/05/14 10:32:02.680,-0.015,0.054,1.001
2026/05/14 10:32:02.700,-0.016,0.055,1.007
2026/05/14 10:32:02.719,-0.018,0.055,1.005
2026/05/14 10:32:02.738,-0.016,0.059,1.004
2026/05/14 10:32:02.757,-0.023,0.057,1.001
2026/05/14 10:32:02.777,-0.016,0.056,1.005
2026/05/14 10:32:02.796,-0.016,0.055,1.002
2026/05/14 10:32:02.815,-0.016,0.056,1.004
2026/05/14 10:32:02.834,-0.014,0.057,1.007
2026/05/14 10:32:02.854,-0.014,0.058,1.003
2026/05/14 10:32:02.873,-0.016,0.052,1.007
2026/05/14 10:32:02.892,-0.015,0.053,0.999
2026/05/14 10:32:02.911,-0.016,0.055,1.002
2026/05/14 10:32:02.930,-0.018,0.053,1.002
2026/05/14 10:32:02.950,-0.015,0.059,1.006
2026/05/14 10:32:02.969,-0.015,0.056,1.005
2026/05/14 10:32:02.988,-0.018,0.058,1.004
2026/05/14 10:32:03.007,-0.016,0.056,1.007
2026/05/14 10:32:03.027,-0.017,0.055,1.008
2026/05/14 10:32:03.046,-0.018,0.052,1.004
2026/05/14 10:32:03.065,-0.016,0.053,1.005
2026/05/14 10:32:03.084,-0.013,0.056,1.005
2026/05/14 10:32:03.104,-0.017,0.055,1.006
2026/05/14 10:32:03.123,-0.017,0.055,1.006
2026/05/14 10:32:03.142,-0.013,0.056,1.007
2026/05/14 10:32:03.161,-0.015,0.052,1.007
2026/05/14 10:32:03.179,-0.017,0.053,1.01
2026/05/14 10:32:03.198,-0.015,0.058,1.006
2026/05/14 10:32:03.216,-0.02,0.057,1.007
2026/05/14 10:32:03.235,-0.012,0.057,1.005
2026/05/14 10:32:03.253,-0.017,0.055,1.004
2026/05/14 10:32:03.272,-0.015,0.055,1.008
2026/05/14 10:32:03.290,-0.014,0.055,1.006
2026/05/14 10:32:03.309,-0.016,0.057,1.008
2026/05/14 10:32:03.327,-0.014,0.054,1.003
2026/05/14 10:32:03.346,-0.018,0.055,1.006
2026/05/14 10:32:03.365,-0.012,0.055,1.004
2026/05/14 10:32:03.383,-0.018,0.058,1.004
2026/05/14 10:32:03.402,-0.016,0.052,1.011
2026/05/14 10:32:03.420,-0.018,0.054,1.004
2026/05/14 10:32:03.439,-0.022,0.055,1.005
2026/05/14 10:32:03.457,-0.017,0.058,1.003
2026/05/14 10:32:03.476,-0.013,0.055,1.004
2026/05/14 10:32:03.494,-0.016,0.053,1.008
2026/05/14 10:32:03.513,-0.016,0.055,1.006
2026/05/14 10:32:03.531,-0.015,0.052,1.01
2026/05/14 10:32:03.550,-0.016,0.056,1.004
2026/05/14 10:32:03.569,-0.014,0.054,1.0
2026/05/14 10:32:03.587,-0.018,0.057,1.005
2026/05/14 10:32:03.606,-0.014,0.052,1.001
2026/05/14 10:32:03.624,-0.013,0.054,1.002
2026/05/14 10:32:03.643,-0.013,0.056,1.003
2026/05/14 10:32:03.661,-0.017,0.052,1.007
2026/05/14 10:32:03.680,-0.016,0.054,1.003
2026/05/14 10:32:03.698,-0.013,0.055,1.008
2026/05/14 10:32:03.717,-0.014,0.06,1.004
2026/05/14 10:32:03.735,-0.017,0.054,1.007
2026/05/14 10:32:03.754,-0.02,0.056,1.006
2026/05/14 10:32:03.772,-0.016,0.055,1.009
2026/05/14 10:32:03.791,-0.014,0.058,1.0
2026/05/14 10:32:03.810,-0.013,0.052,1.002
2026/05/14 10:32:03.828,-0.02,0.057,1.006
2026/05/14 10:32:03.847,-0.014,0.056,1.004
2026/05/14 10:32:03.865,-0.014,0.054,1.003
2026/05/14 10:32:03.884,-0.011,0.054,1.001
2026/05/14 10:32:03.902,-0.016,0.054,1.004
2026/05/14 10:32:03.921,-0.012,0.053,1.006
2026/05/14 10:32:03.939,-0.015,0.055,1.004
2026/05/14 10:32:03.958,-0.016,0.054,1.002
2026/05/14 10:32:03.976,-0.018,0.058,1.001
2026/05/14 10:32:03.995,-0.016,0.053,1.003
2026/05/14 10:32:04.014,-0.016,0.061,1.005
2026/05/14 10:32:04.032,-0.018,0.054,1.0
2026/05/14 10:32:04.051,-0.014,0.058,1.005
2026/05/14 10:32:04.069,-0.016,0.055,1.002
2026/05/14 10:32:04.088,-0.013,0.055,1.003
2026/05/14 10:32:04.106,-0.016,0.057,1.008
2026/05/14 10:32:04.125,-0.016,0.055,1.003
2026/05/14 10:32:04.143,-0.014,0.056,1.007
2026/05/14 10:32:04.162,-0.017,0.052,1.003
2026/05/14 10:32:04.180,-0.017,0.061,1.003
2026/05/14 10:32:04.199,-0.018,0.05,1.001
2026/05/14 10:32:04.218,-0.018,0.055,1.004
2026/05/14 10:32:04.236,-0.02,0.057,1.007
2026/05/14 10:32:04.255,-0.018,0.054,1.005
2026/05/14 10:32:04.273,-0.015,0.051,1.006
2026/05/14 10:32:04.292,-0.013,0.056,1.004
2026/05/14 10:32:04.310,-0.015,0.052,1.003
2026/05/14 10:32:04.329,-0.015,0.052,1.004
2026/05/14 10:32:04.347,-0.013,0.055,1.001
2026/05/14 10:32:04.366,-0.012,0.055,1.008
2026/05/14 10:32:04.384,-0.019,0.06,1.004
2026/05/14 10:32:04.403,-0.016,0.056,1.007
2026/05/14 10:32:04.421,-0.018,0.057,1.008
2026/05/14 10:32:04.440,-0.016,0.055,1.005
2026/05/14 10:32:04.459,-0.014,0.058,1.005
2026/05/14 10:32:04.477,-0.019,0.054,1.007
2026/05/14 10:32:04.496,-0.01,0.052,1.003
2026/05/14 10:32:04.514,-0.014,0.053,1.005
2026/05/14 10:32:04.533,-0.02,0.057,1.006
2026/05/14 10:32:04.551,-0.014,0.058,1.005
2026/05/14 10:32:04.570,-0.017,0.057,1.005
2026/05/14 10:32:04.588,-0.013,0.056,1.007
2026/05/14 10:32:04.607,-0.014,0.056,1.001
2026/05/14 10:32:04.625,-0.019,0.054,1.001
2026/05/14 10:32:04.644,-0.017,0.055,1.004
2026/05/14 10:32:04.663,-0.011,0.054,1.006
2026/05/14 10:32:04.681,-0.017,0.057,1.003
2026/05/14 10:32:04.700,-0.014,0.056,1.002
2026/05/14 10:32:04.718,-0.012,0.055,1.006
2026/05/14 10:32:04.737,-0.015,0.058,1.005
2026/05/14 10:32:04.755,-0.016,0.055,1.001
2026/05/14 10:32:04.774,-0.018,0.057,1.005
2026/05/14 10:32:04.792,-0.011,0.054,1.004
2026/05/14 10:32:04.811,-0.013,0.058,1.005
2026/05/14 10:32:04.829,-0.018,0.052,1.005
2026/05/14 10:32:04.848,-0.012,0.054,1.01
2026/05/14 10:32:04.867,-0.014,0.06,1.006
2026/05/14 10:32:04.885,-0.014,0.055,1.003
2026/05/14 10:32:04.904,-0.014,0.056,1.006
2026/05/14 10:32:04.922,-0.018,0.056,1.002
2026/05/14 10:32:04.941,-0.011,0.052,1.003
2026/05/14 10:32:04.959,-0.013,0.057,1.002
2026/05/14 10:32:04.978,-0.017,0.05,1.002
2026/05/14 10:32:04.996,-0.016,0.058,1.002
2026/05/14 10:32:05.015,-0.012,0.055,1.004
2026/05/14 10:32:05.033,-0.017,0.055,1.005
2026/05/14 10:32:05.052,-0.013,0.054,1.006
2026/05/14 10:32:05.070,-0.016,0.055,1.004
2026/05/14 10:32:05.089,-0.018,0.058,1.003
2026/05/14 10:32:05.108,-0.015,0.054,1.004
2026/05/14 10:32:05.126,-0.014,0.053,1.005
2026/05/14 10:32:05.145,-0.016,0.056,1.004
2026/05/14 10:32:05.163,-0.01,0.052,1.003
2026/05/14 10:32:05.182,-0.016,0.053,1.002
2026/05/14 10:32:05.200,-0.015,0.056,1.005
2026/05/14 10:32:05.219,-0.018,0.054,1.008
2026/05/14 10:32:05.237,-0.013,0.056,1.004
2026/05/14 10:32:05.256,-0.016,0.057,1.003
2026/05/14 10:32:05.274,-0.016,0.058,1.007
2026/05/14 10:32:05.293,-0.018,0.06,1.002
2026/05/14 10:32:05.312,-0.014,0.054,1.005
2026/05/14 10:32:05.330,-0.015,0.057,1.003
2026/05/14 10:32:05.349,-0.014,0.055,1.01
2026/05/14 10:32:05.367,-0.012,0.051,1.002
2026/05/14 10:32:05.386,-0.016,0.054,1.003
2026/05/14 10:32:05.404,-0.019,0.058,1.007
2026/05/14 10:32:05.423,-0.016,0.055,1.004
2026/05/14 10:32:05.441,-0.013,0.052,1.003
2026/05/14 10:32:05.460,-0.015,0.054,1.003
2026/05/14 10:32:05.478,-0.015,0.056,1.003
2026/05/14 10:32:05.497,-0.014,0.05,1.005
2026/05/14 10:32:05.516,-0.017,0.053,1.007
2026/05/14 10:32:05.534,-0.018,0.052,1.002
2026/05/14 10:32:05.553,-0.015,0.054,1.004
2026/05/14 10:32:05.571,-0.01,0.055,1.006
2026/05/14 10:32:05.590,-0.018,0.059,1.001
2026/05/14 10:32:05.608,-0.01,0.054,1.0
2026/05/14 10:32:05.627,-0.016,0.054,1.003
2026/05/14 10:32:05.645,-0.016,0.051,1.003
2026/05/14 10:32:05.664,-0.017,0.057,1.004
2026/05/14 10:32:05.682,-0.014,0.055,1.007
2026/05/14 10:32:05.701,-0.016,0.05,1.003
2026/05/14 10:32:05.720,-0.015,0.056,1.005
2026/05/14 10:32:05.738,-0.012,0.053,1.004
2026/05/14 10:32:05.757,-0.015,0.053,1.009
2026/05/14 10:32:05.775,-0.011,0.058,1.002
2026/05/14 10:32:05.794,-0.013,0.057,1.006
2026/05/14 10:32:05.812,-0.014,0.054,1.002
2026/05/14 10:32:05.831,-0.016,0.055,1.002
2026/05/14 10:32:05.849,-0.012,0.057,1.001
2026/05/14 10:32:05.868,-0.014,0.057,1.009
2026/05/14 10:32:05.886,-0.02,0.052,1.003
2026/05/14 10:32:05.905,-0.012,0.053,1.003
2026/05/14 10:32:05.923,-0.014,0.053,1.0
2026/05/14 10:32:05.942,-0.015,0.054,1.002
2026/05/14 10:32:05.961,-0.019,0.052,1.007
2026/05/14 10:32:05.979,-0.017,0.053,1.006
2026/05/14 10:32:05.998,-0.014,0.056,1.005
2026/05/14 10:32:06.016,-0.016,0.057,1.001
2026/05/14 10:32:06.035,-0.013,0.053,1.005
2026/05/14 10:32:06.053,-0.01,0.054,1.003
2026/05/14 10:32:06.072,-0.011,0.051,1.002
2026/05/14 10:32:06.090,-0.014,0.054,1.0
2026/05/14 10:32:06.109,-0.016,0.054,1.004
2026/05/14 10:32:06.127,-0.017,0.056,1.003
2026/05/14 10:32:06.146,-0.02,0.055,1.005
2026/05/14 10:32:06.165,-0.013,0.056,1.005
2026/05/14 10:32:06.183,-0.017,0.054,1.007
2026/05/14 10:32:06.202,-0.019,0.053,1.004
2026/05/14 10:32:06.220,-0.017,0.059,1.006
2026/05/14 10:32:06.239,-0.009,0.051,1.003
2026/05/14 10:32:06.257,-0.015,0.059,1.007
2026/05/14 10:32:06.276,-0.012,0.053,1.002
2026/05/14 10:32:06.294,-0.015,0.057,1.003
2026/05/14 10:32:06.313,-0.018,0.054,1.002
2026/05/14 10:32:06.331,-0.014,0.055,1.006
2026/05/14 10:32:06.350,-0.015,0.055,1.002
2026/05/14 10:32:06.369,-0.011,0.057,1.004
2026/05/14 10:32:06.387,-0.02,0.055,1.004
2026/05/14 10:32:06.406,-0.012,0.059,1.004
2026/05/14 10:32:06.424,-0.016,0.056,1.0
2026/05/14 10:32:06.443,-0.017,0.054,1.007
2026/05/14 10:32:06.461,-0.012,0.056,1.002
2026/05/14 10:32:06.480,-0.015,0.055,1.003
2026/05/14 10:32:06.498,-0.012,0.055,1.006
2026/05/14 10:32:06.517,-0.018,0.055,1.003
2026/05/14 10:32:06.535,-0.018,0.057,1.004
2026/05/14 10:32:06.554,-0.013,0.054,1.008
2026/05/14 10:32:06.573,-0.016,0.053,1.009
2026/05/14 10:32:06.591,-0.017,0.054,1.005
2026/05/14 10:32:06.610,-0.016,0.053,1.007
2026/05/14 10:32:06.628,-0.016,0.057,1.001
2026/05/14 10:32:06.647,-0.013,0.053,1.004
2026/05/14 10:32:06.665,-0.016,0.06,1.008
2026/05/14 10:32:06.684,-0.013,0.055,1.003
2026/05/14 10:32:06.702,-0.019,0.055,1.0
2026/05/14 10:32:06.721,-0.014,0.059,1.004
2026/05/14 10:32:06.739,-0.015,0.056,1.005
2026/05/14 10:32:06.758,-0.013,0.058,1.007
2026/05/14 10:32:06.777,-0.017,0.054,1.003
2026/05/14 10:32:06.795,-0.015,0.056,1.007
2026/05/14 10:32:06.814,-0.019,0.057,1.005
2026/05/14 10:32:06.832,-0.019,0.056,1.005
2026/05/14 10:32:06.851,-0.015,0.055,1.004
2026/05/14 10:32:06.869,-0.011,0.053,1.001
2026/05/14 10:32:06.888,-0.014,0.054,1.004
2026/05/14 10:32:06.906,-0.013,0.058,1.003
2026/05/14 10:32:06.925,-0.016,0.052,1.004
2026/05/14 10:32:06.943,-0.011,0.055,1.004
2026/05/14 10:32:06.962,-0.013,0.054,1.004
2026/05/14 10:32:06.981,-0.015,0.055,1.007
2026/05/14 10:32:06.999,-0.016,0.055,1.003
2026/05/14 10:32:07.018,-0.012,0.052,1.005
2026/05/14 10:32:07.036,-0.012,0.057,1.006
2026/05/14 10:32:07.055,-0.016,0.052,1.004
2026/05/14 10:32:07.073,-0.013,0.057,1.006
2026/05/14 10:32:07.092,-0.012,0.056,1.005
2026/05/14 10:32:07.110,-0.015,0.054,1.003
2026/05/14 10:32:07.129,-0.016,0.056,1.002
2026/05/14 10:32:07.147,-0.011,0.053,1.005
2026/05/14 10:32:07.166,-0.014,0.058,1.003
2026/05/14 10:32:07.185,-0.012,0.055,1.007
2026/05/14 10:32:07.203,-0.014,0.053,1.005
2026/05/14 10:32:07.222,-0.016,0.056,1.003
2026/05/14 10:32:07.240,-0.014,0.056,1.008
2026/05/14 10:32:07.259,-0.016,0.058,1.003
2026/05/14 10:32:07.277,-0.016,0.055,1.004
2026/05/14 10:32:07.296,-0.017,0.059,1.0
2026/05/14 10:32:07.314,-0.015,0.059,1.008
2026/05/14 10:32:07.333,-0.014,0.058,1.006
2026/05/14 10:32:07.351,-0.014,0.057,1.005
2026/05/14 10:32:07.370,-0.014,0.05,1.004
2026/05/14 10:32:07.389,-0.013,0.055,1.0
2026/05/14 10:32:07.407,-0.014,0.056,1.005
2026/05/14 10:32:07.426,-0.017,0.055,1.003
2026/05/14 10:32:07.444,-0.017,0.055,1.001
2026/05/14 10:32:07.463,-0.016,0.053,1.005
2026/05/14 10:32:07.481,-0.013,0.055,1.003
2026/05/14 10:32:07.500,-0.013,0.057,1.001
2026/05/14 10:32:07.518,-0.015,0.056,1.006
2026/05/14 10:32:07.537,-0.015,0.057,1.006
2026/05/14 10:32:07.555,-0.013,0.055,1.002
2026/05/14 10:32:07.574,-0.013,0.058,1.001
2026/05/14 10:32:07.592,-0.015,0.056,1.006
2026/05/14 10:32:07.611,-0.014,0.06,1.004
2026/05/14 10:32:07.630,-0.011,0.057,1.004
2026/05/14 10:32:07.648,-0.015,0.059,1.009
2026/05/14 10:32:07.667,-0.017,0.055,1.005
2026/05/14 10:32:07.685,-0.015,0.054,1.005
2026/05/14 10:32:07.704,-0.016,0.055,1.002
2026/05/14 10:32:07.722,-0.014,0.056,1.007
2026/05/14 10:32:07.741,-0.018,0.055,1.003
2026/05/14 10:32:07.759,-0.016,0.056,1.003
2026/05/14 10:32:07.778,-0.012,0.057,1.004
2026/05/14 10:32:07.796,-0.016,0.057,1.004
2026/05/14 10:32:07.815,-0.019,0.052,1.004
2026/05/14 10:32:07.834,-0.02,0.056,1.005
2026/05/14 10:32:07.852,-0.013,0.054,1.004
2026/05/14 10:32:07.871,-0.016,0.056,1.003
2026/05/14 10:32:07.889,-0.016,0.053,1.005
2026/05/14 10:32:07.908,-0.014,0.056,1.007
2026/05/14 10:32:07.926,-0.013,0.056,1.004
2026/05/14 10:32:07.945,-0.016,0.054,1.005
2026/05/14 10:32:07.963,-0.016,0.056,0.999
2026/05/14 10:32:07.982,-0.017,0.052,1.002
2026/05/14 10:32:08.000,-0.011,0.057,1.006
2026/05/14 10:32:08.019,-0.014,0.055,1.005
2026/05/14 10:32:08.038,-0.014,0.057,1.005
2026/05/14 10:32:08.056,-0.014,0.051,1.004
2026/05/14 10:32:08.075,-0.017,0.054,1.005
2026/05/14 10:32:08.093,-0.014,0.051,1.007
2026/05/14 10:32:08.112,-0.015,0.055,1.003
2026/05/14 10:32:08.130,-0.017,0.054,1.004
2026/05/14 10:32:08.149,-0.015,0.057,1.001
2026/05/14 10:32:08.167,-0.017,0.059,0.999
2026/05/14 10:32:08.186,-0.01,0.056,1.003
2026/05/14 10:32:08.204,-0.015,0.055,1.003
2026/05/14 10:32:08.223,-0.014,0.053,1.003
2026/05/14 10:32:08.242,-0.011,0.055,1.004
2026/05/14 10:32:08.260,-0.015,0.057,1.002
2026/05/14 10:32:08.279,-0.013,0.051,1.008
2026/05/14 10:32:08.297,-0.012,0.056,1.004
2026/05/14 10:32:08.316,-0.016,0.056,1.007
2026/05/14 10:32:08.334,-0.011,0.055,1.005
2026/05/14 10:32:08.353,-0.012,0.056,1.002
2026/05/14 10:32:08.371,-0.013,0.057,1.009
2026/05/14 10:32:08.390,-0.019,0.06,1.005
2026/05/14 10:32:08.408,-0.013,0.057,1.005
2026/05/14 10:32:08.427,-0.011,0.053,0.999
2026/05/14 10:32:08.445,-0.014,0.056,1.005
2026/05/14 10:32:08.464,-0.018,0.056,1.005
2026/05/14 10:32:08.483,-0.011,0.055,1.002
2026/05/14 10:32:08.501,-0.013,0.054,1.002
2026/05/14 10:32:08.520,-0.014,0.054,1.004
2026/05/14 10:32:08.538,-0.014,0.052,1.006
2026/05/14 10:32:08.557,-0.016,0.056,1.001
2026/05/14 10:32:08.575,-0.015,0.052,0.999
2026/05/14 10:32:08.594,-0.013,0.052,1.001
2026/05/14 10:32:08.612,-0.013,0.056,1.007
2026/05/14 10:32:08.631,-0.015,0.053,1.001
2026/05/14 10:32:08.649,-0.015,0.056,1.005
2026/05/14 10:32:08.668,-0.021,0.06,1.004
2026/05/14 10:32:08.687,-0.013,0.057,1.004
2026/05/14 10:32:08.705,-0.014,0.054,1.004
2026/05/14 10:32:08.724,-0.017,0.055,1.003
2026/05/14 10:32:08.742,-0.019,0.056,1.001
2026/05/14 10:32:08.761,-0.015,0.055,1.002
2026/05/14 10:32:08.779,-0.014,0.056,1.003
2026/05/14 10:32:08.798,-0.016,0.053,1.004
2026/05/14 10:32:08.816,-0.016,0.053,1.004
2026/05/14 10:32:08.835,-0.014,0.057,1.004
2026/05/14 10:32:08.853,-0.017,0.054,1.004
2026/05/14 10:32:08.872,-0.016,0.054,1.005
2026/05/14 10:32:08.891,-0.018,0.052,1.001
2026/05/14 10:32:08.909,-0.013,0.054,1.004
2026/05/14 10:32:08.928,-0.016,0.054,1.001
2026/05/14 10:32:08.946,-0.01,0.056,1.004
2026/05/14 10:32:08.965,-0.018,0.051,1.003
2026/05/14 10:32:08.983,-0.011,0.051,1.005
2026/05/14 10:32:09.002,-0.021,0.052,1.004
2026/05/14 10:32:09.020,-0.015,0.053,0.999
2026/05/14 10:32:09.039,-0.016,0.059,1.002
2026/05/14 10:32:09.057,-0.014,0.055,1.004
2026/05/14 10:32:09.076,-0.014,0.058,1.003
2026/05/14 10:32:09.094,-0.015,0.055,1.004
2026/05/14 10:32:09.113,-0.014,0.055,1.001
2026/05/14 10:32:09.132,-0.016,0.06,1.0
2026/05/14 10:32:09.150,-0.014,0.056,1.007
2026/05/14 10:32:09.169,-0.017,0.056,1.004
2026/05/14 10:32:09.187,-0.018,0.057,1.002
2026/05/14 10:32:09.206,-0.015,0.053,1.001
2026/05/14 10:32:09.224,-0.013,0.055,1.002
2026/05/14 10:32:09.243,-0.019,0.051,1.006
2026/05/14 10:32:09.261,-0.012,0.053,1.003
2026/05/14 10:32:09.280,-0.016,0.056,1.005
2026/05/14 10:32:09.298,-0.01,0.057,1.002
2026/05/14 10:32:09.317,-0.011,0.057,1.003
2026/05/14 10:32:09.336,-0.014,0.054,1.002
2026/05/14 10:32:09.354,-0.019,0.053,1.004
2026/05/14 10:32:09.373,-0.016,0.054,0.999
2026/05/14 10:32:09.391,-0.014,0.052,0.998
2026/05/14 10:32:09.410,-0.011,0.052,1.002
2026/05/14 10:32:09.428,-0.015,0.053,1.003
2026/05/14 10:32:09.447,-0.016,0.052,1.002
2026/05/14 10:32:09.465,-0.014,0.056,0.999
2026/05/14 10:32:09.484,-0.017,0.057,1.002
2026/05/14 10:32:09.502,-0.013,0.052,1.003
2026/05/14 10:32:09.521,-0.014,0.056,1.006
2026/05/14 10:32:09.540,-0.012,0.055,1.005
2026/05/14 10:32:09.558,-0.014,0.054,1.003
2026/05/14 10:32:09.577,-0.015,0.053,1.007
2026/05/14 10:32:09.595,-0.015,0.057,1.003
2026/05/14 10:32:09.614,-0.016,0.059,1.004
2026/05/14 10:32:09.632,-0.018,0.054,1.002
2026/05/14 10:32:09.651,-0.012,0.059,1.007
2026/05/14 10:32:09.669,-0.014,0.053,1.005
2026/05/14 10:32:09.688,-0.017,0.057,1.005
2026/05/14 10:32:09.706,-0.014,0.055,1.004
2026/05/14 10:32:09.725,-0.012,0.057,1.004
2026/05/14 10:32:09.743,-0.013,0.056,1.003
2026/05/14 10:32:09.762,-0.015,0.053,1.006
2026/05/14 10:32:09.781,-0.015,0.058,1.002
2026/05/14 10:32:09.799,-0.014,0.056,1.005
2026/05/14 10:32:09.818,-0.015,0.048,1.005
2026/05/14 10:32:09.836,-0.016,0.054,1.0
2026/05/14 10:32:09.855,-0.009,0.055,1.002
2026/05/14 10:32:09.873,-0.017,0.057,1.006
2026/05/14 10:32:09.892,-0.014,0.054,1.003
2026/05/14 10:32:09.910,-0.012,0.053,1.006
2026/05/14 10:32:09.929,-0.017,0.055,1.005
2026/05/14 10:32:09.947,-0.015,0.055,1.004
2026/05/14 10:32:09.966,-0.019,0.057,1.003
2026/05/14 10:32:09.985,-0.018,0.056,1.003
2026/05/14 10:32:10.003,-0.016,0.055,1.0
2026/05/14 10:32:10.022,-0.015,0.057,1.0
2026/05/14 10:32:10.040,-0.018,0.058,1.005
2026/05/14 10:32:10.059,-0.016,0.056,1.004
2026/05/14 10:32:10.077,-0.015,0.055,1.0
2026/05/14 10:32:10.096,-0.018,0.053,1.003
2026/05/14 10:32:10.114,-0.016,0.055,1.003
2026/05/14 10:32:10.133,-0.013,0.058,1.004
2026/05/14 10:32:10.151,-0.016,0.055,1.006
2026/05/14 10:32:10.170,-0.015,0.057,1.005
2026/05/14 10:32:10.189,-0.011,0.056,1.008
2026/05/14 10:32:10.207,-0.011,0.054,1.004
2026/05/14 10:32:10.226,-0.014,0.057,1.003
2026/05/14 10:32:10.244,-0.013,0.054,1.003
2026/05/14 10:32:10.263,-0.014,0.058,1.005
2026/05/14 10:32:10.281,-0.015,0.057,1.004
2026/05/14 10:32:10.300,-0.013,0.055,1.003
2026/05/14 10:32:10.318,-0.013,0.055,1.005
2026/05/14 10:32:10.337,-0.016,0.057,1.004
2026/05/14 10:32:10.355,-0.015,0.053,1.004
2026/05/14 10:32:10.374,-0.014,0.055,0.998
2026/05/14 10:32:10.393,-0.014,0.056,1.003
2026/05/14 10:32:10.411,-0.015,0.058,1.003
2026/05/14 10:32:10.430,-0.014,0.054,1.008
2026/05/14 10:32:10.448,-0.013,0.051,1.005
2026/05/14 10:32:10.467,-0.013,0.056,1.001
2026/05/14 10:32:10.485,-0.013,0.058,1.006
2026/05/14 10:32:10.504,-0.013,0.057,1.006
2026/05/14 10:32:10.522,-0.015,0.057,1.004
2026/05/14 10:32:10.541,-0.016,0.057,1.003
2026/05/14 10:32:10.559,-0.017,0.056,1.003
2026/05/14 10:32:10.578,-0.015,0.054,1.006
2026/05/14 10:32:10.596,-0.018,0.055,1.004
2026/05/14 10:32:10.615,-0.014,0.055,0.998
2026/05/14 10:32:10.634,-0.017,0.053,1.003
2026/05/14 10:32:10.652,-0.013,0.059,1.004
2026/05/14 10:32:10.671,-0.013,0.052,1.005
2026/05/14 10:32:10.689,-0.013,0.051,1.006
2026/05/14 10:32:10.708,-0.016,0.053,1.008
2026/05/14 10:32:10.726,-0.01,0.052,1.004
2026/05/14 10:32:10.745,-0.013,0.053,1.002
2026/05/14 10:32:10.763,-0.014,0.06,1.002
2026/05/14 10:32:10.782,-0.017,0.058,1.002
2026/05/14 10:32:10.800,-0.018,0.055,1.005
2026/05/14 10:32:10.819,-0.01,0.057,1.004
2026/05/14 10:32:10.838,-0.018,0.056,0.999
2026/05/14 10:32:10.856,-0.013,0.055,1.0
2026/05/14 10:32:10.875,-0.016,0.055,1.005
2026/05/14 10:32:10.893,-0.014,0.058,1.003
2026/05/14 10:32:10.912,-0.011,0.05,1.003
2026/05/14 10:32:10.930,-0.015,0.054,1.007
2026/05/14 10:32:10.949,-0.017,0.057,1.004
2026/05/14 10:32:10.967,-0.013,0.056,1.002
2026/05/14 10:32:10.986,-0.016,0.057,1.005
2026/05/14 10:32:11.004,-0.017,0.053,1.007
2026/05/14 10:32:11.023,-0.016,0.055,1.003
2026/05/14 10:32:11.041,-0.016,0.054,1.002
2026/05/14 10:32:11.060,-0.019,0.058,1.0
2026/05/14 10:32:11.079,-0.015,0.057,1.003
2026/05/14 10:32:11.097,-0.011,0.055,1.003
2026/05/14 10:32:11.116,-0.012,0.052,1.001
2026/05/14 10:32:11.134,-0.021,0.057,1.002
2026/05/14 10:32:11.153,-0.015,0.054,1.007
2026/05/14 10:32:11.171,-0.015,0.053,1.002
2026/05/14 10:32:11.190,-0.016,0.055,1.0
2026/05/14 10:32:11.208,-0.017,0.054,1.003
2026/05/14 10:32:11.227,-0.014,0.057,1.004
2026/05/14 10:32:11.245,-0.017,0.055,1.003
2026/05/14 10:32:11.264,-0.014,0.054,1.002
2026/05/14 10:32:11.283,-0.014,0.057,1.003
2026/05/14 10:32:11.301,-0.017,0.057,1.006
2026/05/14 10:32:11.320,-0.012,0.055,1.002
2026/05/14 10:32:11.338,-0.016,0.054,1.004
2026/05/14 10:32:11.357,-0.016,0.055,1.005
2026/05/14 10:32:11.375,-0.015,0.055,1.007
2026/05/14 10:32:11.394,-0.017,0.052,1.007
2026/05/14 10:32:11.412,-0.022,0.056,1.004
2026/05/14 10:32:11.431,-0.016,0.057,1.005
2026/05/14 10:32:11.449,-0.017,0.058,1.005
2026/05/14 10:32:11.468,-0.014,0.06,1.008
2026/05/14 10:32:11.487,-0.018,0.058,1.002
2026/05/14 10:32:11.505,-0.016,0.054,1.009
2026/05/14 10:32:11.524,-0.016,0.055,1.003
2026/05/14 10:32:11.542,-0.013,0.056,1.007
2026/05/14 10:32:11.561,-0.021,0.056,1.003
2026/05/14 10:32:11.579,-0.017,0.053,1.008
2026/05/14 10:32:11.598,-0.014,0.053,1.002
2026/05/14 10:32:11.616,-0.019,0.053,1.005
2026/05/14 10:32:11.635,-0.015,0.051,1.005
2026/05/14 10:32:11.653,-0.018,0.061,1.001
2026/05/14 10:32:11.672,-0.02,0.051,1.008
2026/05/14 10:32:11.690,-0.016,0.056,1.008
2026/05/14 10:32:11.709,-0.009,0.057,1.002
2026/05/14 10:32:11.728,-0.015,0.055,1.003
2026/05/14 10:32:11.746,-0.014,0.054,1.001
2026/05/14 10:32:11.765,-0.014,0.053,1.008
2026/05/14 10:32:11.783,-0.015,0.058,1.004
2026/05/14 10:32:11.802,-0.018,0.054,1.006
2026/05/14 10:32:11.820,-0.016,0.055,1.005
2026/05/14 10:32:11.839,-0.015,0.055,1.007
2026/05/14 10:32:11.857,-0.012,0.054,1.005
2026/05/14 10:32:11.876,-0.012,0.054,1.0
2026/05/14 10:32:11.894,-0.014,0.059,1.004
2026/05/14 10:32:11.913,-0.014,0.056,1.007
2026/05/14 10:32:11.932,-0.013,0.061,1.005
2026/05/14 10:32:11.950,-0.015,0.052,1.002
2026/05/14 10:32:11.969,-0.017,0.053,0.999
2026/05/14 10:32:11.987,-0.016,0.05,1.004
2026/05/14 10:32:12.006,-0.014,0.055,1.003
2026/05/14 10:32:12.024,-0.015,0.056,1.003
2026/05/14 10:32:12.043,-0.015,0.054,1.004
2026/05/14 10:32:12.061,-0.013,0.055,1.0
2026/05/14 10:32:12.080,-0.012,0.056,1.007
2026/05/14 10:32:12.098,-0.011,0.056,1.007
2026/05/14 10:32:12.117,-0.011,0.056,1.001
2026/05/14 10:32:12.135,-0.014,0.056,1.005
2026/05/14 10:32:12.154,-0.013,0.055,1.001
2026/05/14 10:32:12.173,-0.016,0.056,1.0
2026/05/14 10:32:12.191,-0.012,0.054,1.006
2026/05/14 10:32:12.210,-0.01,0.055,1.005
2026/05/14 10:32:12.228,-0.011,0.058,1.007
2026/05/14 10:32:12.247,-0.017,0.055,1.006
2026/05/14 10:32:12.265,-0.012,0.059,1.003
2026/05/14 10:32:12.284,-0.014,0.056,1.0
2026/05/14 10:32:12.302,-0.012,0.056,1.004
2026/05/14 10:32:12.321,-0.014,0.058,0.997
2026/05/14 10:32:12.339,-0.017,0.058,1.001
2026/05/14 10:32:12.358,-0.014,0.055,1.002
2026/05/14 10:32:12.377,-0.017,0.056,1.007
2026/05/14 10:32:12.395,-0.015,0.054,1.003
2026/05/14 10:32:12.414,-0.015,0.059,1.003
2026/05/14 10:32:12.432,-0.013,0.056,1.004
2026/05/14 10:32:12.451,-0.015,0.056,1.0
2026/05/14 10:32:12.469,-0.017,0.058,1.007
2026/05/14 10:32:12.488,-0.014,0.052,1.006
2026/05/14 10:32:12.506,-0.014,0.054,1.002
2026/05/14 10:32:12.525,-0.019,0.059,1.003
2026/05/14 10:32:12.543,-0.016,0.057,0.998
2026/05/14 10:32:12.562,-0.01,0.055,1.004
2026/05/14 10:32:12.580,-0.017,0.057,1.005
2026/05/14 10:32:12.599,-0.012,0.056,1.002
2026/05/14 10:32:12.618,-0.012,0.051,1.005
2026/05/14 10:32:12.636,-0.016,0.057,1.004
2026/05/14 10:32:12.655,-0.016,0.056,1.003
2026/05/14 10:32:12.673,-0.015,0.055,1.001
2026/05/14 10:32:12.692,-0.014,0.057,1.003
2026/05/14 10:32:12.710,-0.016,0.059,1.003
2026/05/14 10:32:12.729,-0.017,0.053,1.002
2026/05/14 10:32:12.747,-0.013,0.056,1.0
2026/05/14 10:32:12.766,-0.011,0.054,1.006
2026/05/14 10:32:12.784,-0.012,0.057,1.0
2026/05/14 10:32:12.803,-0.014,0.055,1.007
2026/05/14 10:32:12.822,-0.015,0.056,1.002
2026/05/14 10:32:12.840,-0.017,0.051,1.006
2026/05/14 10:32:12.859,-0.017,0.051,1.005
2026/05/14 10:32:12.877,-0.014,0.053,1.008
2026/05/14 10:32:12.896,-0.011,0.052,0.999
2026/05/14 10:32:12.914,-0.013,0.057,1.006
2026/05/14 10:32:12.933,-0.016,0.055,1.002
2026/05/14 10:32:12.951,-0.016,0.06,1.004
2026/05/14 10:32:12.970,-0.016,0.056,1.005
2026/05/14 10:32:12.988,-0.018,0.05,1.007
2026/05/14 10:32:13.007,-0.015,0.054,1.005
2026/05/14 10:32:13.026,-0.014,0.058,1.007
2026/05/14 10:32:13.044,-0.014,0.052,1.005
2026/05/14 10:32:13.063,-0.018,0.055,1.007
2026/05/14 10:32:13.081,-0.017,0.056,1.001
2026/05/14 10:32:13.100,-0.014,0.055,1.0
2026/05/14 10:32:13.118,-0.015,0.056,1.005
2026/05/14 10:32:13.137,-0.019,0.053,1.006
2026/05/14 10:32:13.155,-0.014,0.059,1.004
2026/05/14 10:32:13.174,-0.015,0.052,1.005
2026/05/14 10:32:13.192,-0.017,0.053,1.004
2026/05/14 10:32:13.211,-0.017,0.056,1.004
2026/05/14 10:32:13.229,-0.011,0.056,1.005
2026/05/14 10:32:13.248,-0.013,0.054,1.007
2026/05/14 10:32:13.267,-0.018,0.057,1.004
2026/05/14 10:32:13.285,-0.015,0.056,1.002
2026/05/14 10:32:13.304,-0.012,0.054,1.003
2026/05/14 10:32:13.322,-0.01,0.054,0.998
2026/05/14 10:32:13.341,-0.015,0.056,1.004
2026/05/14 10:32:13.359,-0.015,0.054,1.001
2026/05/14 10:32:13.378,-0.014,0.052,1.0
2026/05/14 10:32:13.396,-0.016,0.054,1.003
2026/05/14 10:32:13.415,-0.017,0.06,1.005
2026/05/14 10:32:13.433,-0.017,0.051,1.001
2026/05/14 10:32:13.452,-0.013,0.054,1.005
2026/05/14 10:32:13.471,-0.014,0.054,1.004
2026/05/14 10:32:13.489,-0.017,0.055,1.003
2026/05/14 10:32:13.508,-0.015,0.056,1.004
2026/05/14 10:32:13.526,-0.02,0.056,1.002
2026/05/14 10:32:13.545,-0.014,0.051,1.001
2026/05/14 10:32:13.563,-0.012,0.058,1.003
2026/05/14 10:32:13.582,-0.015,0.054,1.002
2026/05/14 10:32:13.600,-0.017,0.057,1.0
2026/05/14 10:32:13.619,-0.01,0.056,1.003
2026/05/14 10:32:13.637,-0.013,0.051,1.0
2026/05/14 10:32:13.656,-0.013,0.052,1.004
2026/05/14 10:32:13.675,-0.016,0.054,1.005
2026/05/14 10:32:13.693,-0.015,0.056,1.003
2026/05/14 10:32:13.712,-0.016,0.056,1.003
2026/05/14 10:32:13.730,-0.014,0.056,1.008
2026/05/14 10:32:13.749,-0.013,0.058,1.004
2026/05/14 10:32:13.767,-0.015,0.057,1.001
2026/05/14 10:32:13.786,-0.014,0.057,0.999
2026/05/14 10:32:13.804,-0.014,0.051,0.999
2026/05/14 10:32:13.823,-0.016,0.054,1.002
2026/05/14 10:32:13.841,-0.013,0.054,1.004
2026/05/14 10:32:13.860,-0.012,0.057,1.003
2026/05/14 10:32:13.878,-0.013,0.055,1.004
2026/05/14 10:32:13.897,-0.016,0.055,1.001
2026/05/14 10:32:13.916,-0.012,0.056,1.006
2026/05/14 10:32:13.934,-0.013,0.055,1.0
2026/05/14 10:32:13.953,-0.016,0.054,1.005
2026/05/14 10:32:13.971,-0.019,0.055,1.005
2026/05/14 10:32:13.990,-0.015,0.053,1.004
2026/05/14 10:32:14.008,-0.017,0.053,1.003
2026/05/14 10:32:14.027,-0.014,0.056,1.002
2026/05/14 10:32:14.045,-0.015,0.056,1.0
2026/05/14 10:32:14.064,-0.014,0.055,1.002
2026/05/14 10:32:14.082,-0.011,0.059,1.002
2026/05/14 10:32:14.101,-0.014,0.058,1.007
2026/05/14 10:32:14.120,-0.014,0.056,1.003
2026/05/14 10:32:14.138,-0.017,0.05,1.004
2026/05/14 10:32:14.157,-0.014,0.054,1.0
2026/05/14 10:32:14.175,-0.015,0.057,1.005
2026/05/14 10:32:14.194,-0.016,0.058,1.006
2026/05/14 10:32:14.212,-0.016,0.054,1.005
2026/05/14 10:32:14.231,-0.013,0.054,1.003
2026/05/14 10:32:14.249,-0.017,0.055,1.004
2026/05/14 10:32:14.268,-0.014,0.053,1.006
2026/05/14 10:32:14.286,-0.014,0.053,1.0
2026/05/14 10:32:14.305,-0.016,0.054,1.005
2026/05/14 10:32:14.324,-0.016,0.055,1.007
2026/05/14 10:32:14.342,-0.015,0.054,1.005
2026/05/14 10:32:14.361,-0.017,0.057,1.007
2026/05/14 10:32:14.379,-0.014,0.055,1.001
2026/05/14 10:32:14.398,-0.017,0.054,1.01
2026/05/14 10:32:14.416,-0.013,0.053,1.004
2026/05/14 10:32:14.435,-0.013,0.055,1.004
2026/05/14 10:32:14.453,-0.012,0.054,1.01
2026/05/14 10:32:14.472,-0.015,0.054,1.005
2026/05/14 10:32:14.490,-0.016,0.049,1.003
2026/05/14 10:32:14.509,-0.014,0.055,1.002
2026/05/14 10:32:14.527,-0.013,0.053,1.003
2026/05/14 10:32:14.546,-0.014,0.058,1.005
2026/05/14 10:32:14.565,-0.018,0.056,1.006
2026/05/14 10:32:14.583,-0.014,0.05,1.007
2026/05/14 10:32:14.602,-0.02,0.051,1.001
2026/05/14 10:32:14.620,-0.013,0.059,1.002
2026/05/14 10:32:14.639,-0.018,0.053,1.005
2026/05/14 10:32:14.657,-0.016,0.057,1.002
2026/05/14 10:32:14.676,-0.012,0.052,1.006
2026/05/14 10:32:14.694,-0.014,0.057,1.004
2026/05/14 10:32:14.713,-0.017,0.056,1.006
2026/05/14 10:32:14.731,-0.015,0.055,1.004
2026/05/14 10:32:14.750,-0.014,0.055,1.003
2026/05/14 10:32:14.769,-0.013,0.055,1.008
2026/05/14 10:32:14.787,-0.015,0.055,1.007
2026/05/14 10:32:14.806,-0.015,0.058,1.004
2026/05/14 10:32:14.824,-0.018,0.054,1.006
2026/05/14 10:32:14.843,-0.015,0.053,1.003
2026/05/14 10:32:14.861,-0.015,0.056,1.005
2026/05/14 10:32:14.880,-0.013,0.054,1.002
2026/05/14 10:32:14.898,-0.019,0.054,1.0
2026/05/14 10:32:14.917,-0.014,0.052,1.003
2026/05/14 10:32:14.935,-0.017,0.06,1.002
2026/05/14 10:32:14.954,-0.017,0.055,1.007
2026/05/14 10:32:14.973,-0.018,0.058,1.006
2026/05/14 10:32:14.991,-0.012,0.052,1.004
2026/05/14 10:32:15.010,-0.013,0.054,1.005
2026/05/14 10:32:15.028,-0.018,0.054,1.006
2026/05/14 10:32:15.047,-0.016,0.058,1.004
2026/05/14 10:32:15.065,-0.016,0.056,1.003
2026/05/14 10:32:15.084,-0.011,0.053,1.007
2026/05/14 10:32:15.102,-0.012,0.057,1.005
2026/05/14 10:32:15.121,-0.011,0.056,1.008
2026/05/14 10:32:15.139,-0.013,0.054,1.005
2026/05/14 10:32:15.158,-0.013,0.051,1.003
2026/05/14 10:32:15.176,-0.017,0.053,1.004
2026/05/14 10:32:15.195,-0.016,0.051,1.001
2026/05/14 10:32:15.214,-0.013,0.056,1.003
2026/05/14 10:32:15.232,-0.014,0.056,1.002
2026/05/14 10:32:15.251,-0.013,0.057,1.008
2026/05/14 10:32:15.269,-0.014,0.05,1.001
2026/05/14 10:32:15.288,-0.014,0.054,1.005
2026/05/14 10:32:15.306,-0.011,0.058,0.997
2026/05/14 10:32:15.325,-0.013,0.056,0.997
2026/05/14 10:32:15.343,-0.015,0.056,1.006
2026/05/14 10:32:15.362,-0.015,0.051,1.003
2026/05/14 10:32:15.380,-0.015,0.06,1.001
2026/05/14 10:32:15.399,-0.013,0.056,1.001
2026/05/14 10:32:15.418,-0.016,0.054,1.01
2026/05/14 10:32:15.436,-0.016,0.056,1.005
2026/05/14 10:32:15.455,-0.013,0.054,1.003
2026/05/14 10:32:15.473,-0.013,0.054,1.004
2026/05/14 10:32:15.492,-0.014,0.053,1.003
2026/05/14 10:32:15.510,-0.015,0.049,1.004
2026/05/14 10:32:15.529,-0.009,0.056,1.008
2026/05/14 10:32:15.547,-0.018,0.054,1.002
2026/05/14 10:32:15.566,-0.014,0.059,1.003
2026/05/14 10:32:15.584,-0.01,0.055,1.005
2026/05/14 10:32:15.603,-0.011,0.055,1.002
2026/05/14 10:32:15.622,-0.013,0.053,1.002
2026/05/14 10:32:15.640,-0.013,0.053,1.007
2026/05/14 10:32:15.659,-0.013,0.053,1.005
2026/05/14 10:32:15.677,-0.015,0.056,1.002
2026/05/14 10:32:15.696,-0.012,0.055,1.006
2026/05/14 10:32:15.714,-0.014,0.055,1.004
2026/05/14 10:32:15.733,-0.016,0.057,1.007
2026/05/14 10:32:15.751,-0.01,0.052,1.006
2026/05/14 10:32:15.770,-0.011,0.055,1.009
2026/05/14 10:32:15.788,-0.014,0.056,1.007
2026/05/14 10:32:15.807,-0.018,0.051,1.002
2026/05/14 10:32:15.825,-0.015,0.057,1.008
2026/05/14 10:32:15.844,-0.016,0.058,1.002
2026/05/14 10:32:15.863,-0.013,0.056,1.007
2026/05/14 10:32:15.881,-0.014,0.059,1.003
2026/05/14 10:32:15.900,-0.017,0.055,1.004
2026/05/14 10:32:15.918,-0.016,0.056,1.0
2026/05/14 10:32:15.937,-0.019,0.058,1.004
2026/05/14 10:32:15.955,-0.015,0.055,1.002
2026/05/14 10:32:15.974,-0.015,0.057,1.004
2026/05/14 10:32:15.992,-0.016,0.057,1.004
2026/05/14 10:32:16.011,-0.015,0.054,1.004
2026/05/14 10:32:16.029,-0.018,0.057,1.003
2026/05/14 10:32:16.048,-0.012,0.054,1.002
2026/05/14 10:32:16.067,-0.01,0.063,1.002
2026/05/14 10:32:16.085,-0.014,0.055,1.004
2026/05/14 10:32:16.104,-0.013,0.052,1.005
2026/05/14 10:32:16.122,-0.015,0.052,1.002
2026/05/14 10:32:16.141,-0.016,0.054,1.003
2026/05/14 10:32:16.159,-0.014,0.054,1.002
2026/05/14 10:32:16.178,-0.018,0.055,1.001
2026/05/14 10:32:16.196,-0.018,0.053,1.007
2026/05/14 10:32:16.215,-0.017,0.055,1.003
2026/05/14 10:32:16.233,-0.011,0.054,1.001
2026/05/14 10:32:16.252,-0.015,0.053,1.0
2026/05/14 10:32:16.271,-0.013,0.057,1.002
2026/05/14 10:32:16.289,-0.013,0.055,0.999
2026/05/14 10:32:16.308,-0.015,0.057,1.005
2026/05/14 10:32:16.326,-0.018,0.055,1.004
2026/05/14 10:32:16.345,-0.013,0.053,1.0
2026/05/14 10:32:16.363,-0.014,0.054,1.006
2026/05/14 10:32:16.382,-0.017,0.053,1.003
2026/05/14 10:32:16.400,-0.014,0.055,1.006
2026/05/14 10:32:16.419,-0.015,0.051,1.004
2026/05/14 10:32:16.437,-0.02,0.056,1.0
2026/05/14 10:32:16.456,-0.015,0.055,1.003
2026/05/14 10:32:16.474,-0.015,0.054,1.006
2026/05/14 10:32:16.493,-0.011,0.056,1.006
2026/05/14 10:32:16.512,-0.016,0.056,1.005
2026/05/14 10:32:16.530,-0.011,0.056,1.006
2026/05/14 10:32:16.549,-0.012,0.059,1.004
2026/05/14 10:32:16.567,-0.013,0.057,1.004
2026/05/14 10:32:16.586,-0.016,0.059,1.004
2026/05/14 10:32:16.604,-0.017,0.051,1.002
2026/05/14 10:32:16.623,-0.016,0.053,1.002
2026/05/14 10:32:16.641,-0.016,0.055,1.007
2026/05/14 10:32:16.660,-0.01,0.056,1.005
2026/05/14 10:32:16.678,-0.017,0.06,1.004
2026/05/14 10:32:16.697,-0.015,0.059,1.005
2026/05/14 10:32:16.716,-0.017,0.055,1.004
2026/05/14 10:32:16.734,-0.014,0.054,1.003
2026/05/14 10:32:16.753,-0.017,0.055,1.005
2026/05/14 10:32:16.771,-0.016,0.052,1.002
2026/05/14 10:32:16.790,-0.018,0.053,1.005
2026/05/14 10:32:16.808,-0.012,0.058,1.004
2026/05/14 10:32:16.827,-0.012,0.056,1.0
2026/05/14 10:32:16.845,-0.012,0.057,1.006
2026/05/14 10:32:16.864,-0.012,0.055,0.997
2026/05/14 10:32:16.882,-0.015,0.054,1.004
2026/05/14 10:32:16.901,-0.014,0.055,1.002
2026/05/14 10:32:16.920,-0.011,0.056,1.008
2026/05/14 10:32:16.938,-0.015,0.052,1.002
2026/05/14 10:32:16.957,-0.016,0.055,1.007
2026/05/14 10:32:16.975,-0.013,0.054,1.006
2026/05/14 10:32:16.994,-0.018,0.052,1.003
2026/05/14 10:32:17.012,-0.014,0.054,1.006
2026/05/14 10:32:17.031,-0.017,0.055,1.004
2026/05/14 10:32:17.049,-0.014,0.055,1.005
2026/05/14 10:32:17.068,-0.013,0.052,1.004
2026/05/14 10:32:17.086,-0.011,0.057,1.005
2026/05/14 10:32:17.105,-0.013,0.055,1.006
2026/05/14 10:32:17.123,-0.017,0.052,1.003
2026/05/14 10:32:17.142,-0.015,0.054,1.0
2026/05/14 10:32:17.161,-0.018,0.057,1.009
2026/05/14 10:32:17.179,-0.017,0.053,1.004
2026/05/14 10:32:17.198,-0.014,0.054,1.0
2026/05/14 10:32:17.216,-0.012,0.053,1.007
2026/05/14 10:32:17.235,-0.012,0.054,1.003
2026/05/14 10:32:17.253,-0.018,0.052,1.004
2026/05/14 10:32:17.272,-0.017,0.055,1.003
2026/05/14 10:32:17.290,-0.016,0.054,1.0
2026/05/14 10:32:17.309,-0.015,0.053,1.005
2026/05/14 10:32:17.327,-0.017,0.053,1.008
2026/05/14 10:32:17.346,-0.018,0.054,1.004
2026/05/14 10:32:17.365,-0.013,0.056,1.004
2026/05/14 10:32:17.383,-0.013,0.052,1.004
2026/05/14 10:32:17.402,-0.02,0.056,1.003
2026/05/14 10:32:17.420,-0.015,0.054,1.001
2026/05/14 10:32:17.439,-0.014,0.051,1.002
2026/05/14 10:32:17.457,-0.014,0.056,1.007
2026/05/14 10:32:17.476,-0.015,0.054,1.003
2026/05/14 10:32:17.494,-0.019,0.053,1.001
2026/05/14 10:32:17.513,-0.015,0.057,1.005
2026/05/14 10:32:17.531,-0.014,0.056,1.007
2026/05/14 10:32:17.550,-0.017,0.057,1.003
2026/05/14 10:32:17.569,-0.014,0.056,1.004
2026/05/14 10:32:17.587,-0.013,0.055,1.005
2026/05/14 10:32:17.606,-0.01,0.058,1.005
2026/05/14 10:32:17.624,-0.014,0.052,1.006
2026/05/14 10:32:17.643,-0.01,0.055,1.006
2026/05/14 10:32:17.661,-0.013,0.055,1.008
2026/05/14 10:32:17.680,-0.018,0.055,1.0
2026/05/14 10:32:17.698,-0.012,0.054,1.004
2026/05/14 10:32:17.717,-0.018,0.052,1.005
2026/05/14 10:32:17.735,-0.014,0.053,1.004
2026/05/14 10:32:17.754,-0.016,0.056,1.003
2026/05/14 10:32:17.772,-0.014,0.055,1.003
2026/05/14 10:32:17.791,-0.015,0.052,1.006
2026/05/14 10:32:17.810,-0.016,0.057,1.006
2026/05/14 10:32:17.828,-0.012,0.057,1.004
2026/05/14 10:32:17.847,-0.016,0.055,1.007
2026/05/14 10:32:17.865,-0.019,0.052,1.003
2026/05/14 10:32:17.884,-0.014,0.054,1.003
2026/05/14 10:32:17.902,-0.014,0.056,1.004
2026/05/14 10:32:17.921,-0.015,0.055,1.004
2026/05/14 10:32:17.939,-0.012,0.057,1.002
2026/05/14 10:32:17.958,-0.017,0.055,1.003
2026/05/14 10:32:17.976,-0.017,0.054,1.006
2026/05/14 10:32:17.995,-0.016,0.057,1.002
2026/05/14 10:32:18.014,-0.017,0.054,1.003
2026/05/14 10:32:18.032,-0.012,0.057,1.002
2026/05/14 10:32:18.051,-0.014,0.053,1.005
2026/05/14 10:32:18.069,-0.016,0.054,1.007
2026/05/14 10:32:18.088,-0.016,0.058,1.003
2026/05/14 10:32:18.106,-0.013,0.053,1.005
2026/05/14 10:32:18.125,-0.014,0.051,1.008
2026/05/14 10:32:18.143,-0.011,0.059,1.003
2026/05/14 10:32:18.162,-0.013,0.055,1.004
2026/05/14 10:32:18.180,-0.016,0.051,1.004
2026/05/14 10:32:18.199,-0.016,0.055,1.006
2026/05/14 10:32:18.218,-0.013,0.056,1.0
2026/05/14 10:32:18.236,-0.013,0.053,1.007
2026/05/14 10:32:18.255,-0.012,0.053,1.004
2026/05/14 10:32:18.273,-0.017,0.055,0.997
2026/05/14 10:32:18.292,-0.02,0.057,1.006
2026/05/14 10:32:18.310,-0.014,0.06,1.006
2026/05/14 10:32:18.329,-0.014,0.054,1.007
2026/05/14 10:32:18.347,-0.015,0.051,1.002
2026/05/14 10:32:18.366,-0.008,0.053,1.001
2026/05/14 10:32:18.384,-0.015,0.055,1.004
2026/05/14 10:32:18.403,-0.018,0.058,1.002
2026/05/14 10:32:18.422,-0.016,0.057,1.003
2026/05/14 10:32:18.440,-0.016,0.051,1.003
2026/05/14 10:32:18.459,-0.016,0.052,1.003
2026/05/14 10:32:18.477,-0.015,0.055,1.005
2026/05/14 10:32:18.496,-0.015,0.055,1.003
2026/05/14 10:32:18.514,-0.013,0.055,1.01
2026/05/14 10:32:18.533,-0.013,0.056,1.005
2026/05/14 10:32:18.551,-0.014,0.057,1.007
2026/05/14 10:32:18.570,-0.017,0.055,1.005
2026/05/14 10:32:18.588,-0.018,0.056,1.002
2026/05/14 10:32:18.607,-0.017,0.055,1.005
2026/05/14 10:32:18.625,-0.012,0.056,1.007
2026/05/14 10:32:18.644,-0.013,0.053,1.006
2026/05/14 10:32:18.663,-0.015,0.057,0.999
2026/05/14 10:32:18.681,-0.017,0.053,0.999
2026/05/14 10:32:18.700,-0.014,0.051,1.003
2026/05/14 10:32:18.718,-0.013,0.057,1.005
2026/05/14 10:32:18.737,-0.015,0.057,1.007
2026/05/14 10:32:18.755,-0.016,0.055,1.004
2026/05/14 10:32:18.774,-0.017,0.055,1.001
2026/05/14 10:32:18.792,-0.014,0.055,0.999
2026/05/14 10:32:18.811,-0.012,0.057,1.001
2026/05/14 10:32:18.829,-0.009,0.052,1.0
2026/05/14 10:32:18.848,-0.018,0.052,1.004
2026/05/14 10:32:18.867,-0.014,0.055,1.004
2026/05/14 10:32:18.885,-0.014,0.056,1.008
2026/05/14 10:32:18.904,-0.009,0.051,1.003
2026/05/14 10:32:18.922,-0.016,0.056,1.007
2026/05/14 10:32:18.941,-0.014,0.057,1.003
2026/05/14 10:32:18.959,-0.019,0.056,1.005
2026/05/14 10:32:18.978,-0.013,0.057,1.002
2026/05/14 10:32:18.996,-0.014,0.057,1.003
2026/05/14 10:32:19.015,-0.016,0.056,1.005
2026/05/14 10:32:19.033,-0.012,0.057,1.006
2026/05/14 10:32:19.052,-0.016,0.056,1.006
2026/05/14 10:32:19.071,-0.015,0.052,1.007
2026/05/14 10:32:19.089,-0.016,0.056,1.001
2026/05/14 10:32:19.108,-0.014,0.054,1.0
2026/05/14 10:32:19.126,-0.013,0.054,1.0
2026/05/14 10:32:19.145,-0.016,0.057,1.003
2026/05/14 10:32:19.163,-0.013,0.052,1.0
2026/05/14 10:32:19.182,-0.014,0.054,1.006
2026/05/14 10:32:19.200,-0.018,0.056,1.008
2026/05/14 10:32:19.219,-0.014,0.058,1.002
2026/05/14 10:32:19.237,-0.017,0.054,1.006
2026/05/14 10:32:19.256,-0.016,0.057,1.006
2026/05/14 10:32:19.275,-0.013,0.057,1.001
2026/05/14 10:32:19.293,-0.016,0.058,1.002
2026/05/14 10:32:19.312,-0.013,0.055,0.997
2026/05/14 10:32:19.330,-0.016,0.053,1.005
2026/05/14 10:32:19.349,-0.017,0.054,1.0
2026/05/14 10:32:19.367,-0.014,0.055,1.008
2026/05/14 10:32:19.386,-0.01,0.056,1.003
2026/05/14 10:32:19.404,-0.016,0.059,1.007
2026/05/14 10:32:19.423,-0.015,0.054,1.004
2026/05/14 10:32:19.441,-0.016,0.061,1.005
2026/05/14 10:32:19.460,-0.013,0.055,1.002
2026/05/14 10:32:19.478,-0.017,0.056,1.002
2026/05/14 10:32:19.497,-0.013,0.054,1.003
2026/05/14 10:32:19.516,-0.015,0.052,1.004
2026/05/14 10:32:19.534,-0.014,0.057,1.005
2026/05/14 10:32:19.553,-0.013,0.054,1.006
2026/05/14 10:32:19.571,-0.019,0.059,1.002
2026/05/14 10:32:19.590,-0.02,0.056,1.004
2026/05/14 10:32:19.608,-0.014,0.058,1.01
2026/05/14 10:32:19.627,-0.016,0.052,1.002
2026/05/14 10:32:19.645,-0.015,0.054,1.003
2026/05/14 10:32:19.664,-0.015,0.053,1.001
2026/05/14 10:32:19.682,-0.015,0.055,1.009
2026/05/14 10:32:19.701,-0.014,0.056,1.004
2026/05/14 10:32:19.720,-0.015,0.053,1.001
2026/05/14 10:32:19.738,-0.015,0.054,1.006
2026/05/14 10:32:19.757,-0.016,0.06,1.005
2026/05/14 10:32:19.775,-0.016,0.055,1.003
2026/05/14 10:32:19.794,-0.014,0.053,1.007
2026/05/14 10:32:19.812,-0.015,0.054,1.005
2026/05/14 10:32:19.831,-0.013,0.055,1.008
2026/05/14 10:32:19.849,-0.016,0.054,1.003
2026/05/14 10:32:19.868,-0.015,0.057,1.005
2026/05/14 10:32:19.886,-0.015,0.052,1.005
2026/05/14 10:32:19.905,-0.016,0.051,1.003
2026/05/14 10:32:19.924,-0.018,0.059,1.006
2026/05/14 10:32:19.942,-0.017,0.051,1.004
2026/05/14 10:32:19.961,-0.016,0.057,1.003
2026/05/14 10:32:19.979,-0.014,0.055,1.003
2026/05/14 10:32:19.998,-0.016,0.054,1.005
2026/05/14 10:32:20.016,-0.016,0.054,1.003
2026/05/14 10:32:20.035,-0.013,0.057,1.005
2026/05/14 10:32:20.053,-0.014,0.052,1.001
2026/05/14 10:32:20.072,-0.015,0.056,1.004
2026/05/14 10:32:20.090,-0.014,0.058,1.004
2026/05/14 10:32:20.109,-0.011,0.053,1.002
2026/05/14 10:32:20.128,-0.013,0.056,1.006
2026/05/14 10:32:20.146,-0.015,0.057,1.008
2026/05/14 10:32:20.165,-0.015,0.054,1.0
2026/05/14 10:32:20.183,-0.014,0.052,1.001
2026/05/14 10:32:20.202,-0.016,0.055,1.006
2026/05/14 10:32:20.220,-0.012,0.057,1.002
2026/05/14 10:32:20.239,-0.01,0.056,0.998
2026/05/14 10:32:20.257,-0.016,0.055,1.003
2026/05/14 10:32:20.276,-0.016,0.055,1.001
2026/05/14 10:32:20.294,-0.017,0.055,1.002
2026/05/14 10:32:20.313,-0.014,0.054,1.007
2026/05/14 10:32:20.331,-0.017,0.056,1.004
2026/05/14 10:32:20.350,-0.014,0.052,1.001
2026/05/14 10:32:20.369,-0.017,0.055,1.002
2026/05/14 10:32:20.387,-0.014,0.053,1.004
2026/05/14 10:32:20.406,-0.017,0.054,1.003
2026/05/14 10:32:20.424,-0.017,0.056,1.005
2026/05/14 10:32:20.443,-0.016,0.052,1.002
2026/05/14 10:32:20.461,-0.018,0.058,1.003
2026/05/14 10:32:20.480,-0.015,0.058,1.005
2026/05/14 10:32:20.498,-0.015,0.056,1.0
2026/05/14 10:32:20.517,-0.016,0.056,1.006
2026/05/14 10:32:20.535,-0.016,0.054,1.001
2026/05/14 10:32:20.554,-0.015,0.054,1.005
2026/05/14 10:32:20.573,-0.015,0.054,1.005
2026/05/14 10:32:20.591,-0.014,0.056,1.002
2026/05/14 10:32:20.610,-0.013,0.057,1.002
2026/05/14 10:32:20.628,-0.019,0.054,1.009
2026/05/14 10:32:20.647,-0.015,0.055,1.003
2026/05/14 10:32:20.665,-0.013,0.056,1.005
2026/05/14 10:32:20.684,-0.016,0.051,1.001
2026/05/14 10:32:20.702,-0.016,0.054,1.005
2026/05/14 10:32:20.721,-0.011,0.055,1.003
2026/05/14 10:32:20.739,-0.016,0.051,1.002
2026/05/14 10:32:20.758,-0.014,0.054,1.0
2026/05/14 10:32:20.777,-0.015,0.056,1.004
2026/05/14 10:32:20.795,-0.016,0.06,1.006
2026/05/14 10:32:20.814,-0.015,0.055,0.999
2026/05/14 10:32:20.832,-0.014,0.052,1.004
2026/05/14 10:32:20.851,-0.018,0.054,1.005
2026/05/14 10:32:20.869,-0.018,0.057,1.003
2026/05/14 10:32:20.888,-0.014,0.057,1.003
2026/05/14 10:32:20.906,-0.013,0.053,1.008
2026/05/14 10:32:20.925,-0.015,0.058,1.004
2026/05/14 10:32:20.943,-0.017,0.053,1.003
2026/05/14 10:32:20.962,-0.012,0.055,1.004
2026/05/14 10:32:20.981,-0.015,0.055,1.002
2026/05/14 10:32:20.999,-0.01,0.051,1.006
2026/05/14 10:32:21.018,-0.016,0.053,1.0
2026/05/14 10:32:21.036,-0.017,0.056,1.0
2026/05/14 10:32:21.055,-0.017,0.057,1.006
2026/05/14 10:32:21.073,-0.015,0.057,1.005
2026/05/14 10:32:21.092,-0.011,0.056,1.002
2026/05/14 10:32:21.110,-0.019,0.053,1.004
2026/05/14 10:32:21.129,-0.018,0.054,1.005
2026/05/14 10:32:21.147,-0.013,0.053,1.005
2026/05/14 10:32:21.166,-0.013,0.054,0.998
2026/05/14 10:32:21.184,-0.014,0.052,1.002
2026/05/14 10:32:21.203,-0.016,0.055,1.005
2026/05/14 10:32:21.222,-0.015,0.051,1.002
2026/05/14 10:32:21.240,-0.013,0.056,1.004
2026/05/14 10:32:21.259,-0.018,0.055,1.005
2026/05/14 10:32:21.277,-0.017,0.057,1.007
2026/05/14 10:32:21.296,-0.017,0.052,1.005
2026/05/14 10:32:21.314,-0.015,0.058,1.005
2026/05/14 10:32:21.333,-0.013,0.056,1.003
2026/05/14 10:32:21.351,-0.014,0.058,1.005
2026/05/14 10:32:21.370,-0.017,0.056,1.006
2026/05/14 10:32:21.388,-0.015,0.052,1.006
2026/05/14 10:32:21.407,-0.011,0.049,1.006
2026/05/14 10:32:21.426,-0.014,0.052,1.002
2026/05/14 10:32:21.444,-0.015,0.057,1.006
2026/05/14 10:32:21.463,-0.017,0.053,1.005
2026/05/14 10:32:21.481,-0.013,0.054,1.001
2026/05/14 10:32:21.500,-0.014,0.054,1.002
2026/05/14 10:32:21.518,-0.017,0.054,0.999
2026/05/14 10:32:21.537,-0.015,0.059,1.005
2026/05/14 10:32:21.555,-0.018,0.055,1.002
2026/05/14 10:32:21.574,-0.013,0.053,1.006
2026/05/14 10:32:21.592,-0.012,0.058,1.002
2026/05/14 10:32:21.611,-0.018,0.055,1.001
2026/05/14 10:32:21.630,-0.018,0.054,1.004
2026/05/14 10:32:21.648,-0.013,0.054,1.004
2026/05/14 10:32:21.667,-0.017,0.057,1.006
2026/05/14 10:32:21.685,-0.019,0.055,1.003
2026/05/14 10:32:21.704,-0.015,0.052,1.001
2026/05/14 10:32:21.722,-0.015,0.054,1.004
2026/05/14 10:32:21.741,-0.014,0.053,1.0
2026/05/14 10:32:21.759,-0.015,0.053,1.005
2026/05/14 10:32:21.778,-0.015,0.053,1.004
2026/05/14 10:32:21.796,-0.013,0.055,1.003
2026/05/14 10:32:21.815,-0.016,0.054,1.002
2026/05/14 10:32:21.834,-0.013,0.055,1.001
2026/05/14 10:32:21.852,-0.016,0.053,1.003
2026/05/14 10:32:21.871,-0.01,0.055,1.007
2026/05/14 10:32:21.889,-0.014,0.058,1.004
2026/05/14 10:32:21.908,-0.014,0.054,1.006
2026/05/14 10:32:21.926,-0.018,0.054,1.005
2026/05/14 10:32:21.945,-0.011,0.05,1.001
2026/05/14 10:32:21.963,-0.018,0.054,1.003
2026/05/14 10:32:21.982,-0.018,0.053,1.007
2026/05/14 10:32:22.000,-0.015,0.054,1.008
2026/05/14 10:32:22.019,-0.014,0.056,1.006
2026/05/14 10:32:22.037,-0.014,0.056,1.002
2026/05/14 10:32:22.056,-0.015,0.055,0.999
2026/05/14 10:32:22.075,-0.018,0.053,1.001
2026/05/14 10:32:22.093,-0.012,0.056,1.007
2026/05/14 10:32:22.112,-0.012,0.058,1.004
2026/05/14 10:32:22.130,-0.011,0.054,1.006
2026/05/14 10:32:22.149,-0.017,0.055,1.009
2026/05/14 10:32:22.167,-0.015,0.057,1.004
2026/05/14 10:32:22.186,-0.014,0.055,1.006
2026/05/14 10:32:22.204,-0.014,0.05,1.004
2026/05/14 10:32:22.223,-0.015,0.055,1.004
2026/05/14 10:32:22.241,-0.014,0.052,1.005
2026/05/14 10:32:22.260,-0.018,0.053,1.007
2026/05/14 10:32:22.279,-0.013,0.059,1.003
2026/05/14 10:32:22.297,-0.013,0.052,1.004
2026/05/14 10:32:22.316,-0.019,0.057,1.001
2026/05/14 10:32:22.334,-0.015,0.055,1.006
2026/05/14 10:32:22.353,-0.012,0.056,0.999
2026/05/14 10:32:22.371,-0.016,0.056,0.999
2026/05/14 10:32:22.390,-0.015,0.055,1.0
2026/05/14 10:32:22.408,-0.016,0.055,1.003
2026/05/14 10:32:22.427,-0.016,0.055,1.002
2026/05/14 10:32:22.445,-0.013,0.055,1.002
2026/05/14 10:32:22.464,-0.014,0.055,0.999
2026/05/14 10:32:22.483,-0.018,0.055,1.004
2026/05/14 10:32:22.501,-0.018,0.059,1.003
2026/05/14 10:32:22.520,-0.015,0.055,1.004
2026/05/14 10:32:22.538,-0.018,0.058,1.0
2026/05/14 10:32:22.557,-0.014,0.052,1.001
2026/05/14 10:32:22.575,-0.01,0.058,1.003
2026/05/14 10:32:22.594,-0.015,0.052,1.006
2026/05/14 10:32:22.612,-0.017,0.053,1.001
2026/05/14 10:32:22.631,-0.016,0.054,1.002
2026/05/14 10:32:22.649,-0.014,0.055,0.999
2026/05/14 10:32:22.668,-0.018,0.059,1.001
2026/05/14 10:32:22.687,-0.011,0.056,1.001
2026/05/14 10:32:22.705,-0.018,0.053,1.002
2026/05/14 10:32:22.724,-0.015,0.052,0.999
2026/05/14 10:32:22.742,-0.014,0.061,1.001
2026/05/14 10:32:22.761,-0.016,0.055,1.004
2026/05/14 10:32:22.779,-0.015,0.057,0.999
2026/05/14 10:32:22.798,-0.014,0.057,1.001
2026/05/14 10:32:22.816,-0.017,0.058,1.0
2026/05/14 10:32:22.835,-0.012,0.056,1.004
2026/05/14 10:32:22.853,-0.017,0.052,1.003
2026/05/14 10:32:22.872,-0.012,0.057,1.001
2026/05/14 10:32:22.890,-0.016,0.055,1.001
2026/05/14 10:32:22.909,-0.014,0.053,1.004
2026/05/14 10:32:22.928,-0.013,0.053,1.0
2026/05/14 10:32:22.946,-0.014,0.059,1.003
2026/05/14 10:32:22.965,-0.013,0.053,0.999
2026/05/14 10:32:22.983,-0.018,0.057,1.004
2026/05/14 10:32:23.002,-0.013,0.052,1.004
2026/05/14 10:32:23.020,-0.014,0.054,1.004
2026/05/14 10:32:23.039,-0.015,0.056,1.0
2026/05/14 10:32:23.057,-0.018,0.052,1.004
2026/05/14 10:32:23.076,-0.013,0.054,0.999
2026/05/14 10:32:23.094,-0.012,0.055,1.003
2026/05/14 10:32:23.113,-0.016,0.056,1.007
2026/05/14 10:32:23.132,-0.014,0.05,1.006
2026/05/14 10:32:23.150,-0.016,0.058,1.005
2026/05/14 10:32:23.169,-0.019,0.055,1.006
2026/05/14 10:32:23.187,-0.017,0.056,1.006
2026/05/14 10:32:23.206,-0.016,0.053,1.004
2026/05/14 10:32:23.224,-0.016,0.054,1.005
2026/05/14 10:32:23.243,-0.012,0.052,1.002
2026/05/14 10:32:23.261,-0.013,0.054,1.003
2026/05/14 10:32:23.280,-0.013,0.056,1.003
2026/05/14 10:32:23.298,-0.014,0.06,1.005
2026/05/14 10:32:23.317,-0.014,0.056,1.005
2026/05/14 10:32:23.336,-0.014,0.05,0.999
2026/05/14 10:32:23.354,-0.013,0.055,1.004
2026/05/14 10:32:23.373,-0.016,0.052,1.003
2026/05/14 10:32:23.391,-0.016,0.053,1.004
2026/05/14 10:32:23.410,-0.014,0.055,1.005
2026/05/14 10:32:23.428,-0.015,0.055,1.007
2026/05/14 10:32:23.447,-0.011,0.058,1.005
2026/05/14 10:32:23.465,-0.011,0.053,1.004
2026/05/14 10:32:23.484,-0.015,0.056,1.008
2026/05/14 10:32:23.502,-0.017,0.057,1.003
2026/05/14 10:32:23.521,-0.018,0.053,1.001
2026/05/14 10:32:23.539,-0.016,0.054,1.005
2026/05/14 10:32:23.558,-0.019,0.056,1.006
2026/05/14 10:32:23.577,-0.009,0.052,1.005
2026/05/14 10:32:23.595,-0.02,0.054,1.002
2026/05/14 10:32:23.614,-0.014,0.051,1.006
2026/05/14 10:32:23.632,-0.011,0.057,1.003
2026/05/14 10:32:23.651,-0.012,0.056,1.005
2026/05/14 10:32:23.669,-0.018,0.055,1.009
2026/05/14 10:32:23.688,-0.017,0.059,1.0
2026/05/14 10:32:23.706,-0.015,0.055,1.003
2026/05/14 10:32:23.725,-0.014,0.055,1.001
2026/05/14 10:32:23.743,-0.013,0.055,1.008
2026/05/14 10:32:23.762,-0.017,0.06,1.004
2026/05/14 10:32:23.781,-0.015,0.053,1.001
2026/05/14 10:32:23.799,-0.015,0.054,1.006
2026/05/14 10:32:23.818,-0.016,0.056,1.006
2026/05/14 10:32:23.836,-0.018,0.051,1.004
2026/05/14 10:32:23.855,-0.014,0.059,1.009
2026/05/14 10:32:23.873,-0.011,0.056,1.005
2026/05/14 10:32:23.892,-0.015,0.06,1.004
2026/05/14 10:32:23.910,-0.012,0.056,1.002
2026/05/14 10:32:23.929,-0.019,0.056,1.003
2026/05/14 10:32:23.947,-0.014,0.057,1.003
2026/05/14 10:32:23.966,-0.01,0.054,1.007
2026/05/14 10:32:23.985,-0.018,0.055,1.003
2026/05/14 10:32:24.003,-0.015,0.056,1.006
2026/05/14 10:32:24.022,-0.015,0.058,1.004
2026/05/14 10:32:24.040,-0.017,0.061,1.0
2026/05/14 10:32:24.059,-0.02,0.056,1.004
2026/05/14 10:32:24.077,-0.012,0.052,1.003
2026/05/14 10:32:24.096,-0.012,0.058,1.002
2026/05/14 10:32:24.114,-0.016,0.053,1.005
2026/05/14 10:32:24.133,-0.012,0.059,1.004
2026/05/14 10:32:24.151,-0.013,0.057,1.006
2026/05/14 10:32:24.170,-0.016,0.057,1.006
2026/05/14 10:32:24.188,-0.015,0.059,1.008
2026/05/14 10:32:24.207,-0.018,0.056,1.003
2026/05/14 10:32:24.226,-0.017,0.052,1.001
2026/05/14 10:32:24.244,-0.013,0.053,1.006
2026/05/14 10:32:24.263,-0.012,0.057,1.004
2026/05/14 10:32:24.281,-0.014,0.058,1.007
2026/05/14 10:32:24.300,-0.016,0.053,1.005
2026/05/14 10:32:24.318,-0.012,0.057,1.0
2026/05/14 10:32:24.337,-0.012,0.051,1.003
2026/05/14 10:32:24.355,-0.015,0.057,1.006
2026/05/14 10:32:24.374,-0.01,0.052,1.003
2026/05/14 10:32:24.392,-0.015,0.055,1.006
2026/05/14 10:32:24.411,-0.015,0.049,1.002
2026/05/14 10:32:24.430,-0.017,0.056,1.005
2026/05/14 10:32:24.448,-0.014,0.058,0.999
2026/05/14 10:32:24.467,-0.014,0.054,1.006
2026/05/14 10:32:24.485,-0.013,0.052,1.003
2026/05/14 10:32:24.504,-0.015,0.059,1.002
2026/05/14 10:32:24.522,-0.018,0.051,1.003
2026/05/14 10:32:24.541,-0.014,0.057,1.004
2026/05/14 10:32:24.559,-0.015,0.057,1.005
2026/05/14 10:32:24.578,-0.011,0.055,0.999
2026/05/14 10:32:24.596,-0.012,0.054,1.0
2026/05/14 10:32:24.615,-0.014,0.054,1.001
2026/05/14 10:32:24.633,-0.016,0.058,1.008
2026/05/14 10:32:24.652,-0.016,0.052,1.003
2026/05/14 10:32:24.671,-0.014,0.058,1.01
2026/05/14 10:32:24.689,-0.018,0.053,1.005
2026/05/14 10:32:24.708,-0.012,0.056,1.004
2026/05/14 10:32:24.726,-0.017,0.055,1.001
2026/05/14 10:32:24.745,-0.01,0.051,1.003
2026/05/14 10:32:24.763,-0.014,0.054,1.002
2026/05/14 10:32:24.782,-0.015,0.056,1.004
2026/05/14 10:32:24.800,-0.014,0.055,1.003
2026/05/14 10:32:24.819,-0.016,0.055,1.0
2026/05/14 10:32:24.837,-0.014,0.058,1.002
2026/05/14 10:32:24.856,-0.014,0.055,1.007
2026/05/14 10:32:24.875,-0.018,0.056,1.007
2026/05/14 10:32:24.893,-0.018,0.055,1.0
2026/05/14 10:32:24.912,-0.015,0.055,1.002
2026/05/14 10:32:24.930,-0.012,0.055,1.006
2026/05/14 10:32:24.949,-0.018,0.058,1.007
2026/05/14 10:32:24.967,-0.017,0.056,1.006
2026/05/14 10:32:24.986,-0.013,0.058,1.004
2026/05/14 10:32:25.004,-0.011,0.056,1.003
2026/05/14 10:32:25.023,-0.017,0.054,1.004
2026/05/14 10:32:25.041,-0.015,0.051,1.005
2026/05/14 10:32:25.060,-0.014,0.056,1.003
2026/05/14 10:32:25.079,-0.018,0.056,1.006
2026/05/14 10:32:25.097,-0.017,0.054,1.006
2026/05/14 10:32:25.116,-0.014,0.056,1.007
2026/05/14 10:32:25.134,-0.014,0.057,1.004
2026/05/14 10:32:25.153,-0.015,0.057,1.006
2026/05/14 10:32:25.171,-0.016,0.053,1.002
2026/05/14 10:32:25.190,-0.017,0.056,1.006
2026/05/14 10:32:25.208,-0.013,0.055,1.0
2026/05/14 10:32:25.227,-0.015,0.051,1.004
2026/05/14 10:32:25.245,-0.013,0.054,1.001
2026/05/14 10:32:25.264,-0.015,0.054,1.004
2026/05/14 10:32:25.282,-0.017,0.054,1.006
2026/05/14 10:32:25.301,-0.012,0.057,1.002
2026/05/14 10:32:25.320,-0.014,0.056,1.004
2026/05/14 10:32:25.338,-0.016,0.059,1.001
2026/05/14 10:32:25.357,-0.016,0.054,1.008
2026/05/14 10:32:25.375,-0.014,0.055,1.005
2026/05/14 10:32:25.394,-0.014,0.056,1.003
2026/05/14 10:32:25.412,-0.015,0.056,1.001
2026/05/14 10:32:25.431,-0.014,0.053,1.002
2026/05/14 10:32:25.449,-0.014,0.052,1.005
2026/05/14 10:32:25.468,-0.015,0.054,1.004
2026/05/14 10:32:25.486,-0.014,0.052,1.004
2026/05/14 10:32:25.505,-0.015,0.053,1.005
2026/05/14 10:32:25.524,-0.015,0.059,1.004
2026/05/14 10:32:25.542,-0.017,0.059,1.004
2026/05/14 10:32:25.561,-0.013,0.057,1.006
2026/05/14 10:32:25.579,-0.014,0.051,1.003
2026/05/14 10:32:25.598,-0.015,0.053,1.006
2026/05/14 10:32:25.616,-0.013,0.057,1.001
2026/05/14 10:32:25.635,-0.014,0.056,1.004
2026/05/14 10:32:25.653,-0.015,0.053,1.009
2026/05/14 10:32:25.672,-0.012,0.059,1.007
2026/05/14 10:32:25.690,-0.013,0.056,1.004
2026/05/14 10:32:25.709,-0.016,0.054,1.002
2026/05/14 10:32:25.728,-0.019,0.056,1.002
2026/05/14 10:32:25.746,-0.015,0.056,1.011
2026/05/14 10:32:25.765,-0.013,0.058,1.004
2026/05/14 10:32:25.783,-0.013,0.052,1.004
2026/05/14 10:32:25.802,-0.015,0.056,1.008
2026/05/14 10:32:25.820,-0.017,0.052,1.006
2026/05/14 10:32:25.839,-0.018,0.057,1.003
2026/05/14 10:32:25.857,-0.014,0.059,1.004
2026/05/14 10:32:25.876,-0.01,0.056,1.004
2026/05/14 10:32:25.894,-0.019,0.056,1.005
2026/05/14 10:32:25.913,-0.017,0.055,1.0
2026/05/14 10:32:25.931,-0.014,0.056,1.01
2026/05/14 10:32:25.950,-0.016,0.054,1.005
2026/05/14 10:32:25.969,-0.013,0.056,1.005
2026/05/14 10:32:25.987,-0.014,0.057,1.003
2026/05/14 10:32:26.006,-0.014,0.056,1.003
2026/05/14 10:32:26.024,-0.019,0.056,1.006
2026/05/14 10:32:26.043,-0.015,0.057,1.0
2026/05/14 10:32:26.061,-0.012,0.057,0.999
2026/05/14 10:32:26.080,-0.015,0.053,1.001
2026/05/14 10:32:26.098,-0.015,0.054,0.998
2026/05/14 10:32:26.117,-0.013,0.056,1.004
2026/05/14 10:32:26.135,-0.018,0.055,1.004
2026/05/14 10:32:26.154,-0.015,0.055,1.004
2026/05/14 10:32:26.173,-0.013,0.051,1.0
2026/05/14 10:32:26.191,-0.018,0.057,1.007
2026/05/14 10:32:26.210,-0.016,0.053,1.009
2026/05/14 10:32:26.228,-0.014,0.057,1.006
2026/05/14 10:32:26.247,-0.018,0.053,1.005
2026/05/14 10:32:26.265,-0.015,0.055,1.005
2026/05/14 10:32:26.284,-0.012,0.054,1.004
2026/05/14 10:32:26.302,-0.014,0.053,1.003
2026/05/14 10:32:26.321,-0.019,0.051,1.0
2026/05/14 10:32:26.339,-0.013,0.055,1.008
2026/05/14 10:32:26.358,-0.017,0.058,1.003
2026/05/14 10:32:26.376,-0.017,0.054,1.008
2026/05/14 10:32:26.395,-0.018,0.059,1.008
2026/05/14 10:32:26.414,-0.017,0.055,1.007
2026/05/14 10:32:26.432,-0.018,0.054,1.0
2026/05/14 10:32:26.451,-0.012,0.053,1.004
2026/05/14 10:32:26.469,-0.017,0.055,1.003
2026/05/14 10:32:26.488,-0.013,0.057,1.002
2026/05/14 10:32:26.506,-0.013,0.052,1.004
2026/05/14 10:32:26.525,-0.014,0.053,1.01
2026/05/14 10:32:26.543,-0.016,0.054,1.005
2026/05/14 10:32:26.562,-0.018,0.056,1.002
2026/05/14 10:32:26.580,-0.015,0.058,1.008
2026/05/14 10:32:26.599,-0.016,0.058,1.001
2026/05/14 10:32:26.618,-0.013,0.053,1.005
2026/05/14 10:32:26.636,-0.012,0.054,1.005
2026/05/14 10:32:26.655,-0.014,0.056,1.003
2026/05/14 10:32:26.673,-0.018,0.057,1.005
2026/05/14 10:32:26.692,-0.018,0.057,1.004
2026/05/14 10:32:26.710,-0.017,0.057,1.003
2026/05/14 10:32:26.729,-0.011,0.054,1.002
2026/05/14 10:32:26.747,-0.016,0.055,1.003
2026/05/14 10:32:26.766,-0.014,0.058,1.004
2026/05/14 10:32:26.784,-0.013,0.056,1.002
2026/05/14 10:32:26.803,-0.016,0.054,1.003
2026/05/14 10:32:26.822,-0.016,0.054,1.003
2026/05/14 10:32:26.840,-0.016,0.055,1.006
2026/05/14 10:32:26.859,-0.013,0.053,1.001
2026/05/14 10:32:26.877,-0.014,0.051,1.002
2026/05/14 10:32:26.896,-0.01,0.057,1.002
2026/05/14 10:32:26.914,-0.018,0.055,1.005
2026/05/14 10:32:26.933,-0.014,0.054,1.006
2026/05/14 10:32:26.951,-0.012,0.054,1.003
2026/05/14 10:32:26.970,-0.014,0.057,0.999
2026/05/14 10:32:26.988,-0.018,0.057,1.008
2026/05/14 10:32:27.007,-0.015,0.055,0.998
2026/05/14 10:32:27.025,-0.012,0.056,1.006
2026/05/14 10:32:27.044,-0.016,0.056,1.003
2026/05/14 10:32:27.063,-0.01,0.052,1.002
2026/05/14 10:32:27.081,-0.02,0.053,1.004
2026/05/14 10:32:27.100,-0.016,0.052,1.003
2026/05/14 10:32:27.118,-0.015,0.051,1.006
2026/05/14 10:32:27.137,-0.015,0.054,1.003
2026/05/14 10:32:27.155,-0.014,0.054,1.004
2026/05/14 10:32:27.174,-0.017,0.052,1.007
2026/05/14 10:32:27.192,-0.015,0.052,1.002
2026/05/14 10:32:27.211,-0.012,0.057,1.004
2026/05/14 10:32:27.229,-0.014,0.055,1.007
2026/05/14 10:32:27.248,-0.015,0.052,1.002
2026/05/14 10:32:27.267,-0.018,0.051,1.004
2026/05/14 10:32:27.285,-0.016,0.049,1.002
2026/05/14 10:32:27.304,-0.016,0.052,1.005
2026/05/14 10:32:27.322,-0.015,0.054,1.007
2026/05/14 10:32:27.341,-0.013,0.055,1.002
2026/05/14 10:32:27.359,-0.015,0.055,0.999
2026/05/14 10:32:27.378,-0.013,0.057,1.001
2026/05/14 10:32:27.396,-0.013,0.054,1.004
2026/05/14 10:32:27.415,-0.016,0.056,1.003
2026/05/14 10:32:27.433,-0.016,0.057,1.001
2026/05/14 10:32:27.452,-0.015,0.056,1.006
2026/05/14 10:32:27.470,-0.017,0.06,1.004
2026/05/14 10:32:27.489,-0.014,0.059,0.998
2026/05/14 10:32:27.508,-0.015,0.057,1.005
2026/05/14 10:32:27.526,-0.017,0.054,1.005
2026/05/14 10:32:27.545,-0.013,0.055,1.0
2026/05/14 10:32:27.563,-0.016,0.054,0.999
2026/05/14 10:32:27.582,-0.016,0.055,1.005
2026/05/14 10:32:27.600,-0.018,0.058,0.999
2026/05/14 10:32:27.619,-0.014,0.056,1.003
2026/05/14 10:32:27.637,-0.016,0.057,1.004
2026/05/14 10:32:27.656,-0.017,0.054,1.004
2026/05/14 10:32:27.674,-0.012,0.057,1.002
2026/05/14 10:32:27.693,-0.011,0.054,1.002
2026/05/14 10:32:27.712,-0.017,0.057,1.004
2026/05/14 10:32:27.730,-0.013,0.06,1.001
2026/05/14 10:32:27.749,-0.017,0.055,1.007
2026/05/14 10:32:27.767,-0.012,0.059,1.005
2026/05/14 10:32:27.786,-0.016,0.053,0.999
2026/05/14 10:32:27.804,-0.009,0.056,1.0
2026/05/14 10:32:27.823,-0.012,0.053,1.006
2026/05/14 10:32:27.841,-0.015,0.057,1.002
2026/05/14 10:32:27.860,-0.014,0.058,1.003
2026/05/14 10:32:27.878,-0.016,0.051,1.003
2026/05/14 10:32:27.897,-0.016,0.057,1.004
2026/05/14 10:32:27.916,-0.019,0.056,1.005
2026/05/14 10:32:27.934,-0.01,0.059,1.001
2026/05/14 10:32:27.953,-0.011,0.056,1.002
2026/05/14 10:32:27.971,-0.016,0.056,1.007
2026/05/14 10:32:27.990,-0.011,0.055,1.005
2026/05/14 10:32:28.008,-0.014,0.053,1.002
2026/05/14 10:32:28.027,-0.016,0.056,1.003
2026/05/14 10:32:28.045,-0.012,0.054,1.002
2026/05/14 10:32:28.064,-0.014,0.055,1.003
2026/05/14 10:32:28.082,-0.014,0.055,1.003
2026/05/14 10:32:28.101,-0.014,0.057,1.003
2026/05/14 10:32:28.119,-0.015,0.056,1.007
2026/05/14 10:32:28.138,-0.016,0.051,1.007
2026/05/14 10:32:28.157,-0.014,0.055,1.004
2026/05/14 10:32:28.175,-0.018,0.05,1.004
2026/05/14 10:32:28.194,-0.016,0.055,1.005
2026/05/14 10:32:28.212,-0.018,0.053,1.006
2026/05/14 10:32:28.231,-0.015,0.058,1.003
2026/05/14 10:32:28.249,-0.016,0.051,1.003
2026/05/14 10:32:28.268,-0.018,0.054,1.003
2026/05/14 10:32:28.286,-0.015,0.054,1.001
2026/05/14 10:32:28.305,-0.016,0.055,1.004
2026/05/14 10:32:28.323,-0.014,0.057,1.003
2026/05/14 10:32:28.342,-0.013,0.053,1.004
2026/05/14 10:32:28.360,-0.014,0.056,1.005
2026/05/14 10:32:28.379,-0.014,0.056,1.001
2026/05/14 10:32:28.398,-0.016,0.056,0.999
2026/05/14 10:32:28.416,-0.012,0.054,1.003
2026/05/14 10:32:28.435,-0.013,0.055,1.005
2026/05/14 10:32:28.453,-0.014,0.057,1.004
2026/05/14 10:32:28.472,-0.014,0.057,1.001
2026/05/14 10:32:28.490,-0.012,0.056,1.006
2026/05/14 10:32:28.509,-0.011,0.057,1.005
2026/05/14 10:32:28.527,-0.018,0.054,1.002
2026/05/14 10:32:28.546,-0.011,0.054,1.005
2026/05/14 10:32:28.564,-0.016,0.058,1.005
2026/05/14 10:32:28.583,-0.018,0.052,1.002
2026/05/14 10:32:28.602,-0.015,0.053,1.009
2026/05/14 10:32:28.620,-0.015,0.052,1.004
2026/05/14 10:32:28.639,-0.013,0.057,1.005
2026/05/14 10:32:28.657,-0.013,0.056,1.003
2026/05/14 10:32:28.676,-0.016,0.054,1.001
2026/05/14 10:32:28.694,-0.016,0.053,1.003
2026/05/14 10:32:28.713,-0.013,0.056,1.004
2026/05/14 10:32:28.731,-0.01,0.058,1.003
2026/05/14 10:32:28.750,-0.015,0.056,1.004
2026/05/14 10:32:28.768,-0.013,0.056,1.007
2026/05/14 10:32:28.787,-0.014,0.056,1.008
2026/05/14 10:32:28.805,-0.019,0.053,0.999
2026/05/14 10:32:28.824,-0.018,0.056,1.004
2026/05/14 10:32:28.843,-0.016,0.052,1.006
2026/05/14 10:32:28.861,-0.016,0.054,1.001
2026/05/14 10:32:28.880,-0.011,0.056,1.005
2026/05/14 10:32:28.898,-0.017,0.057,1.005
2026/05/14 10:32:28.917,-0.014,0.056,1.006
2026/05/14 10:32:28.935,-0.016,0.059,1.003
2026/05/14 10:32:28.954,-0.014,0.057,1.001
2026/05/14 10:32:28.972,-0.014,0.051,1.003
2026/05/14 10:32:28.991,-0.015,0.059,1.003
2026/05/14 10:32:29.009,-0.012,0.054,1.003
2026/05/14 10:32:29.028,-0.014,0.058,1.0
2026/05/14 10:32:29.047,-0.015,0.056,1.0
2026/05/14 10:32:29.065,-0.014,0.055,1.007
2026/05/14 10:32:29.084,-0.015,0.054,1.008
2026/05/14 10:32:29.102,-0.014,0.054,1.001
2026/05/14 10:32:29.121,-0.017,0.056,1.002
2026/05/14 10:32:29.139,-0.015,0.056,1.008
2026/05/14 10:32:29.158,-0.01,0.053,1.006
2026/05/14 10:32:29.176,-0.011,0.055,1.006
2026/05/14 10:32:29.195,-0.012,0.051,1.003
2026/05/14 10:32:29.213,-0.021,0.053,1.008
2026/05/14 10:32:29.232,-0.017,0.055,1.002
2026/05/14 10:32:29.250,-0.012,0.056,1.0
2026/05/14 10:32:29.269,-0.016,0.055,1.003
2026/05/14 10:32:29.288,-0.014,0.053,1.002
2026/05/14 10:32:29.306,-0.017,0.052,1.001
2026/05/14 10:32:29.325,-0.012,0.054,1.009
2026/05/14 10:32:29.343,-0.014,0.053,1.001
2026/05/14 10:32:29.362,-0.015,0.052,1.007
2026/05/14 10:32:29.380,-0.014,0.056,1.005
2026/05/14 10:32:29.399,-0.014,0.058,1.005
2026/05/14 10:32:29.417,-0.016,0.057,1.005
2026/05/14 10:32:29.436,-0.015,0.054,1.006
2026/05/14 10:32:29.454,-0.015,0.056,1.002
2026/05/14 10:32:29.473,-0.015,0.054,1.006
2026/05/14 10:32:29.492,-0.015,0.052,1.003
2026/05/14 10:32:29.510,-0.016,0.057,1.002
2026/05/14 10:32:29.529,-0.019,0.055,1.0
2026/05/14 10:32:29.547,-0.014,0.052,1.003
2026/05/14 10:32:29.566,-0.016,0.054,1.007
2026/05/14 10:32:29.584,-0.017,0.054,1.002
2026/05/14 10:32:29.603,-0.015,0.052,1.005
2026/05/14 10:32:29.621,-0.018,0.055,1.003
2026/05/14 10:32:29.640,-0.012,0.055,1.003
2026/05/14 10:32:29.658,-0.013,0.056,1.003
2026/05/14 10:32:29.677,-0.009,0.058,1.007
2026/05/14 10:32:29.695,-0.016,0.055,1.007
2026/05/14 10:32:29.714,-0.015,0.053,1.001
2026/05/14 10:32:29.733,-0.017,0.056,1.005
2026/05/14 10:32:29.751,-0.015,0.054,1.003
2026/05/14 10:32:29.770,-0.012,0.052,1.004
2026/05/14 10:32:29.788,-0.015,0.051,1.004
2026/05/14 10:32:29.807,-0.01,0.053,1.003
2026/05/14 10:32:29.825,-0.012,0.057,1.004
2026/05/14 10:32:29.844,-0.015,0.052,1.004
2026/05/14 10:32:29.862,-0.013,0.055,1.004
2026/05/14 10:32:29.881,-0.015,0.056,1.001
2026/05/14 10:32:29.899,-0.014,0.055,1.008
2026/05/14 10:32:29.918,-0.016,0.056,1.004
2026/05/14 10:32:29.936,-0.013,0.057,1.006
2026/05/14 10:32:29.955,-0.016,0.053,1.003
2026/05/14 10:32:29.974,-0.017,0.056,1.004
2026/05/14 10:32:29.992,-0.013,0.051,1.007
2026/05/14 10:32:30.011,-0.013,0.057,1.005
2026/05/14 10:32:30.029,-0.015,0.057,1.006
2026/05/14 10:32:30.048,-0.012,0.053,1.009
2026/05/14 10:32:30.066,-0.013,0.054,1.008
2026/05/14 10:32:30.085,-0.014,0.055,1.01
2026/05/14 10:32:30.103,-0.015,0.055,1.004
2026/05/14 10:32:30.122,-0.016,0.057,1.008
2026/05/14 10:32:30.140,-0.011,0.054,1.007
2026/05/14 10:32:30.159,-0.016,0.05,1.002
2026/05/14 10:32:30.178,-0.014,0.053,1.001
2026/05/14 10:32:30.196,-0.013,0.055,1.004
2026/05/14 10:32:30.215,-0.016,0.054,1.006
2026/05/14 10:32:30.233,-0.015,0.051,1.001
2026/05/14 10:32:30.252,-0.016,0.056,1.004
2026/05/14 10:32:30.270,-0.015,0.057,1.004
2026/05/14 10:32:30.289,-0.014,0.054,1.005
2026/05/14 10:32:30.307,-0.012,0.056,1.005
2026/05/14 10:32:30.326,-0.014,0.054,1.006
2026/05/14 10:32:30.344,-0.015,0.053,1.001
2026/05/14 10:32:30.363,-0.013,0.056,1.003
2026/05/14 10:32:30.381,-0.015,0.055,1.006
2026/05/14 10:32:30.400,-0.013,0.052,1.002
2026/05/14 10:32:30.419,-0.015,0.054,1.0
2026/05/14 10:32:30.437,-0.013,0.059,1.005
2026/05/14 10:32:30.456,-0.014,0.052,1.0
2026/05/14 10:32:30.474,-0.015,0.056,1.001
2026/05/14 10:32:30.493,-0.014,0.055,1.005
2026/05/14 10:32:30.511,-0.013,0.053,1.002
2026/05/14 10:32:30.530,-0.016,0.059,1.001
2026/05/14 10:32:30.548,-0.011,0.057,0.999
2026/05/14 10:32:30.567,-0.016,0.056,1.006
2026/05/14 10:32:30.585,-0.018,0.057,1.0
2026/05/14 10:32:30.604,-0.014,0.056,1.006
2026/05/14 10:32:30.623,-0.013,0.055,1.002
2026/05/14 10:32:30.641,-0.014,0.057,1.002
2026/05/14 10:32:30.660,-0.01,0.051,1.008
2026/05/14 10:32:30.678,-0.015,0.058,1.004
2026/05/14 10:32:30.697,-0.012,0.052,1.004
2026/05/14 10:32:30.715,-0.015,0.053,0.999
2026/05/14 10:32:30.734,-0.015,0.052,1.004
2026/05/14 10:32:30.752,-0.012,0.054,1.004
2026/05/14 10:32:30.771,-0.016,0.051,1.008
2026/05/14 10:32:30.789,-0.011,0.052,1.001
2026/05/14 10:32:30.808,-0.016,0.058,1.004
2026/05/14 10:32:30.826,-0.012,0.056,1.002
2026/05/14 10:32:30.845,-0.011,0.054,1.005
2026/05/14 10:32:30.864,-0.016,0.056,1.002
2026/05/14 10:32:30.882,-0.02,0.051,1.005
2026/05/14 10:32:30.901,-0.017,0.058,1.005
2026/05/14 10:32:30.919,-0.015,0.052,1.001
2026/05/14 10:32:30.938,-0.015,0.057,1.004
2026/05/14 10:32:30.956,-0.012,0.057,1.006
2026/05/14 10:32:30.975,-0.015,0.057,1.005
2026/05/14 10:32:30.993,-0.014,0.055,1.0
2026/05/14 10:32:31.012,-0.016,0.057,1.004
2026/05/14 10:32:31.030,-0.017,0.053,1.003
2026/05/14 10:32:31.049,-0.018,0.057,1.004
2026/05/14 10:32:31.068,-0.016,0.054,1.0
2026/05/14 10:32:31.086,-0.01,0.055,1.004
2026/05/14 10:32:31.105,-0.018,0.051,1.001
2026/05/14 10:32:31.123,-0.015,0.059,1.003
2026/05/14 10:32:31.142,-0.014,0.055,1.004
2026/05/14 10:32:31.160,-0.015,0.055,1.003
2026/05/14 10:32:31.179,-0.012,0.053,1.0
2026/05/14 10:32:31.197,-0.014,0.056,1.002
2026/05/14 10:32:31.216,-0.016,0.053,1.004
2026/05/14 10:32:31.234,-0.012,0.052,1.002
2026/05/14 10:32:31.253,-0.013,0.059,1.0
2026/05/14 10:32:31.271,-0.015,0.056,1.006
2026/05/14 10:32:31.290,-0.014,0.055,1.006
2026/05/14 10:32:31.309,-0.012,0.057,1.002
2026/05/14 10:32:31.327,-0.012,0.053,1.005
2026/05/14 10:32:31.346,-0.017,0.061,1.005
2026/05/14 10:32:31.364,-0.012,0.056,1.005
2026/05/14 10:32:31.383,-0.017,0.057,1.0
2026/05/14 10:32:31.401,-0.016,0.059,1.004
2026/05/14 10:32:31.420,-0.019,0.052,1.003
2026/05/14 10:32:31.438,-0.014,0.058,1.004
2026/05/14 10:32:31.457,-0.012,0.055,1.004
2026/05/14 10:32:31.475,-0.014,0.057,1.003
2026/05/14 10:32:31.494,-0.016,0.055,1.001
2026/05/14 10:32:31.513,-0.014,0.053,1.004
2026/05/14 10:32:31.531,-0.013,0.054,1.007
2026/05/14 10:32:31.550,-0.014,0.06,1.0
2026/05/14 10:32:31.568,-0.015,0.054,1.005
2026/05/14 10:32:31.587,-0.011,0.055,1.002
2026/05/14 10:32:31.605,-0.016,0.058,1.007
2026/05/14 10:32:31.624,-0.014,0.051,1.0
2026/05/14 10:32:31.642,-0.013,0.053,0.999
2026/05/14 10:32:31.661,-0.013,0.055,1.004
2026/05/14 10:32:31.679,-0.016,0.057,1.006
2026/05/14 10:32:31.698,-0.013,0.056,1.005
2026/05/14 10:32:31.716,-0.013,0.054,1.002
2026/05/14 10:32:31.735,-0.016,0.053,1.005
2026/05/14 10:32:31.754,-0.012,0.053,1.002
2026/05/14 10:32:31.772,-0.014,0.056,1.006
2026/05/14 10:32:31.791,-0.018,0.056,1.002
2026/05/14 10:32:31.809,-0.016,0.055,1.005
2026/05/14 10:32:31.828,-0.015,0.049,1.003
2026/05/14 10:32:31.846,-0.013,0.056,1.005
2026/05/14 10:32:31.865,-0.018,0.053,1.007
2026/05/14 10:32:31.883,-0.016,0.054,1.008
2026/05/14 10:32:31.902,-0.013,0.053,1.003
2026/05/14 10:32:31.920,-0.011,0.056,1.004
2026/05/14 10:32:31.939,-0.016,0.059,1.002
2026/05/14 10:32:31.958,-0.017,0.058,1.003
2026/05/14 10:32:31.976,-0.017,0.056,1.007
2026/05/14 10:32:31.995,-0.015,0.052,1.006
2026/05/14 10:32:32.013,-0.015,0.058,1.002
2026/05/14 10:32:32.032,-0.012,0.054,1.003
2026/05/14 10:32:32.050,-0.015,0.057,1.002
2026/05/14 10:32:32.069,-0.017,0.052,1.002
2026/05/14 10:32:32.087,-0.013,0.052,1.004
2026/05/14 10:32:32.106,-0.014,0.056,1.01
2026/05/14 10:32:32.124,-0.015,0.053,1.002
2026/05/14 10:32:32.143,-0.018,0.059,1.004
2026/05/14 10:32:32.161,-0.014,0.055,1.002
2026/05/14 10:32:32.180,-0.014,0.056,1.005
2026/05/14 10:32:32.199,-0.017,0.054,1.001
2026/05/14 10:32:32.217,-0.019,0.055,1.002
2026/05/14 10:32:32.236,-0.015,0.055,1.009
2026/05/14 10:32:32.254,-0.019,0.055,1.002
2026/05/14 10:32:32.273,-0.015,0.057,1.001
2026/05/14 10:32:32.291,-0.014,0.056,1.004
2026/05/14 10:32:32.310,-0.015,0.055,0.999
2026/05/14 10:32:32.328,-0.014,0.057,1.004
2026/05/14 10:32:32.347,-0.016,0.054,1.006
2026/05/14 10:32:32.365,-0.012,0.054,1.005
2026/05/14 10:32:32.384,-0.016,0.057,1.005
2026/05/14 10:32:32.403,-0.011,0.056,1.007
2026/05/14 10:32:32.421,-0.013,0.059,1.002
2026/05/14 10:32:32.440,-0.017,0.057,1.003
2026/05/14 10:32:32.458,-0.017,0.054,1.004
2026/05/14 10:32:32.477,-0.013,0.059,1.002
2026/05/14 10:32:32.495,-0.014,0.055,1.0
2026/05/14 10:32:32.514,-0.01,0.055,1.002
2026/05/14 10:32:32.532,-0.014,0.055,1.004
2026/05/14 10:32:32.551,-0.016,0.052,1.005
2026/05/14 10:32:32.569,-0.013,0.052,1.004
2026/05/14 10:32:32.588,-0.015,0.057,1.006
2026/05/14 10:32:32.606,-0.016,0.058,1.004
2026/05/14 10:32:32.625,-0.018,0.054,1.004
2026/05/14 10:32:32.644,-0.017,0.055,1.003
2026/05/14 10:32:32.662,-0.014,0.056,1.004
2026/05/14 10:32:32.681,-0.013,0.059,1.003
2026/05/14 10:32:32.699,-0.014,0.052,1.001
2026/05/14 10:32:32.718,-0.014,0.055,1.0
2026/05/14 10:32:32.736,-0.011,0.057,1.001
2026/05/14 10:32:32.755,-0.014,0.052,1.006
2026/05/14 10:32:32.773,-0.015,0.053,1.005
2026/05/14 10:32:32.792,-0.017,0.059,1.005
2026/05/14 10:32:32.810,-0.016,0.058,1.003
2026/05/14 10:32:32.829,-0.016,0.056,1.004
2026/05/14 10:32:32.848,-0.016,0.056,1.006
2026/05/14 10:32:32.866,-0.014,0.055,1.0
2026/05/14 10:32:32.885,-0.014,0.052,1.005
2026/05/14 10:32:32.903,-0.014,0.054,1.004
2026/05/14 10:32:32.922,-0.012,0.055,1.004
2026/05/14 10:32:32.940,-0.014,0.054,1.005
2026/05/14 10:32:32.959,-0.012,0.056,0.999
2026/05/14 10:32:32.977,-0.018,0.058,1.004
2026/05/14 10:32:32.996,-0.016,0.056,1.008
2026/05/14 10:32:33.014,-0.015,0.056,1.004
2026/05/14 10:32:33.033,-0.016,0.052,1.009
2026/05/14 10:32:33.052,-0.012,0.055,1.004
2026/05/14 10:32:33.070,-0.018,0.056,1.002
2026/05/14 10:32:33.089,-0.015,0.052,1.005
2026/05/14 10:32:33.107,-0.014,0.054,1.005
2026/05/14 10:32:33.126,-0.014,0.056,1.001
2026/05/14 10:32:33.144,-0.019,0.056,1.003
2026/05/14 10:32:33.163,-0.014,0.053,1.003
2026/05/14 10:32:33.181,-0.012,0.058,1.01
2026/05/14 10:32:33.200,-0.012,0.051,1.003
2026/05/14 10:32:33.218,-0.016,0.055,1.007
2026/05/14 10:32:33.237,-0.013,0.051,1.003
2026/05/14 10:32:33.255,-0.017,0.053,1.007
2026/05/14 10:32:33.274,-0.009,0.055,1.004
2026/05/14 10:32:33.293,-0.012,0.051,1.008
2026/05/14 10:32:33.311,-0.017,0.053,1.004
2026/05/14 10:32:33.330,-0.012,0.055,1.001
2026/05/14 10:32:33.348,-0.018,0.051,1.004
2026/05/14 10:32:33.367,-0.014,0.051,1.003
2026/05/14 10:32:33.385,-0.013,0.054,1.004
2026/05/14 10:32:33.404,-0.01,0.051,1.002
2026/05/14 10:32:33.422,-0.017,0.056,1.005
2026/05/14 10:32:33.441,-0.014,0.056,1.0
2026/05/14 10:32:33.459,-0.017,0.051,1.0
2026/05/14 10:32:33.478,-0.016,0.054,1.001
2026/05/14 10:32:33.497,-0.016,0.056,1.006
2026/05/14 10:32:33.515,-0.018,0.052,1.002
2026/05/14 10:32:33.534,-0.013,0.053,1.004
2026/05/14 10:32:33.552,-0.014,0.056,1.002
2026/05/14 10:32:33.571,-0.015,0.057,1.006
2026/05/14 10:32:33.589,-0.013,0.055,1.004
2026/05/14 10:32:33.608,-0.012,0.053,1.007
2026/05/14 10:32:33.626,-0.015,0.051,1.006
2026/05/14 10:32:33.645,-0.014,0.055,1.005
2026/05/14 10:32:33.663,-0.013,0.053,1.006
2026/05/14 10:32:33.682,-0.013,0.051,1.006
2026/05/14 10:32:33.700,-0.017,0.054,1.008
2026/05/14 10:32:33.719,-0.017,0.054,1.003
2026/05/14 10:32:33.738,-0.015,0.055,1.0
2026/05/14 10:32:33.756,-0.012,0.053,1.003
2026/05/14 10:32:33.775,-0.01,0.051,1.006
2026/05/14 10:32:33.793,-0.019,0.058,1.004
2026/05/14 10:32:33.812,-0.017,0.06,1.004
2026/05/14 10:32:33.830,-0.017,0.053,1.002
2026/05/14 10:32:33.849,-0.016,0.057,1.002
2026/05/14 10:32:33.867,-0.017,0.055,1.003
2026/05/14 10:32:33.886,-0.016,0.057,1.001
2026/05/14 10:32:33.904,-0.015,0.052,1.002
2026/05/14 10:32:33.923,-0.02,0.055,1.002
2026/05/14 10:32:33.942,-0.012,0.055,1.004
2026/05/14 10:32:33.960,-0.015,0.056,1.003
2026/05/14 10:32:33.979,-0.015,0.051,1.001
2026/05/14 10:32:33.997,-0.012,0.056,1.004
2026/05/14 10:32:34.016,-0.018,0.053,1.003
2026/05/14 10:32:34.034,-0.015,0.052,1.006
2026/05/14 10:32:34.053,-0.013,0.054,1.002
2026/05/14 10:32:34.071,-0.014,0.054,1.005
2026/05/14 10:32:34.090,-0.015,0.058,1.002
2026/05/14 10:32:34.108,-0.015,0.053,1.001
2026/05/14 10:32:34.127,-0.016,0.055,1.006
2026/05/14 10:32:34.145,-0.016,0.056,1.008
2026/05/14 10:32:34.164,-0.015,0.054,1.004
2026/05/14 10:32:34.183,-0.016,0.055,1.005
2026/05/14 10:32:34.201,-0.018,0.052,1.004
2026/05/14 10:32:34.220,-0.015,0.051,1.005
2026/05/14 10:32:34.238,-0.014,0.056,1.001
2026/05/14 10:32:34.257,-0.015,0.055,1.007
2026/05/14 10:32:34.275,-0.017,0.055,1.002
2026/05/14 10:32:34.294,-0.016,0.054,1.005
2026/05/14 10:32:34.312,-0.012,0.055,1.006
2026/05/14 10:32:34.331,-0.016,0.054,1.001
2026/05/14 10:32:34.349,-0.015,0.053,1.004
2026/05/14 10:32:34.368,-0.018,0.056,1.001
2026/05/14 10:32:34.387,-0.019,0.054,1.002
2026/05/14 10:32:34.405,-0.012,0.052,1.007
2026/05/14 10:32:34.424,-0.013,0.053,1.007
2026/05/14 10:32:34.442,-0.012,0.052,1.005
2026/05/14 10:32:34.461,-0.014,0.054,1.004
2026/05/14 10:32:34.479,-0.013,0.055,1.009
2026/05/14 10:32:34.498,-0.017,0.052,1.002
2026/05/14 10:32:34.516,-0.013,0.052,1.005
2026/05/14 10:32:34.535,-0.012,0.057,1.004
2026/05/14 10:32:34.553,-0.018,0.058,1.001
2026/05/14 10:32:34.572,-0.014,0.052,1.004
2026/05/14 10:32:34.590,-0.017,0.056,1.002
2026/05/14 10:32:34.609,-0.018,0.054,1.004
2026/05/14 10:32:34.628,-0.013,0.054,1.002
2026/05/14 10:32:34.646,-0.014,0.053,1.006
2026/05/14 10:32:34.665,-0.015,0.054,1.003
2026/05/14 10:32:34.683,-0.017,0.054,1.003
2026/05/14 10:32:34.702,-0.016,0.055,1.002
2026/05/14 10:32:34.720,-0.015,0.053,1.0
2026/05/14 10:32:34.739,-0.014,0.057,1.003
2026/05/14 10:32:34.757,-0.015,0.053,1.008
2026/05/14 10:32:34.776,-0.016,0.054,1.006
2026/05/14 10:32:34.794,-0.016,0.056,1.008
2026/05/14 10:32:34.813,-0.013,0.052,1.001
2026/05/14 10:32:34.832,-0.014,0.058,1.005
2026/05/14 10:32:34.850,-0.009,0.058,1.004
2026/05/14 10:32:34.869,-0.011,0.053,1.005
2026/05/14 10:32:34.887,-0.012,0.058,1.004
2026/05/14 10:32:34.906,-0.015,0.056,0.999
2026/05/14 10:32:34.924,-0.017,0.054,1.004
2026/05/14 10:32:34.943,-0.018,0.054,1.005
2026/05/14 10:32:34.961,-0.016,0.057,1.003
2026/05/14 10:32:34.980,-0.016,0.052,1.001
2026/05/14 10:32:34.998,-0.012,0.054,1.006
2026/05/14 10:32:35.017,-0.013,0.056,1.007
2026/05/14 10:32:35.035,-0.015,0.056,1.007
2026/05/14 10:32:35.054,-0.017,0.055,1.007
2026/05/14 10:32:35.073,-0.016,0.057,1.004
2026/05/14 10:32:35.091,-0.017,0.056,1.006
2026/05/14 10:32:35.110,-0.016,0.054,1.005
2026/05/14 10:32:35.128,-0.011,0.051,1.003
2026/05/14 10:32:35.147,-0.017,0.053,1.01
2026/05/14 10:32:35.165,-0.015,0.056,1.001
2026/05/14 10:32:35.184,-0.011,0.057,1.003
2026/05/14 10:32:35.202,-0.017,0.052,1.007
2026/05/14 10:32:35.221,-0.018,0.055,1.004
2026/05/14 10:32:35.239,-0.017,0.05,1.0
2026/05/14 10:32:35.258,-0.017,0.053,0.999
2026/05/14 10:32:35.277,-0.014,0.06,1.004
2026/05/14 10:32:35.295,-0.012,0.053,1.005
2026/05/14 10:32:35.314,-0.016,0.053,1.003
2026/05/14 10:32:35.332,-0.015,0.059,1.003
2026/05/14 10:32:35.351,-0.017,0.055,1.002
2026/05/14 10:32:35.369,-0.013,0.058,1.003
2026/05/14 10:32:35.388,-0.018,0.055,1.003
2026/05/14 10:32:35.406,-0.016,0.056,1.004
2026/05/14 10:32:35.425,-0.016,0.058,1.001
2026/05/14 10:32:35.443,-0.018,0.05,1.001
2026/05/14 10:32:35.462,-0.017,0.055,1.002
2026/05/14 10:32:35.480,-0.013,0.055,1.003
2026/05/14 10:32:35.499,-0.011,0.054,1.004
2026/05/14 10:32:35.518,-0.013,0.055,0.999
2026/05/14 10:32:35.536,-0.01,0.052,1.011
2026/05/14 10:32:35.555,-0.019,0.054,1.003
2026/05/14 10:32:35.573,-0.018,0.055,1.005
2026/05/14 10:32:35.592,-0.012,0.056,1.004
2026/05/14 10:32:35.610,-0.017,0.056,1.005
2026/05/14 10:32:35.629,-0.014,0.056,1.005
2026/05/14 10:32:35.647,-0.016,0.05,1.006
2026/05/14 10:32:35.666,-0.013,0.055,1.001
2026/05/14 10:32:35.684,-0.014,0.053,1.005
2026/05/14 10:32:35.703,-0.009,0.056,1.005
2026/05/14 10:32:35.722,-0.013,0.053,1.003
2026/05/14 10:32:35.740,-0.014,0.055,1.002
2026/05/14 10:32:35.759,-0.017,0.052,1.0
2026/05/14 10:32:35.777,-0.013,0.056,1.002
2026/05/14 10:32:35.796,-0.014,0.055,1.001
2026/05/14 10:32:35.814,-0.012,0.055,1.005
2026/05/14 10:32:35.833,-0.013,0.054,1.002
2026/05/14 10:32:35.851,-0.015,0.055,1.0
2026/05/14 10:32:35.870,-0.013,0.057,1.008
2026/05/14 10:32:35.888,-0.016,0.055,1.004
2026/05/14 10:32:35.907,-0.009,0.052,1.006
2026/05/14 10:32:35.925,-0.013,0.055,1.004
2026/05/14 10:32:35.944,-0.015,0.052,1.006
2026/05/14 10:32:35.963,-0.016,0.056,1.001
2026/05/14 10:32:35.981,-0.017,0.057,1.007
2026/05/14 10:32:36.000,-0.013,0.054,1.0
2026/05/14 10:32:36.018,-0.015,0.06,1.005
2026/05/14 10:32:36.037,-0.014,0.055,1.007
2026/05/14 10:32:36.055,-0.013,0.054,1.003
2026/05/14 10:32:36.074,-0.017,0.056,1.002
2026/05/14 10:32:36.092,-0.017,0.054,1.002
2026/05/14 10:32:36.111,-0.016,0.054,1.007
2026/05/14 10:32:36.129,-0.016,0.052,1.0
2026/05/14 10:32:36.148,-0.017,0.054,0.999
2026/05/14 10:32:36.167,-0.012,0.056,1.005
2026/05/14 10:32:36.185,-0.015,0.055,1.006
2026/05/14 10:32:36.204,-0.018,0.053,1.003
2026/05/14 10:32:36.222,-0.018,0.054,1.006
2026/05/14 10:32:36.241,-0.018,0.054,1.004
2026/05/14 10:32:36.259,-0.016,0.054,1.005
2026/05/14 10:32:36.278,-0.017,0.056,1.001
2026/05/14 10:32:36.296,-0.015,0.057,1.011
2026/05/14 10:32:36.315,-0.017,0.057,1.006
2026/05/14 10:32:36.333,-0.017,0.059,1.005
2026/05/14 10:32:36.352,-0.014,0.054,1.006
2026/05/14 10:32:36.371,-0.012,0.058,1.0
2026/05/14 10:32:36.389,-0.016,0.053,1.001
2026/05/14 10:32:36.408,-0.01,0.05,1.003
2026/05/14 10:32:36.426,-0.015,0.056,1.002
2026/05/14 10:32:36.445,-0.015,0.056,1.002
2026/05/14 10:32:36.463,-0.015,0.055,1.006
2026/05/14 10:32:36.482,-0.011,0.051,1.006
2026/05/14 10:32:36.500,-0.013,0.053,1.003
2026/05/14 10:32:36.519,-0.017,0.058,1.004
2026/05/14 10:32:36.537,-0.017,0.054,1.004
2026/05/14 10:32:36.556,-0.018,0.054,1.003
2026/05/14 10:32:36.574,-0.016,0.058,1.005
2026/05/14 10:32:36.593,-0.012,0.055,1.005
2026/05/14 10:32:36.612,-0.014,0.054,1.0
2026/05/14 10:32:36.630,-0.015,0.052,1.001
2026/05/14 10:32:36.649,-0.017,0.056,1.002
2026/05/14 10:32:36.667,-0.017,0.057,1.007
2026/05/14 10:32:36.686,-0.015,0.058,1.005
2026/05/14 10:32:36.704,-0.015,0.057,1.001
2026/05/14 10:32:36.723,-0.015,0.055,1.002
2026/05/14 10:32:36.741,-0.013,0.054,1.002
2026/05/14 10:32:36.760,-0.016,0.056,1.003
2026/05/14 10:32:36.778,-0.011,0.056,0.999
2026/05/14 10:32:36.797,-0.017,0.054,1.005
2026/05/14 10:32:36.816,-0.016,0.056,1.002
2026/05/14 10:32:36.834,-0.017,0.057,1.001
2026/05/14 10:32:36.853,-0.015,0.054,1.003
2026/05/14 10:32:36.871,-0.015,0.056,1.002
2026/05/14 10:32:36.890,-0.014,0.055,1.002
2026/05/14 10:32:36.908,-0.015,0.056,1.004
2026/05/14 10:32:36.927,-0.014,0.056,1.003
2026/05/14 10:32:36.945,-0.011,0.057,1.0
2026/05/14 10:32:36.964,-0.017,0.055,1.003
2026/05/14 10:32:36.982,-0.018,0.055,1.009
2026/05/14 10:32:37.001,-0.021,0.056,1.003
2026/05/14 10:32:37.019,-0.012,0.055,1.005
2026/05/14 10:32:37.038,-0.014,0.054,0.999
2026/05/14 10:32:37.057,-0.015,0.059,1.003
2026/05/14 10:32:37.075,-0.011,0.056,1.005
2026/05/14 10:32:37.094,-0.013,0.057,1.006
2026/05/14 10:32:37.112,-0.016,0.059,1.007
2026/05/14 10:32:37.131,-0.014,0.055,1.009
2026/05/14 10:32:37.149,-0.017,0.053,1.004
2026/05/14 10:32:37.168,-0.015,0.058,1.005
2026/05/14 10:32:37.186,-0.022,0.053,1.002
2026/05/14 10:32:37.205,-0.015,0.056,1.002
2026/05/14 10:32:37.223,-0.014,0.056,1.008
2026/05/14 10:32:37.242,-0.018,0.054,1.003
2026/05/14 10:32:37.261,-0.014,0.055,1.004
2026/05/14 10:32:37.279,-0.015,0.059,1.006
2026/05/14 10:32:37.298,-0.014,0.053,1.004
2026/05/14 10:32:37.316,-0.017,0.058,1.002
2026/05/14 10:32:37.335,-0.019,0.059,0.997
2026/05/14 10:32:37.353,-0.018,0.057,1.001
2026/05/14 10:32:37.372,-0.011,0.06,1.004
2026/05/14 10:32:37.390,-0.006,0.055,1.006
2026/05/14 10:32:37.409,-0.007,0.055,1.004
2026/05/14 10:32:37.427,-0.01,0.05,1.003
2026/05/14 10:32:37.446,-0.008,0.047,1.003
2026/05/14 10:32:37.465,-0.017,0.048,1.002
2026/05/14 10:32:37.483,-0.021,0.048,1.005
2026/05/14 10:32:37.502,-0.024,0.051,1.005
2026/05/14 10:32:37.520,-0.019,0.051,1.001
2026/05/14 10:32:37.539,-0.013,0.054,1.006
2026/05/14 10:32:37.557,-0.013,0.052,1.005
2026/05/14 10:32:37.576,-0.008,0.053,1.001
2026/05/14 10:32:37.594,-0.007,0.057,1.002
2026/05/14 10:32:37.613,-0.012,0.058,1.005
2026/05/14 10:32:37.631,-0.021,0.057,0.999
2026/05/14 10:32:37.650,-0.023,0.054,1.001
2026/05/14 10:32:37.668,-0.022,0.056,1.001
2026/05/14 10:32:37.687,-0.023,0.062,1.001
2026/05/14 10:32:37.706,-0.02,0.061,1.007
2026/05/14 10:32:37.724,0.006,0.111,1.027
2026/05/14 10:32:37.743,0.298,-0.133,1.339
2026/05/14 10:32:37.761,-0.361,-0.215,1.773
2026/05/14 10:32:37.780,-0.064,-0.175,1.52
2026/05/14 10:32:37.798,-0.082,0.009,1.042
2026/05/14 10:32:37.817,0.011,0.057,1.012
2026/05/14 10:32:37.835,0.001,-0.02,1.144
2026/05/14 10:32:37.854,-0.032,0.062,0.926
2026/05/14 10:32:37.872,-0.022,0.06,1.04
2026/05/14 10:32:37.891,-0.026,0.078,0.981
2026/05/14 10:32:37.910,-0.012,0.061,1.0
2026/05/14 10:32:37.928,-0.016,0.073,1.015
2026/05/14 10:32:37.947,-0.009,0.069,1.009
2026/05/14 10:32:37.965,-0.011,0.082,0.991
2026/05/14 10:32:37.984,-0.026,0.059,1.005
2026/05/14 10:32:38.002,-0.026,0.057,1.023
2026/05/14 10:32:38.021,-0.03,0.049,0.978
2026/05/14 10:32:38.039,-0.018,0.041,1.002
2026/05/14 10:32:38.058,-0.008,0.046,1.001
2026/05/14 10:32:38.076,0.001,0.041,1.009
2026/05/14 10:32:38.095,-0.004,0.04,1.007
2026/05/14 10:32:38.114,-0.025,0.047,1.001
2026/05/14 10:32:38.132,-0.029,0.055,1.003
2026/05/14 10:32:38.151,-0.028,0.06,0.997
2026/05/14 10:32:38.169,-0.023,0.06,1.003
2026/05/14 10:32:38.188,-0.025,0.066,1.004
2026/05/14 10:32:38.206,-0.011,0.064,1.008
2026/05/14 10:32:38.225,0.0,0.067,0.997
2026/05/14 10:32:38.243,-0.004,0.061,1.002
2026/05/14 10:32:38.262,-0.007,0.057,1.003
2026/05/14 10:32:38.280,-0.01,0.057,1.0
2026/05/14 10:32:38.299,-0.014,0.059,1.002
2026/05/14 10:32:38.317,-0.02,0.052,1.003
2026/05/14 10:32:38.336,-0.024,0.045,1.003
2026/05/14 10:32:38.355,-0.018,0.041,1.0
2026/05/14 10:32:38.373,-0.019,0.044,1.006
2026/05/14 10:32:38.392,-0.018,0.047,1.004
2026/05/14 10:32:38.410,-0.016,0.05,1.005
2026/05/14 10:32:38.429,-0.019,0.056,1.007
2026/05/14 10:32:38.447,-0.018,0.059,1.0
2026/05/14 10:32:38.466,-0.019,0.061,0.999
2026/05/14 10:32:38.484,-0.012,0.061,1.009
2026/05/14 10:32:38.503,-0.016,0.063,0.999
2026/05/14 10:32:38.521,-0.013,0.065,0.999
2026/05/14 10:32:38.540,-0.013,0.062,1.006
2026/05/14 10:32:38.559,-0.014,0.063,1.003
2026/05/14 10:32:38.577,-0.017,0.058,1.004
2026/05/14 10:32:38.596,-0.014,0.049,1.001
2026/05/14 10:32:38.614,-0.012,0.046,1.004
2026/05/14 10:32:38.633,-0.018,0.036,1.002
2026/05/14 10:32:38.651,-0.018,0.041,1.002
2026/05/14 10:32:38.670,-0.019,0.044,1.004
2026/05/14 10:32:38.688,-0.021,0.051,1.002
2026/05/14 10:32:38.707,-0.018,0.052,1.001
2026/05/14 10:32:38.725,-0.009,0.059,1.003
2026/05/14 10:32:38.744,-0.008,0.059,1.003
2026/05/14 10:32:38.763,-0.012,0.064,1.005
2026/05/14 10:32:38.781,-0.01,0.066,0.999
2026/05/14 10:32:38.800,-0.013,0.067,1.009
2026/05/14 10:32:38.818,-0.021,0.064,1.007
2026/05/14 10:32:38.837,-0.022,0.06,1.002
2026/05/14 10:32:38.855,-0.022,0.055,1.007
2026/05/14 10:32:38.874,-0.019,0.055,1.003
2026/05/14 10:32:38.892,-0.006,0.046,1.006
2026/05/14 10:32:38.911,-0.009,0.05,0.998
2026/05/14 10:32:38.929,-0.009,0.05,1.005
2026/05/14 10:32:38.948,-0.007,0.048,1.003
2026/05/14 10:32:38.967,-0.019,0.048,1.002
2026/05/14 10:32:38.985,-0.02,0.055,1.0
2026/05/14 10:32:39.004,-0.021,0.058,1.002
2026/05/14 10:32:39.022,-0.02,0.056,1.0
2026/05/14 10:32:39.041,-0.013,0.061,1.002
2026/05/14 10:32:39.059,-0.013,0.061,1.003
2026/05/14 10:32:39.078,-0.009,0.058,1.01
2026/05/14 10:32:39.096,-0.01,0.054,1.006
2026/05/14 10:32:39.115,-0.014,0.055,1.006
2026/05/14 10:32:39.133,-0.018,0.051,1.004
2026/05/14 10:32:39.152,-0.018,0.049,1.001
2026/05/14 10:32:39.171,-0.02,0.052,0.999
2026/05/14 10:32:39.189,-0.016,0.051,1.006
2026/05/14 10:32:39.208,-0.015,0.049,1.006
2026/05/14 10:32:39.226,-0.009,0.055,1.002
2026/05/14 10:32:39.245,-0.014,0.054,0.999
2026/05/14 10:32:39.263,-0.015,0.059,1.003
2026/05/14 10:32:39.282,-0.014,0.058,1.003
2026/05/14 10:32:39.300,-0.014,0.061,1.002
2026/05/14 10:32:39.319,-0.017,0.059,1.003
2026/05/14 10:32:39.337,-0.015,0.055,1.007
2026/05/14 10:32:39.356,-0.008,0.055,1.001
2026/05/14 10:32:39.375,-0.013,0.056,1.004
2026/05/14 10:32:39.393,-0.014,0.049,1.004
2026/05/14 10:32:39.412,-0.015,0.048,1.006
2026/05/14 10:32:39.430,-0.016,0.052,1.009
2026/05/14 10:32:39.449,-0.021,0.049,1.008
2026/05/14 10:32:39.467,-0.017,0.051,1.009
2026/05/14 10:32:39.486,-0.016,0.052,1.004
2026/05/14 10:32:39.504,-0.018,0.051,1.005
2026/05/14 10:32:39.523,-0.016,0.055,1.002
2026/05/14 10:32:39.541,-0.013,0.056,1.005
2026/05/14 10:32:39.560,-0.014,0.053,1.003
2026/05/14 10:32:39.578,-0.018,0.056,1.003
2026/05/14 10:32:39.597,-0.015,0.06,1.002
2026/05/14 10:32:39.616,-0.011,0.058,1.006
2026/05/14 10:32:39.634,-0.009,0.059,1.005
2026/05/14 10:32:39.653,-0.01,0.058,1.008
2026/05/14 10:32:39.671,-0.009,0.058,1.001
2026/05/14 10:32:39.690,-0.008,0.059,1.005
2026/05/14 10:32:39.708,-0.015,0.061,0.999
2026/05/14 10:32:39.727,-0.019,0.054,1.008
2026/05/14 10:32:39.745,-0.017,0.048,1.004
2026/05/14 10:32:39.764,-0.023,0.048,1.003
2026/05/14 10:32:39.782,-0.017,0.041,1.003
2026/05/14 10:32:39.801,-0.017,0.049,1.004
2026/05/14 10:32:39.820,-0.014,0.045,1.005
2026/05/14 10:32:39.838,-0.013,0.051,1.002
2026/05/14 10:32:39.857,-0.011,0.054,1.004
2026/05/14 10:32:39.875,-0.015,0.06,1.007
2026/05/14 10:32:39.894,-0.013,0.062,1.001
2026/05/14 10:32:39.912,-0.014,0.065,1.001
2026/05/14 10:32:39.931,-0.015,0.063,1.003
2026/05/14 10:32:39.949,-0.017,0.061,1.003
2026/05/14 10:32:39.968,-0.016,0.064,1.001
2026/05/14 10:32:39.986,-0.012,0.06,1.002
2026/05/14 10:32:40.005,-0.017,0.056,0.999
2026/05/14 10:32:40.024,-0.012,0.053,1.003
2026/05/14 10:32:40.042,-0.013,0.049,1.008
2026/05/14 10:32:40.061,-0.017,0.048,1.007
2026/05/14 10:32:40.079,-0.013,0.043,1.002
2026/05/14 10:32:40.098,-0.019,0.049,1.009
2026/05/14 10:32:40.116,-0.019,0.052,1.003
2026/05/14 10:32:40.135,-0.023,0.056,1.003
2026/05/14 10:32:40.153,-0.018,0.058,1.003
2026/05/14 10:32:40.172,-0.013,0.058,1.006
2026/05/14 10:32:40.190,-0.013,0.06,1.002
2026/05/14 10:32:40.209,-0.009,0.061,1.007
2026/05/14 10:32:40.228,-0.013,0.058,1.002
2026/05/14 10:32:40.246,-0.011,0.06,1.002
2026/05/14 10:32:40.265,-0.013,0.059,1.005
2026/05/14 10:32:40.283,-0.011,0.049,1.005
2026/05/14 10:32:40.302,-0.018,0.048,1.002
2026/05/14 10:32:40.320,-0.018,0.047,1.009
2026/05/14 10:32:40.339,-0.02,0.047,1.006
2026/05/14 10:32:40.357,-0.015,0.048,1.008
2026/05/14 10:32:40.376,-0.014,0.049,1.001
2026/05/14 10:32:40.394,-0.012,0.052,1.003
2026/05/14 10:32:40.413,-0.012,0.058,1.002
2026/05/14 10:32:40.431,-0.013,0.057,0.999
2026/05/14 10:32:40.450,-0.016,0.061,1.005
2026/05/14 10:32:40.469,-0.013,0.061,1.003
2026/05/14 10:32:40.487,-0.015,0.063,1.002
2026/05/14 10:32:40.506,-0.015,0.057,1.003
2026/05/14 10:32:40.524,-0.011,0.053,1.004
2026/05/14 10:32:40.543,-0.017,0.049,1.006
2026/05/14 10:32:40.561,-0.012,0.049,1.001
2026/05/14 10:32:40.580,-0.013,0.049,1.003
2026/05/14 10:32:40.598,-0.014,0.048,1.004
2026/05/14 10:32:40.617,-0.015,0.049,1.001
2026/05/14 10:32:40.635,-0.017,0.051,1.005
2026/05/14 10:32:40.654,-0.012,0.052,0.998
2026/05/14 10:32:40.673,-0.01,0.056,1.002
2026/05/14 10:32:40.691,-0.007,0.061,1.008
2026/05/14 10:32:40.710,-0.008,0.064,1.001
2026/05/14 10:32:40.728,-0.011,0.061,1.008
2026/05/14 10:32:40.747,-0.012,0.061,1.006
2026/05/14 10:32:40.765,-0.015,0.056,1.007
2026/05/14 10:32:40.784,-0.015,0.051,1.007
2026/05/14 10:32:40.802,-0.016,0.05,1.009
2026/05/14 10:32:40.821,-0.016,0.052,1.003
2026/05/14 10:32:40.839,-0.018,0.047,1.005
2026/05/14 10:32:40.858,-0.014,0.046,1.002
2026/05/14 10:32:40.877,-0.012,0.051,1.005
2026/05/14 10:32:40.895,-0.013,0.058,1.004
2026/05/14 10:32:40.914,-0.011,0.057,1.002
2026/05/14 10:32:40.932,-0.015,0.064,1.007
2026/05/14 10:32:40.951,-0.016,0.06,1.004
2026/05/14 10:32:40.969,-0.016,0.061,1.002
2026/05/14 10:32:40.988,-0.018,0.061,1.001
2026/05/14 10:32:41.006,-0.016,0.057,0.999
2026/05/14 10:32:41.025,-0.015,0.055,1.001
2026/05/14 10:32:41.043,-0.014,0.052,1.006
2026/05/14 10:32:41.062,-0.015,0.048,1.004
2026/05/14 10:32:41.080,-0.016,0.051,1.004
2026/05/14 10:32:41.099,-0.016,0.049,1.004
2026/05/14 10:32:41.118,-0.016,0.056,1.002
2026/05/14 10:32:41.136,-0.015,0.055,1.001
2026/05/14 10:32:41.155,-0.013,0.055,1.002
2026/05/14 10:32:41.173,-0.012,0.056,1.001
2026/05/14 10:32:41.192,-0.011,0.057,1.007
2026/05/14 10:32:41.210,-0.014,0.06,1.001
2026/05/14 10:32:41.229,-0.01,0.058,1.0
2026/05/14 10:32:41.247,-0.016,0.057,1.003
2026/05/14 10:32:41.266,-0.017,0.056,1.0
2026/05/14 10:32:41.284,-0.014,0.056,1.002
2026/05/14 10:32:41.303,-0.015,0.054,1.001
2026/05/14 10:32:41.322,-0.019,0.051,1.004
2026/05/14 10:32:41.340,-0.02,0.051,1.0
2026/05/14 10:32:41.359,-0.017,0.051,1.005
2026/05/14 10:32:41.377,-0.018,0.053,1.004
2026/05/14 10:32:41.396,-0.017,0.053,0.998
2026/05/14 10:32:41.414,-0.015,0.05,1.011
2026/05/14 10:32:41.433,-0.015,0.051,1.004
2026/05/14 10:32:41.451,-0.015,0.05,1.007
2026/05/14 10:32:41.470,-0.015,0.058,1.005
2026/05/14 10:32:41.488,-0.01,0.058,1.002
2026/05/14 10:32:41.507,-0.014,0.058,1.006
2026/05/14 10:32:41.526,-0.013,0.059,1.007
2026/05/14 10:32:41.544,-0.011,0.054,1.0
2026/05/14 10:32:41.563,-0.017,0.062,1.001
2026/05/14 10:32:41.581,-0.014,0.053,1.002
2026/05/14 10:32:41.600,-0.017,0.057,1.0
2026/05/14 10:32:41.618,-0.008,0.055,1.005
2026/05/14 10:32:41.637,-0.015,0.052,1.001
2026/05/14 10:32:41.655,-0.018,0.056,1.001
2026/05/14 10:32:41.674,-0.016,0.054,1.006
2026/05/14 10:32:41.692,-0.017,0.054,1.004
2026/05/14 10:32:41.711,-0.018,0.053,1.002
2026/05/14 10:32:41.729,-0.017,0.054,0.998
2026/05/14 10:32:41.748,-0.013,0.053,1.011
2026/05/14 10:32:41.767,-0.015,0.056,1.007
2026/05/14 10:32:41.785,-0.016,0.056,1.007
2026/05/14 10:32:41.804,-0.015,0.058,1.004
2026/05/14 10:32:41.822,-0.018,0.057,1.004
2026/05/14 10:32:41.841,-0.016,0.054,1.005
2026/05/14 10:32:41.859,-0.019,0.054,1.004
2026/05/14 10:32:41.878,-0.015,0.055,1.005
2026/05/14 10:32:41.896,-0.016,0.055,1.005
2026/05/14 10:32:41.915,-0.014,0.051,0.999
2026/05/14 10:32:41.933,-0.015,0.057,1.005
2026/05/14 10:32:41.952,-0.015,0.055,1.004
2026/05/14 10:32:41.971,-0.016,0.055,1.008
2026/05/14 10:32:41.989,-0.018,0.054,1.003
2026/05/14 10:32:42.008,-0.019,0.053,1.002
2026/05/14 10:32:42.026,-0.017,0.057,1.0
2026/05/14 10:32:42.045,-0.013,0.059,1.005
2026/05/14 10:32:42.063,-0.011,0.062,1.002
2026/05/14 10:32:42.082,-0.016,0.06,1.008
2026/05/14 10:32:42.100,-0.016,0.053,1.004
2026/05/14 10:32:42.119,-0.017,0.054,1.001
2026/05/14 10:32:42.137,-0.017,0.056,1.004
2026/05/14 10:32:42.156,-0.017,0.052,0.999
2026/05/14 10:32:42.175,-0.012,0.053,1.005
2026/05/14 10:32:42.193,-0.013,0.053,1.004
2026/05/14 10:32:42.212,-0.011,0.052,1.001
2026/05/14 10:32:42.230,-0.015,0.055,1.002
2026/05/14 10:32:42.249,-0.017,0.055,1.004
2026/05/14 10:32:42.267,-0.013,0.054,1.003
2026/05/14 10:32:42.286,-0.017,0.052,1.005
2026/05/14 10:32:42.304,-0.018,0.054,1.009
2026/05/14 10:32:42.323,-0.012,0.053,1.002
2026/05/14 10:32:42.341,-0.013,0.055,1.006
2026/05/14 10:32:42.360,-0.01,0.055,1.008
2026/05/14 10:32:42.378,-0.015,0.055,1.0
2026/05/14 10:32:42.397,-0.014,0.053,1.003
2026/05/14 10:32:42.416,-0.013,0.06,1.005
2026/05/14 10:32:42.434,-0.016,0.056,1.004
2026/05/14 10:32:42.453,-0.017,0.056,1.003
2026/05/14 10:32:42.471,-0.015,0.057,1.001
2026/05/14 10:32:42.490,-0.016,0.056,1.002
2026/05/14 10:32:42.508,-0.012,0.059,0.999
2026/05/14 10:32:42.527,-0.015,0.054,1.004
2026/05/14 10:32:42.545,-0.011,0.054,1.004
2026/05/14 10:32:42.564,-0.015,0.057,1.004
2026/05/14 10:32:42.582,-0.013,0.055,1.007
2026/05/14 10:32:42.601,-0.017,0.05,1.005
2026/05/14 10:32:42.620,-0.016,0.052,1.005
2026/05/14 10:32:42.638,-0.011,0.052,1.002
2026/05/14 10:32:42.657,-0.014,0.053,1.0
2026/05/14 10:32:42.675,-0.014,0.054,1.007
2026/05/14 10:32:42.694,-0.014,0.053,1.001
2026/05/14 10:32:42.712,-0.011,0.053,1.004
2026/05/14 10:32:42.731,-0.02,0.056,1.004
2026/05/14 10:32:42.749,-0.014,0.054,1.008
2026/05/14 10:32:42.768,-0.016,0.05,1.003
2026/05/14 10:32:42.786,-0.014,0.054,1.004
2026/05/14 10:32:42.805,-0.017,0.052,1.003
2026/05/14 10:32:42.824,-0.016,0.055,1.003
2026/05/14 10:32:42.842,-0.013,0.055,1.004
2026/05/14 10:32:42.861,-0.011,0.053,1.002
2026/05/14 10:32:42.879,-0.012,0.06,1.005
2026/05/14 10:32:42.898,-0.012,0.059,1.005
2026/05/14 10:32:42.916,-0.01,0.06,1.004
2026/05/14 10:32:42.935,-0.011,0.061,1.001
2026/05/14 10:32:42.953,-0.016,0.057,1.006
2026/05/14 10:32:42.972,-0.017,0.056,1.001
2026/05/14 10:32:42.990,-0.016,0.058,1.01
2026/05/14 10:32:43.009,-0.014,0.051,1.002
2026/05/14 10:32:43.027,-0.012,0.055,1.004
2026/05/14 10:32:43.046,-0.013,0.055,1.005
2026/05/14 10:32:43.065,-0.015,0.052,1.003
2026/05/14 10:32:43.083,-0.016,0.05,0.999
2026/05/14 10:32:43.102,-0.016,0.053,1.006
2026/05/14 10:32:43.120,-0.017,0.051,1.003
2026/05/14 10:32:43.139,-0.014,0.054,1.0
2026/05/14 10:32:43.157,-0.017,0.059,1.004
2026/05/14 10:32:43.176,-0.013,0.058,1.003
2026/05/14 10:32:43.194,-0.013,0.058,0.998
2026/05/14 10:32:43.213,-0.018,0.054,1.006
2026/05/14 10:32:43.231,-0.013,0.056,1.005
2026/05/14 10:32:43.250,-0.017,0.057,1.004
2026/05/14 10:32:43.269,-0.015,0.051,1.001
2026/05/14 10:32:43.287,-0.014,0.055,1.004
2026/05/14 10:32:43.306,-0.013,0.051,1.004
2026/05/14 10:32:43.324,-0.015,0.046,1.003
2026/05/14 10:32:43.343,-0.015,0.053,1.0
2026/05/14 10:32:43.361,-0.015,0.054,0.999
2026/05/14 10:32:43.380,-0.013,0.055,1.004
2026/05/14 10:32:43.398,-0.015,0.056,1.007
2026/05/14 10:32:43.417,-0.015,0.057,1.006
2026/05/14 10:32:43.435,-0.008,0.058,1.001
2026/05/14 10:32:43.454,-0.011,0.056,1.004
2026/05/14 10:32:43.473,-0.01,0.057,1.007
2026/05/14 10:32:43.491,-0.012,0.058,1.005
2026/05/14 10:32:43.510,-0.023,0.058,1.0
2026/05/14 10:32:43.528,-0.029,0.057,1.008
2026/05/14 10:32:43.547,-0.02,0.056,0.998
2026/05/14 10:32:43.565,-0.018,0.051,1.002
2026/05/14 10:32:43.584,-0.018,0.056,1.008
2026/05/14 10:32:43.602,-0.005,0.056,1.009
2026/05/14 10:32:43.621,-0.005,0.051,1.003
2026/05/14 10:32:43.639,-0.013,0.055,1.002
2026/05/14 10:32:43.658,-0.019,0.054,1.007
2026/05/14 10:32:43.676,-0.022,0.052,1.004
2026/05/14 10:32:43.695,-0.016,0.054,1.001
2026/05/14 10:32:43.714,-0.02,0.064,1.003
2026/05/14 10:32:43.732,-0.011,0.059,1.006
2026/05/14 10:32:43.751,-0.009,0.054,1.0
2026/05/14 10:32:43.769,-0.016,0.056,1.0
2026/05/14 10:32:43.788,-0.017,0.055,1.012
2026/05/14 10:32:43.806,-0.018,0.047,1.007
2026/05/14 10:32:43.825,-0.021,0.054,1.003
2026/05/14 10:32:43.843,-0.021,0.05,1.049
2026/05/14 10:32:43.862,0.016,0.036,1.036
2026/05/14 10:32:43.880,-0.003,0.041,1.028
2026/05/14 10:32:43.899,0.001,0.048,0.998
2026/05/14 10:32:43.918,-0.011,0.057,0.999
2026/05/14 10:32:43.936,-0.015,0.06,0.983
2026/05/14 10:32:43.955,-0.019,0.061,0.991
2026/05/14 10:32:43.973,-0.025,0.071,0.982
2026/05/14 10:32:43.992,-0.03,0.072,0.992
2026/05/14 10:32:44.010,0.006,0.052,1.224
2026/05/14 10:32:44.029,0.03,0.059,1.09
2026/05/14 10:32:44.047,0.028,0.038,1.091
2026/05/14 10:32:44.066,-0.003,0.045,1.062
2026/05/14 10:32:44.084,0.003,0.045,1.008
2026/05/14 10:32:44.103,-0.015,0.032,1.024
2026/05/14 10:32:44.122,-0.039,0.05,1.007
2026/05/14 10:32:44.140,-0.033,0.038,1.001
2026/05/14 10:32:44.159,-0.023,0.045,0.999
2026/05/14 10:32:44.177,-0.016,0.044,1.008
2026/05/14 10:32:44.196,-0.007,0.049,1.01
2026/05/14 10:32:44.214,0.003,0.054,1.005
2026/05/14 10:32:44.233,0.003,0.059,1.0
2026/05/14 10:32:44.251,-0.003,0.068,0.996
2026/05/14 10:32:44.270,-0.015,0.065,0.999
2026/05/14 10:32:44.288,-0.026,0.071,0.993
2026/05/14 10:32:44.307,-0.027,0.073,1.003
2026/05/14 10:32:44.325,-0.027,0.065,1.002
2026/05/14 10:32:44.344,-0.022,0.066,0.994
2026/05/14 10:32:44.363,-0.013,0.061,1.009
2026/05/14 10:32:44.381,-0.001,0.057,1.002
2026/05/14 10:32:44.400,-0.001,0.048,1.003
2026/05/14 10:32:44.418,-0.01,0.043,1.009
2026/05/14 10:32:44.437,-0.02,0.042,0.995
2026/05/14 10:32:44.455,-0.025,0.039,1.0
2026/05/14 10:32:44.474,-0.03,0.041,1.004
2026/05/14 10:32:44.492,-0.026,0.046,1.01
2026/05/14 10:32:44.511,-0.016,0.052,1.009
2026/05/14 10:32:44.529,-0.007,0.056,1.003
2026/05/14 10:32:44.548,0.001,0.06,0.989
2026/05/14 10:32:44.567,0.007,0.054,1.039
2026/05/14 10:32:44.585,0.006,0.047,1.031
2026/05/14 10:32:44.604,-0.018,0.061,0.994
2026/05/14 10:32:44.622,-0.009,0.043,1.009
2026/05/14 10:32:44.641,-0.046,0.076,0.909
2026/05/14 10:32:44.659,-0.019,0.056,1.02
2026/05/14 10:32:44.678,-0.019,0.054,1.004
2026/05/14 10:32:44.696,-0.032,0.063,1.001
2026/05/14 10:32:44.715,-0.017,0.052,1.007
2026/05/14 10:32:44.733,-0.014,0.046,1.001
2026/05/14 10:32:44.752,-0.006,0.046,1.003
2026/05/14 10:32:44.770,-0.009,0.05,1.009
2026/05/14 10:32:44.789,-0.022,0.054,1.001
2026/05/14 10:32:44.808,-0.025,0.059,1.011
2026/05/14 10:32:44.826,-0.023,0.056,1.003
2026/05/14 10:32:44.845,-0.014,0.055,1.009
2026/05/14 10:32:44.863,-0.018,0.059,1.002
2026/05/14 10:32:44.882,-0.014,0.062,1.005
2026/05/14 10:32:44.900,-0.009,0.063,1.007
2026/05/14 10:32:44.919,-0.009,0.066,1.006
2026/05/14 10:32:44.937,-0.014,0.064,1.002
2026/05/14 10:32:44.956,-0.015,0.061,0.997
2026/05/14 10:32:44.974,-0.023,0.061,1.0
2026/05/14 10:32:44.993,-0.017,0.05,1.0
2026/05/14 10:32:45.012,-0.019,0.049,1.004
2026/05/14 10:32:45.030,-0.018,0.053,1.0
2026/05/14 10:32:45.049,-0.014,0.047,1.001
2026/05/14 10:32:45.067,-0.011,0.05,1.004
2026/05/14 10:32:45.086,-0.019,0.047,1.007
2026/05/14 10:32:45.104,-0.023,0.054,1.004
2026/05/14 10:32:45.123,-0.013,0.057,1.004
2026/05/14 10:32:45.141,-0.013,0.058,0.997
2026/05/14 10:32:45.160,-0.005,0.06,1.029
2026/05/14 10:32:45.178,-0.018,0.065,1.016
2026/05/14 10:32:45.197,-0.019,0.063,0.999
2026/05/14 10:32:45.216,-0.014,0.059,1.0
2026/05/14 10:32:45.234,0.0,0.055,1.018
2026/05/14 10:32:45.253,-0.005,0.051,1.014
2026/05/14 10:32:45.271,-0.004,0.05,1.015
2026/05/14 10:32:45.290,-0.013,0.048,1.009
2026/05/14 10:32:45.308,-0.018,0.051,0.997
2026/05/14 10:32:45.327,-0.018,0.048,1.0
2026/05/14 10:32:45.345,-0.019,0.051,1.005
2026/05/14 10:32:45.364,-0.014,0.054,1.002
2026/05/14 10:32:45.382,-0.018,0.054,1.001
2026/05/14 10:32:45.401,-0.008,0.059,1.004
2026/05/14 10:32:45.419,-0.01,0.061,1.013
2026/05/14 10:32:45.438,-0.011,0.064,1.007
2026/05/14 10:32:45.457,-0.011,0.061,1.004
2026/05/14 10:32:45.475,-0.016,0.059,0.999
2026/05/14 10:32:45.494,-0.015,0.058,1.006
2026/05/14 10:32:45.512,-0.019,0.054,1.006
2026/05/14 10:32:45.531,-0.018,0.051,1.007
2026/05/14 10:32:45.549,-0.012,0.051,1.001
2026/05/14 10:32:45.568,-0.01,0.048,0.998
2026/05/14 10:32:45.586,-0.011,0.049,1.007
2026/05/14 10:32:45.605,-0.013,0.054,1.008
2026/05/14 10:32:45.623,-0.015,0.057,1.001
2026/05/14 10:32:45.642,-0.017,0.06,0.999
2026/05/14 10:32:45.661,-0.019,0.059,1.004
2026/05/14 10:32:45.679,-0.014,0.059,1.009
2026/05/14 10:32:45.698,-0.012,0.06,0.998
2026/05/14 10:32:45.716,-0.011,0.06,1.003
2026/05/14 10:32:45.735,-0.011,0.056,1.001
2026/05/14 10:32:45.753,-0.013,0.06,1.009
2026/05/14 10:32:45.772,-0.013,0.054,1.004
2026/05/14 10:32:45.790,-0.018,0.053,1.003
2026/05/14 10:32:45.809,-0.018,0.054,1.006
2026/05/14 10:32:45.827,-0.02,0.051,1.005
2026/05/14 10:32:45.846,-0.014,0.054,1.004
2026/05/14 10:32:45.864,-0.012,0.056,1.003
2026/05/14 10:32:45.883,-0.013,0.059,1.004
2026/05/14 10:32:45.902,-0.011,0.056,1.003
2026/05/14 10:32:45.920,-0.012,0.058,1.003
2026/05/14 10:32:45.939,-0.015,0.053,1.004
2026/05/14 10:32:45.957,-0.015,0.054,1.007
2026/05/14 10:32:45.976,-0.016,0.057,1.0
2026/05/14 10:32:45.994,-0.016,0.053,1.005
2026/05/14 10:32:46.013,-0.015,0.056,1.005
2026/05/14 10:32:46.031,-0.014,0.054,1.004
2026/05/14 10:32:46.050,-0.011,0.053,1.004
2026/05/14 10:32:46.068,-0.012,0.055,1.004
2026/05/14 10:32:46.087,-0.012,0.055,1.002
2026/05/14 10:32:46.106,-0.016,0.056,1.006
2026/05/14 10:32:46.124,-0.017,0.057,1.002
2026/05/14 10:32:46.143,-0.016,0.058,1.005
2026/05/14 10:32:46.161,-0.016,0.054,1.005
2026/05/14 10:32:46.180,-0.015,0.055,1.001
2026/05/14 10:32:46.198,-0.013,0.051,1.002
2026/05/14 10:32:46.217,-0.014,0.055,1.003
2026/05/14 10:32:46.235,-0.018,0.053,1.008
2026/05/14 10:32:46.254,-0.013,0.054,1.006
2026/05/14 10:32:46.272,-0.016,0.06,0.997
2026/05/14 10:32:46.291,-0.017,0.059,1.003
2026/05/14 10:32:46.309,-0.013,0.061,1.005
2026/05/14 10:32:46.328,-0.015,0.058,1.003
2026/05/14 10:32:46.347,-0.016,0.057,1.009
2026/05/14 10:32:46.365,-0.014,0.054,1.005
2026/05/14 10:32:46.384,-0.015,0.051,1.008
2026/05/14 10:32:46.402,-0.018,0.054,1.004
2026/05/14 10:32:46.421,-0.017,0.053,1.001
2026/05/14 10:32:46.439,-0.018,0.049,1.005
2026/05/14 10:32:46.458,-0.015,0.053,1.005
2026/05/14 10:32:46.476,-0.018,0.056,1.002
2026/05/14 10:32:46.495,-0.013,0.056,1.005
2026/05/14 10:32:46.513,-0.018,0.057,1.002
2026/05/14 10:32:46.532,-0.011,0.058,0.999
2026/05/14 10:32:46.551,-0.015,0.061,1.008
2026/05/14 10:32:46.569,-0.013,0.054,1.002
2026/05/14 10:32:46.588,-0.012,0.057,1.002
2026/05/14 10:32:46.606,-0.015,0.057,1.006
2026/05/14 10:32:46.625,-0.015,0.052,1.004
2026/05/14 10:32:46.643,-0.013,0.051,1.003
2026/05/14 10:32:46.662,-0.017,0.052,1.004
2026/05/14 10:32:46.680,-0.017,0.053,1.005
2026/05/14 10:32:46.699,-0.013,0.053,1.003
2026/05/14 10:32:46.717,-0.018,0.057,1.004
2026/05/14 10:32:46.736,-0.015,0.055,1.004
2026/05/14 10:32:46.754,-0.014,0.056,1.0
2026/05/14 10:32:46.773,-0.01,0.055,1.007
2026/05/14 10:32:46.792,-0.017,0.06,1.003
2026/05/14 10:32:46.810,-0.012,0.056,0.998
2026/05/14 10:32:46.829,-0.018,0.057,1.002
2026/05/14 10:32:46.847,-0.019,0.057,1.004
2026/05/14 10:32:46.866,-0.015,0.052,1.004
2026/05/14 10:32:46.884,-0.016,0.056,1.009
2026/05/14 10:32:46.903,-0.015,0.053,0.999
2026/05/14 10:32:46.921,-0.011,0.05,1.006
2026/05/14 10:32:46.940,-0.01,0.05,1.004
2026/05/14 10:32:46.958,-0.013,0.052,1.0
2026/05/14 10:32:46.977,-0.015,0.056,1.006
2026/05/14 10:32:46.996,-0.019,0.056,1.003
2026/05/14 10:32:47.014,-0.017,0.056,1.002
2026/05/14 10:32:47.033,-0.016,0.055,1.003
2026/05/14 10:32:47.051,-0.016,0.058,1.005
2026/05/14 10:32:47.070,-0.013,0.057,1.004
2026/05/14 10:32:47.088,-0.013,0.055,1.006
2026/05/14 10:32:47.107,-0.01,0.056,1.0
2026/05/14 10:32:47.125,-0.015,0.056,1.002
2026/05/14 10:32:47.144,-0.015,0.053,1.005
2026/05/14 10:32:47.162,-0.017,0.046,1.003
2026/05/14 10:32:47.181,-0.016,0.052,1.003
2026/05/14 10:32:47.200,-0.013,0.049,1.005
2026/05/14 10:32:47.218,-0.012,0.051,1.007
2026/05/14 10:32:47.237,-0.016,0.056,1.002
2026/05/14 10:32:47.255,-0.015,0.058,1.0
2026/05/14 10:32:47.274,-0.013,0.057,0.999
2026/05/14 10:32:47.292,-0.014,0.055,1.001
2026/05/14 10:32:47.311,-0.01,0.058,1.007
2026/05/14 10:32:47.329,-0.015,0.058,0.999
2026/05/14 10:32:47.348,-0.012,0.056,1.001
2026/05/14 10:32:47.366,-0.016,0.056,1.0
2026/05/14 10:32:47.385,-0.018,0.051,1.007
2026/05/14 10:32:47.403,-0.013,0.057,1.005
2026/05/14 10:32:47.422,-0.015,0.054,1.002
2026/05/14 10:32:47.441,-0.014,0.055,1.001
2026/05/14 10:32:47.459,-0.016,0.055,1.007
2026/05/14 10:32:47.478,-0.019,0.053,1.002
2026/05/14 10:32:47.496,-0.017,0.059,1.007
2026/05/14 10:32:47.515,-0.017,0.059,1.003
2026/05/14 10:32:47.533,-0.013,0.059,1.001
2026/05/14 10:32:47.552,-0.015,0.057,0.998
2026/05/14 10:32:47.570,-0.017,0.054,1.002
2026/05/14 10:32:47.589,-0.016,0.057,1.007
2026/05/14 10:32:47.607,-0.013,0.054,1.0
2026/05/14 10:32:47.626,-0.011,0.059,1.003
2026/05/14 10:32:47.645,-0.014,0.058,1.002
2026/05/14 10:32:47.663,-0.017,0.056,1.006
2026/05/14 10:32:47.682,-0.015,0.053,1.001
2026/05/14 10:32:47.700,-0.017,0.054,0.994
2026/05/14 10:32:47.719,-0.018,0.05,1.008
2026/05/14 10:32:47.737,-0.015,0.048,1.001
2026/05/14 10:32:47.756,-0.013,0.05,1.0
2026/05/14 10:32:47.774,-0.015,0.054,1.003
2026/05/14 10:32:47.793,-0.016,0.051,1.011
2026/05/14 10:32:47.811,-0.012,0.054,1.0
2026/05/14 10:32:47.830,-0.004,0.053,1.014
2026/05/14 10:32:47.848,-0.014,0.054,1.008
2026/05/14 10:32:47.867,-0.017,0.055,1.0
2026/05/14 10:32:47.886,-0.018,0.058,1.007
2026/05/14 10:32:47.904,-0.018,0.067,0.988
2026/05/14 10:32:47.923,-0.009,0.061,0.991
2026/05/14 10:32:47.941,-0.012,0.066,0.991
2026/05/14 10:32:47.960,0.0,0.053,1.034
2026/05/14 10:32:47.978,-0.018,0.056,0.991
2026/05/14 10:32:47.997,-0.01,0.054,1.013
2026/05/14 10:32:48.015,-0.026,0.053,0.997
2026/05/14 10:32:48.034,-0.023,0.048,1.013
2026/05/14 10:32:48.052,-0.006,0.054,1.002
2026/05/14 10:32:48.071,-0.014,0.056,1.005
2026/05/14 10:32:48.090,-0.024,0.056,1.0
2026/05/14 10:32:48.108,-0.019,0.051,1.023
2026/05/14 10:32:48.127,-0.018,0.061,0.999
2026/05/14 10:32:48.145,-0.014,0.055,1.007
2026/05/14 10:32:48.164,-0.016,0.056,1.008
2026/05/14 10:32:48.182,-0.019,0.06,0.992
2026/05/14 10:32:48.201,-0.011,0.055,1.007
2026/05/14 10:32:48.219,-0.014,0.061,1.0
2026/05/14 10:32:48.238,-0.014,0.062,1.007
2026/05/14 10:32:48.256,-0.039,0.07,0.976
2026/05/14 10:32:48.275,-0.018,0.061,1.029
2026/05/14 10:32:48.294,-0.007,0.059,0.975
2026/05/14 10:32:48.312,0.007,0.05,1.004
2026/05/14 10:32:48.331,0.0,0.057,1.029
2026/05/14 10:32:48.349,-0.001,0.055,0.982
2026/05/14 10:32:48.368,-0.014,0.055,1.005
2026/05/14 10:32:48.386,-0.035,0.048,1.007
2026/05/14 10:32:48.405,-0.036,0.044,0.99
2026/05/14 10:32:48.423,-0.033,0.049,1.007
2026/05/14 10:32:48.442,-0.027,0.047,0.992
2026/05/14 10:32:48.460,-0.01,0.053,0.998
2026/05/14 10:32:48.479,0.003,0.059,1.001
2026/05/14 10:32:48.497,0.0,0.067,1.007
2026/05/14 10:32:48.516,-0.009,0.069,1.004
2026/05/14 10:32:48.535,-0.015,0.065,0.992
2026/05/14 10:32:48.553,-0.039,0.064,1.024
2026/05/14 10:32:48.572,-0.025,0.044,1.014
2026/05/14 10:32:48.590,-0.03,0.052,0.984
2026/05/14 10:32:48.609,-0.014,0.053,1.011
2026/05/14 10:32:48.627,0.001,0.05,1.004
2026/05/14 10:32:48.646,0.007,0.057,1.0
2026/05/14 10:32:48.664,-0.004,0.06,1.005
2026/05/14 10:32:48.683,-0.01,0.053,0.998
2026/05/14 10:32:48.701,-0.021,0.058,0.988
2026/05/14 10:32:48.720,-0.027,0.065,1.009
2026/05/14 10:32:48.739,-0.024,0.064,0.999
2026/05/14 10:32:48.757,-0.028,0.052,1.002
2026/05/14 10:32:48.776,-0.009,0.059,1.021
2026/05/14 10:32:48.794,-0.008,0.049,1.003
2026/05/14 10:32:48.813,-0.002,0.045,1.003
2026/05/14 10:32:48.831,-0.007,0.045,0.989
2026/05/14 10:32:48.850,-0.004,0.051,1.011
2026/05/14 10:32:48.868,-0.012,0.051,1.012
2026/05/14 10:32:48.887,-0.029,0.058,0.996
2026/05/14 10:32:48.905,-0.032,0.062,1.0
2026/05/14 10:32:48.924,-0.033,0.064,1.004
2026/05/14 10:32:48.942,-0.016,0.063,1.004
2026/05/14 10:32:48.961,-0.005,0.063,1.006
2026/05/14 10:32:48.980,0.006,0.061,1.0
2026/05/14 10:32:48.998,0.001,0.065,1.009
2026/05/14 10:32:49.017,-0.005,0.055,1.009
2026/05/14 10:32:49.035,-0.01,0.049,0.994
2026/05/14 10:32:49.054,-0.018,0.042,1.007
2026/05/14 10:32:49.072,-0.026,0.044,1.005
2026/05/14 10:32:49.091,-0.036,0.051,1.006
2026/05/14 10:32:49.109,-0.037,0.052,1.01
2026/05/14 10:32:49.128,-0.028,0.052,1.003
2026/05/14 10:32:49.146,-0.013,0.059,1.006
2026/05/14 10:32:49.165,0.003,0.071,0.999
2026/05/14 10:32:49.184,0.013,0.084,1.016
2026/05/14 10:32:49.202,-0.004,0.085,1.011
2026/05/14 10:32:49.221,-0.006,0.075,0.986
2026/05/14 10:32:49.239,-0.018,0.065,0.99
2026/05/14 10:32:49.258,-0.035,0.064,0.994
2026/05/14 10:32:49.276,-0.018,0.053,1.013
2026/05/14 10:32:49.295,-0.019,0.03,0.99
2026/05/14 10:32:49.313,0.01,0.011,1.067
2026/05/14 10:32:49.332,-0.001,0.041,1.017
2026/05/14 10:32:49.350,-0.018,0.044,0.995
2026/05/14 10:32:49.369,-0.017,0.037,1.017
2026/05/14 10:32:49.387,-0.024,0.036,0.999
2026/05/14 10:32:49.406,-0.034,0.036,0.979
2026/05/14 10:32:49.425,0.01,-0.02,1.165
2026/05/14 10:32:49.443,0.005,0.089,0.878
2026/05/14 10:32:49.462,-0.013,0.103,0.857
2026/05/14 10:32:49.480,0.009,0.115,0.972
2026/05/14 10:32:49.499,0.027,0.128,0.963
2026/05/14 10:32:49.517,-0.029,0.078,0.992
2026/05/14 10:32:49.536,-0.09,0.071,1.04
2026/05/14 10:32:49.554,-0.061,0.005,1.042
2026/05/14 10:32:49.573,-0.049,0.041,0.892
2026/05/14 10:32:49.591,-0.028,0.021,1.046
2026/05/14 10:32:49.610,0.025,0.014,1.011
2026/05/14 10:32:49.629,-0.028,-0.037,1.034
2026/05/14 10:32:49.647,-0.004,0.028,1.006
2026/05/14 10:32:49.666,-0.049,0.021,0.952
2026/05/14 10:32:49.684,-0.03,0.033,1.008
2026/05/14 10:32:49.703,0.001,0.075,1.018
2026/05/14 10:32:49.721,0.018,0.09,1.005
2026/05/14 10:32:49.740,0.001,0.123,0.945
2026/05/14 10:32:49.758,-0.015,0.145,1.034
2026/05/14 10:32:49.777,-0.008,0.128,1.002
2026/05/14 10:32:49.795,-0.02,0.085,0.992
2026/05/14 10:32:49.814,-0.046,0.061,1.012
2026/05/14 10:32:49.832,-0.053,0.047,1.02
2026/05/14 10:32:49.851,-0.035,0.048,0.994
2026/05/14 10:32:49.870,-0.008,0.041,1.004
2026/05/14 10:32:49.888,0.003,0.034,0.99
2026/05/14 10:32:49.907,0.019,0.017,1.014
2026/05/14 10:32:49.925,-0.003,0.009,0.963
2026/05/14 10:32:49.944,-0.006,0.009,0.988
2026/05/14 10:32:49.962,-0.023,0.031,1.001
2026/05/14 10:32:49.981,-0.031,0.053,1.01
2026/05/14 10:32:49.999,-0.031,0.077,1.002
2026/05/14 10:32:50.018,-0.027,0.091,0.989
2026/05/14 10:32:50.036,-0.008,0.084,0.997
2026/05/14 10:32:50.055,-0.013,0.073,1.001
2026/05/14 10:32:50.074,0.002,0.07,1.027
2026/05/14 10:32:50.092,-0.004,0.073,1.004
2026/05/14 10:32:50.111,-0.017,0.08,1.0
2026/05/14 10:32:50.129,-0.009,0.065,1.021
2026/05/14 10:32:50.148,-0.013,0.057,1.004
2026/05/14 10:32:50.166,-0.02,0.045,1.011
2026/05/14 10:32:50.185,-0.024,0.032,1.002
2026/05/14 10:32:50.203,-0.018,0.031,1.065
2026/05/14 10:32:50.222,-0.028,0.02,1.002
2026/05/14 10:32:50.240,-0.028,0.018,1.023
2026/05/14 10:32:50.259,-0.024,0.046,1.001
2026/05/14 10:32:50.277,0.009,0.058,0.972
2026/05/14 10:32:50.296,0.011,0.068,1.005
2026/05/14 10:32:50.315,-0.013,0.085,1.015
2026/05/14 10:32:50.333,-0.007,0.073,1.013
2026/05/14 10:32:50.352,-0.017,0.068,0.997
2026/05/14 10:32:50.370,-0.031,0.067,1.003
2026/05/14 10:32:50.389,-0.033,0.053,1.025
2026/05/14 10:32:50.407,-0.028,0.052,1.001
2026/05/14 10:32:50.426,-0.023,0.049,0.979
2026/05/14 10:32:50.444,-0.004,0.046,1.0
2026/05/14 10:32:50.463,0.009,0.041,0.998
2026/05/14 10:32:50.481,0.02,0.039,1.012
2026/05/14 10:32:50.500,-0.007,0.052,0.965
2026/05/14 10:32:50.519,-0.012,0.059,1.001
2026/05/14 10:32:50.537,-0.011,0.057,1.011
2026/05/14 10:32:50.556,-0.032,0.061,1.027
2026/05/14 10:32:50.574,-0.029,0.061,1.002
2026/05/14 10:32:50.593,-0.019,0.06,1.006
2026/05/14 10:32:50.611,-0.014,0.058,1.008
2026/05/14 10:32:50.630,-0.012,0.06,1.016
2026/05/14 10:32:50.648,-0.007,0.06,1.007
2026/05/14 10:32:50.667,0.007,0.056,1.007
2026/05/14 10:32:50.685,-0.005,0.057,1.012
2026/05/14 10:32:50.704,-0.019,0.052,1.007
2026/05/14 10:32:50.722,-0.034,0.05,1.014
2026/05/14 10:32:50.741,-0.038,0.042,1.0
2026/05/14 10:32:50.760,-0.028,0.042,0.996
2026/05/14 10:32:50.778,-0.019,0.045,1.009
2026/05/14 10:32:50.797,-0.009,0.047,1.005
2026/05/14 10:32:50.815,0.0,0.054,1.003
2026/05/14 10:32:50.834,0.001,0.059,1.001
2026/05/14 10:32:50.852,-0.007,0.063,1.01
2026/05/14 10:32:50.871,-0.011,0.067,1.011
2026/05/14 10:32:50.889,-0.015,0.06,1.007
2026/05/14 10:32:50.908,-0.027,0.069,0.997
2026/05/14 10:32:50.926,-0.028,0.07,1.004
2026/05/14 10:32:50.945,-0.027,0.063,0.998
2026/05/14 10:32:50.964,-0.018,0.063,1.006
2026/05/14 10:32:50.982,-0.012,0.05,1.009
2026/05/14 10:32:51.001,-0.004,0.045,1.001
2026/05/14 10:32:51.019,0.003,0.039,1.013
2026/05/14 10:32:51.038,-0.005,0.035,1.009
2026/05/14 10:32:51.056,-0.016,0.045,1.004
2026/05/14 10:32:51.075,-0.025,0.049,1.003
2026/05/14 10:32:51.093,-0.03,0.058,1.009
2026/05/14 10:32:51.112,-0.022,0.065,1.002
2026/05/14 10:32:51.130,-0.012,0.069,1.001
2026/05/14 10:32:51.149,-0.003,0.078,0.995
2026/05/14 10:32:51.167,-0.007,0.098,1.041
2026/05/14 10:32:51.186,-0.002,0.084,1.028
2026/05/14 10:32:51.205,0.001,0.059,0.98
2026/05/14 10:32:51.223,0.018,0.043,0.976
2026/05/14 10:32:51.242,-0.011,0.044,0.979
2026/05/14 10:32:51.260,-0.022,-0.001,1.018
2026/05/14 10:32:51.279,-0.007,-0.004,1.03
2026/05/14 10:32:51.297,-0.024,0.006,1.024
2026/05/14 10:32:51.316,-0.05,0.054,0.895
2026/05/14 10:32:51.334,-0.018,0.053,1.028
2026/05/14 10:32:51.353,-0.043,0.06,1.003
2026/05/14 10:32:51.371,-0.046,0.068,0.999
2026/05/14 10:32:51.390,-0.027,0.067,0.955
2026/05/14 10:32:51.409,-0.004,0.07,0.999
2026/05/14 10:32:51.427,-0.018,0.095,1.012
2026/05/14 10:32:51.446,0.022,0.07,1.05
2026/05/14 10:32:51.464,0.032,0.074,0.996
2026/05/14 10:32:51.483,0.014,0.085,1.006
2026/05/14 10:32:51.501,0.102,0.113,1.225
2026/05/14 10:32:51.520,0.031,-0.007,1.147
2026/05/14 10:32:51.538,-0.053,0.051,0.897
2026/05/14 10:32:51.557,-0.086,0.096,0.787
2026/05/14 10:32:51.575,-0.04,0.019,1.002
2026/05/14 10:32:51.594,-0.012,0.046,0.906
2026/05/14 10:32:51.612,-0.025,0.014,0.966
2026/05/14 10:32:51.631,-0.022,0.04,1.027
2026/05/14 10:32:51.650,-0.037,0.065,1.02
2026/05/14 10:32:51.668,0.03,0.054,1.054
2026/05/14 10:32:51.687,-0.013,0.098,1.036
2026/05/14 10:32:51.705,-0.009,0.095,1.023
2026/05/14 10:32:51.724,-0.005,0.098,0.991
2026/05/14 10:32:51.742,-0.023,0.086,0.989
2026/05/14 10:32:51.761,-0.052,0.088,0.936
2026/05/14 10:32:51.779,-0.047,0.063,0.974
2026/05/14 10:32:51.798,-0.038,0.061,1.013
2026/05/14 10:32:51.816,-0.022,0.067,0.989
2026/05/14 10:32:51.835,0.008,0.052,1.007
2026/05/14 10:32:51.854,0.025,0.046,1.031
2026/05/14 10:32:51.872,0.018,0.043,1.024
2026/05/14 10:32:51.891,0.011,0.041,1.022
2026/05/14 10:32:51.909,-0.048,0.058,0.904
2026/05/14 10:32:51.928,-0.091,0.068,1.011
2026/05/14 10:32:51.946,-0.04,0.041,1.006
2026/05/14 10:32:51.965,-0.036,0.056,0.984
2026/05/14 10:32:51.983,-0.025,0.025,1.128
2026/05/14 10:32:52.002,-0.062,0.064,0.965
2026/05/14 10:32:52.020,-0.011,0.053,0.94
2026/05/14 10:32:52.039,-0.006,0.061,0.969
2026/05/14 10:32:52.058,-0.001,0.072,0.979
2026/05/14 10:32:52.076,-0.018,0.073,1.084
2026/05/14 10:32:52.095,-0.014,0.041,1.077
2026/05/14 10:32:52.113,-0.017,0.066,0.973
2026/05/14 10:32:52.132,-0.05,0.108,0.835
2026/05/14 10:32:52.150,-0.005,0.053,1.016
2026/05/14 10:32:52.169,-0.026,0.037,1.002
2026/05/14 10:32:52.187,-0.036,0.036,0.988
2026/05/14 10:32:52.206,-0.031,0.049,0.972
2026/05/14 10:32:52.224,0.0,0.052,0.991
2026/05/14 10:32:52.243,0.002,0.059,0.992
2026/05/14 10:32:52.262,0.0,0.068,1.012
2026/05/14 10:32:52.280,-0.01,0.082,1.011
2026/05/14 10:32:52.299,-0.015,0.071,1.011
2026/05/14 10:32:52.317,-0.097,0.098,0.826
2026/05/14 10:32:52.336,-0.06,0.088,0.974
2026/05/14 10:32:52.354,0.024,0.045,1.06
2026/05/14 10:32:52.373,0.005,0.035,1.056
2026/05/14 10:32:52.391,0.001,0.045,1.037
2026/05/14 10:32:52.410,-0.004,0.045,0.989
2026/05/14 10:32:52.428,0.004,0.037,0.986
2026/05/14 10:32:52.447,-0.008,0.038,1.009
2026/05/14 10:32:52.465,-0.029,0.044,1.0
2026/05/14 10:32:52.484,-0.032,0.056,0.998
2026/05/14 10:32:52.503,-0.026,0.06,1.001
2026/05/14 10:32:52.521,-0.022,0.055,1.007
2026/05/14 10:32:52.540,-0.015,0.057,1.017
2026/05/14 10:32:52.558,-0.005,0.056,1.008
2026/05/14 10:32:52.577,0.01,0.064,0.998
2026/05/14 10:32:52.595,0.009,0.061,0.996
