Timestamp,ACC X,ACC Y,ACC Z
2026/05/14 10:28:55.424,-0.117,0.143,0.965
2026/05/14 10:28:55.444,-0.009,0.064,0.764
2026/05/14 10:28:55.463,-0.015,0.062,0.977
2026/05/14 10:28:55.482,0.017,0.04,0.97
2026/05/14 10:28:55.501,0.056,0.041,0.991
2026/05/14 10:28:55.521,0.058,0.047,1.018
2026/05/14 10:28:55.540,0.011,0.032,0.844
2026/05/14 10:28:55.559,0.065,0.053,0.986
2026/05/14 10:28:55.578,0.02,0.063,1.048
2026/05/14 10:28:55.598,0.013,0.082,1.0
2026/05/14 10:28:55.617,0.013,0.089,0.984
2026/05/14 10:28:55.636,0.03,0.095,1.018
2026/05/14 10:28:55.655,0.05,0.09,0.992
2026/05/14 10:28:55.674,0.071,0.08,0.999
2026/05/14 10:28:55.694,0.081,0.065,1.023
2026/05/14 10:28:55.713,0.072,0.057,0.985
2026/05/14 10:28:55.732,0.053,0.057,0.989
2026/05/14 10:28:55.751,0.03,0.073,1.061
2026/05/14 10:28:55.771,0.002,0.061,1.009
2026/05/14 10:28:55.790,0.002,0.062,0.994
2026/05/14 10:28:55.809,0.0,0.044,1.013
2026/05/14 10:28:55.828,0.004,0.033,0.974
2026/05/14 10:28:55.848,0.021,0.032,0.992
2026/05/14 10:28:55.867,0.039,0.025,1.003
2026/05/14 10:28:55.886,0.053,0.035,0.975
2026/05/14 10:28:55.905,0.063,0.043,0.996
2026/05/14 10:28:55.924,0.056,0.051,0.981
2026/05/14 10:28:55.944,0.042,0.064,1.013
2026/05/14 10:28:55.963,0.029,0.069,1.022
2026/05/14 10:28:55.982,0.028,0.066,0.996
2026/05/14 10:28:56.001,0.045,0.037,1.044
2026/05/14 10:28:56.021,0.013,0.112,1.019
2026/05/14 10:28:56.040,0.016,0.114,1.003
2026/05/14 10:28:56.059,0.018,0.1,0.996
2026/05/14 10:28:56.078,0.042,0.104,0.975
2026/05/14 10:28:56.098,0.034,0.059,1.019
2026/05/14 10:28:56.117,0.042,0.03,1.008
2026/05/14 10:28:56.136,0.049,0.026,0.975
2026/05/14 10:28:56.155,0.047,0.024,0.988
2026/05/14 10:28:56.174,0.063,0.05,1.009
2026/05/14 10:28:56.194,0.052,0.063,1.002
2026/05/14 10:28:56.213,0.033,0.069,0.994
2026/05/14 10:28:56.232,0.021,0.056,1.011
2026/05/14 10:28:56.251,0.003,0.038,0.989
2026/05/14 10:28:56.271,0.001,0.025,1.003
2026/05/14 10:28:56.290,-0.116,0.138,1.812
2026/05/14 10:28:56.309,0.049,0.097,0.644
2026/05/14 10:28:56.328,0.015,0.053,0.835
2026/05/14 10:28:56.348,-0.011,0.137,1.353
2026/05/14 10:28:56.367,0.098,-0.046,1.24
2026/05/14 10:28:56.386,0.056,0.073,0.828
2026/05/14 10:28:56.405,0.072,0.09,1.005
2026/05/14 10:28:56.424,0.062,0.085,1.027
2026/05/14 10:28:56.444,0.028,0.079,1.086
2026/05/14 10:28:56.463,0.111,0.292,2.346
2026/05/14 10:28:56.482,0.076,0.14,1.274
2026/05/14 10:28:56.501,0.07,0.07,1.008
2026/05/14 10:28:56.521,0.048,0.054,0.983
2026/05/14 10:28:56.540,0.051,0.002,1.043
2026/05/14 10:28:56.559,0.037,0.011,1.015
2026/05/14 10:28:56.578,0.02,0.041,0.997
2026/05/14 10:28:56.598,0.02,0.03,0.969
2026/05/14 10:28:56.617,0.013,0.038,1.002
2026/05/14 10:28:56.636,0.019,0.044,1.015
2026/05/14 10:28:56.655,0.027,0.061,1.003
2026/05/14 10:28:56.674,0.026,0.056,1.007
2026/05/14 10:28:56.694,0.039,0.059,1.015
2026/05/14 10:28:56.713,0.047,0.056,0.999
2026/05/14 10:28:56.732,0.055,0.063,1.005
2026/05/14 10:28:56.751,0.049,0.065,1.003
2026/05/14 10:28:56.770,0.048,0.083,1.026
2026/05/14 10:28:56.789,0.036,0.082,1.007
2026/05/14 10:28:56.808,0.035,0.084,0.973
2026/05/14 10:28:56.827,-0.037,0.23,1.981
2026/05/14 10:28:56.846,-0.281,-0.154,1.334
2026/05/14 10:28:56.865,-0.369,0.007,1.283
2026/05/14 10:28:56.884,-0.066,0.046,0.948
2026/05/14 10:28:56.903,0.068,0.09,1.212
2026/05/14 10:28:56.922,0.064,0.042,0.872
2026/05/14 10:28:56.941,0.054,0.058,1.026
2026/05/14 10:28:56.959,0.032,0.037,1.077
2026/05/14 10:28:56.978,-0.003,0.029,1.057
2026/05/14 10:28:56.997,-0.003,0.042,1.073
2026/05/14 10:28:57.016,0.018,0.044,1.021
2026/05/14 10:28:57.035,0.022,0.05,0.995
2026/05/14 10:28:57.054,0.031,0.057,1.005
2026/05/14 10:28:57.073,0.055,0.069,1.036
2026/05/14 10:28:57.092,0.052,0.07,0.997
2026/05/14 10:28:57.111,0.051,0.07,0.996
2026/05/14 10:28:57.130,0.043,0.066,1.019
2026/05/14 10:28:57.149,0.039,0.061,1.012
2026/05/14 10:28:57.168,0.033,0.066,0.996
2026/05/14 10:28:57.187,0.03,0.069,0.998
2026/05/14 10:28:57.205,0.024,0.059,1.007
2026/05/14 10:28:57.224,0.029,0.055,1.007
2026/05/14 10:28:57.243,0.033,0.05,0.996
2026/05/14 10:28:57.262,0.033,0.043,0.992
2026/05/14 10:28:57.281,0.036,0.044,1.007
2026/05/14 10:28:57.300,0.041,0.042,1.006
2026/05/14 10:28:57.319,0.034,0.056,1.004
2026/05/14 10:28:57.338,0.034,0.053,0.99
2026/05/14 10:28:57.357,0.026,0.061,1.037
2026/05/14 10:28:57.376,0.029,0.06,0.998
2026/05/14 10:28:57.395,0.03,0.067,1.009
2026/05/14 10:28:57.414,0.038,0.063,1.009
2026/05/14 10:28:57.433,0.041,0.064,1.008
2026/05/14 10:28:57.451,0.041,0.066,1.003
2026/05/14 10:28:57.470,0.048,0.065,1.009
2026/05/14 10:28:57.489,0.041,0.06,0.997
2026/05/14 10:28:57.508,0.039,0.061,1.009
2026/05/14 10:28:57.527,0.034,0.055,0.999
2026/05/14 10:28:57.546,0.029,0.051,1.013
2026/05/14 10:28:57.565,0.027,0.048,0.998
2026/05/14 10:28:57.584,0.028,0.052,1.005
2026/05/14 10:28:57.603,0.03,0.048,0.999
2026/05/14 10:28:57.622,0.035,0.049,1.008
2026/05/14 10:28:57.641,0.035,0.046,0.997
2026/05/14 10:28:57.660,0.04,0.053,0.998
2026/05/14 10:28:57.678,0.036,0.053,0.997
2026/05/14 10:28:57.697,0.036,0.059,1.006
2026/05/14 10:28:57.716,0.035,0.061,1.006
2026/05/14 10:28:57.735,0.031,0.06,1.001
2026/05/14 10:28:57.754,0.034,0.06,1.004
2026/05/14 10:28:57.773,0.034,0.062,1.005
2026/05/14 10:28:57.792,0.036,0.06,1.007
2026/05/14 10:28:57.811,0.041,0.057,1.001
2026/05/14 10:28:57.830,0.037,0.062,1.012
2026/05/14 10:28:57.849,0.036,0.056,1.002
2026/05/14 10:28:57.868,0.033,0.057,1.006
2026/05/14 10:28:57.887,0.034,0.051,1.011
2026/05/14 10:28:57.906,0.029,0.05,1.002
2026/05/14 10:28:57.924,0.031,0.055,1.011
2026/05/14 10:28:57.943,0.032,0.049,1.009
2026/05/14 10:28:57.962,0.03,0.051,1.007
2026/05/14 10:28:57.981,0.034,0.053,1.008
2026/05/14 10:28:58.000,0.033,0.053,1.005
2026/05/14 10:28:58.019,0.038,0.059,1.007
2026/05/14 10:28:58.038,0.04,0.055,1.002
2026/05/14 10:28:58.057,0.035,0.058,1.004
2026/05/14 10:28:58.076,0.041,0.062,1.008
2026/05/14 10:28:58.095,0.036,0.062,1.004
2026/05/14 10:28:58.114,0.032,0.066,1.004
2026/05/14 10:28:58.133,0.034,0.062,1.008
2026/05/14 10:28:58.151,0.033,0.056,1.005
2026/05/14 10:28:58.170,0.033,0.054,1.003
2026/05/14 10:28:58.189,0.036,0.053,1.006
2026/05/14 10:28:58.208,0.036,0.052,1.0
2026/05/14 10:28:58.227,0.037,0.051,1.002
2026/05/14 10:28:58.246,0.034,0.052,1.002
2026/05/14 10:28:58.265,0.034,0.051,1.004
2026/05/14 10:28:58.284,0.03,0.056,1.005
2026/05/14 10:28:58.303,0.031,0.053,1.003
2026/05/14 10:28:58.322,0.033,0.059,1.006
2026/05/14 10:28:58.341,0.035,0.06,1.006
2026/05/14 10:28:58.360,0.037,0.063,0.999
2026/05/14 10:28:58.379,0.038,0.061,1.01
2026/05/14 10:28:58.397,0.039,0.058,0.998
2026/05/14 10:28:58.416,0.04,0.056,1.005
2026/05/14 10:28:58.435,0.036,0.061,1.007
2026/05/14 10:28:58.454,0.033,0.061,1.006
2026/05/14 10:28:58.473,0.035,0.054,1.007
2026/05/14 10:28:58.492,0.029,0.059,1.001
2026/05/14 10:28:58.511,0.032,0.058,1.005
2026/05/14 10:28:58.530,0.033,0.052,1.001
2026/05/14 10:28:58.549,0.035,0.048,1.007
2026/05/14 10:28:58.568,0.037,0.054,0.999
2026/05/14 10:28:58.587,0.033,0.055,1.007
2026/05/14 10:28:58.606,0.034,0.052,1.001
2026/05/14 10:28:58.624,0.033,0.054,1.004
2026/05/14 10:28:58.643,0.036,0.057,1.006
2026/05/14 10:28:58.662,0.035,0.055,1.008
2026/05/14 10:28:58.681,0.038,0.052,1.007
2026/05/14 10:28:58.700,0.038,0.062,1.004
2026/05/14 10:28:58.719,0.038,0.064,1.004
2026/05/14 10:28:58.738,0.036,0.061,1.0
2026/05/14 10:28:58.757,0.033,0.061,1.003
2026/05/14 10:28:58.776,0.034,0.057,1.007
2026/05/14 10:28:58.795,0.038,0.056,1.008
2026/05/14 10:28:58.814,0.033,0.056,1.004
2026/05/14 10:28:58.833,0.034,0.056,1.001
2026/05/14 10:28:58.852,0.031,0.054,1.0
2026/05/14 10:28:58.870,0.035,0.051,1.001
2026/05/14 10:28:58.889,0.037,0.044,0.995
2026/05/14 10:28:58.908,0.033,0.053,1.007
2026/05/14 10:28:58.927,0.033,0.049,1.006
2026/05/14 10:28:58.946,0.032,0.058,1.005
2026/05/14 10:28:58.965,0.035,0.054,1.006
2026/05/14 10:28:58.984,0.034,0.056,1.006
2026/05/14 10:28:59.003,0.039,0.059,1.003
2026/05/14 10:28:59.022,0.03,0.059,1.008
2026/05/14 10:28:59.041,0.037,0.056,1.009
2026/05/14 10:28:59.060,0.036,0.057,1.001
2026/05/14 10:28:59.079,0.039,0.058,1.0
2026/05/14 10:28:59.097,0.036,0.059,1.011
2026/05/14 10:28:59.116,0.033,0.052,1.002
2026/05/14 10:28:59.135,0.033,0.053,1.007
2026/05/14 10:28:59.154,0.033,0.052,1.007
2026/05/14 10:28:59.173,0.036,0.054,1.006
2026/05/14 10:28:59.192,0.033,0.053,1.002
2026/05/14 10:28:59.211,0.035,0.053,1.001
2026/05/14 10:28:59.230,0.034,0.054,1.008
2026/05/14 10:28:59.249,0.039,0.055,1.002
2026/05/14 10:28:59.268,0.033,0.057,1.003
2026/05/14 10:28:59.287,0.037,0.056,1.002
2026/05/14 10:28:59.306,0.036,0.057,1.004
2026/05/14 10:28:59.325,0.039,0.056,1.006
2026/05/14 10:28:59.343,0.034,0.062,1.001
2026/05/14 10:28:59.362,0.034,0.056,1.001
2026/05/14 10:28:59.381,0.038,0.057,1.001
2026/05/14 10:28:59.400,0.038,0.053,1.004
2026/05/14 10:28:59.419,0.031,0.058,1.003
2026/05/14 10:28:59.438,0.036,0.053,1.003
2026/05/14 10:28:59.457,0.034,0.051,1.002
2026/05/14 10:28:59.476,0.036,0.054,1.004
2026/05/14 10:28:59.495,0.032,0.055,1.003
2026/05/14 10:28:59.514,0.032,0.054,1.007
2026/05/14 10:28:59.533,0.034,0.053,1.003
2026/05/14 10:28:59.552,0.033,0.058,0.998
2026/05/14 10:28:59.570,0.034,0.058,1.006
2026/05/14 10:28:59.589,0.036,0.055,1.002
2026/05/14 10:28:59.608,0.039,0.056,1.005
2026/05/14 10:28:59.627,0.037,0.055,1.006
2026/05/14 10:28:59.646,0.035,0.057,1.005
2026/05/14 10:28:59.665,0.035,0.058,1.01
2026/05/14 10:28:59.684,0.036,0.06,1.002
2026/05/14 10:28:59.703,0.035,0.06,1.005
2026/05/14 10:28:59.722,0.033,0.055,1.004
2026/05/14 10:28:59.741,0.033,0.052,1.007
2026/05/14 10:28:59.760,0.031,0.053,1.008
2026/05/14 10:28:59.779,0.037,0.056,1.008
2026/05/14 10:28:59.798,0.029,0.054,1.008
2026/05/14 10:28:59.816,0.035,0.055,1.005
2026/05/14 10:28:59.835,0.036,0.054,1.003
2026/05/14 10:28:59.854,0.035,0.055,1.007
2026/05/14 10:28:59.873,0.036,0.055,1.003
2026/05/14 10:28:59.892,0.034,0.057,1.005
2026/05/14 10:28:59.911,0.036,0.06,1.004
2026/05/14 10:28:59.930,0.037,0.054,1.003
2026/05/14 10:28:59.949,0.034,0.057,1.006
2026/05/14 10:28:59.968,0.037,0.056,1.006
2026/05/14 10:28:59.987,0.036,0.06,1.008
2026/05/14 10:29:00.006,0.034,0.056,1.003
2026/05/14 10:29:00.025,0.039,0.059,1.004
2026/05/14 10:29:00.043,0.033,0.056,1.005
2026/05/14 10:29:00.062,0.031,0.06,1.006
2026/05/14 10:29:00.081,0.031,0.054,1.005
2026/05/14 10:29:00.100,0.038,0.052,1.009
2026/05/14 10:29:00.119,0.035,0.06,1.005
2026/05/14 10:29:00.138,0.039,0.057,1.005
2026/05/14 10:29:00.157,0.032,0.055,1.005
2026/05/14 10:29:00.176,0.035,0.053,1.004
2026/05/14 10:29:00.195,0.038,0.056,1.0
2026/05/14 10:29:00.214,0.033,0.056,1.0
2026/05/14 10:29:00.233,0.038,0.057,1.007
2026/05/14 10:29:00.252,0.035,0.059,1.006
2026/05/14 10:29:00.271,0.036,0.056,1.002
2026/05/14 10:29:00.289,0.033,0.062,1.003
2026/05/14 10:29:00.308,0.035,0.057,1.004
2026/05/14 10:29:00.327,0.035,0.058,1.003
2026/05/14 10:29:00.346,0.031,0.053,1.004
2026/05/14 10:29:00.365,0.035,0.055,1.006
2026/05/14 10:29:00.384,0.033,0.054,1.007
2026/05/14 10:29:00.403,0.033,0.052,1.009
2026/05/14 10:29:00.422,0.032,0.054,1.004
2026/05/14 10:29:00.441,0.036,0.055,1.002
2026/05/14 10:29:00.460,0.036,0.052,1.005
2026/05/14 10:29:00.479,0.036,0.057,1.005
2026/05/14 10:29:00.498,0.035,0.056,1.006
2026/05/14 10:29:00.516,0.036,0.055,1.003
2026/05/14 10:29:00.535,0.035,0.054,1.007
2026/05/14 10:29:00.554,0.038,0.058,1.003
2026/05/14 10:29:00.573,0.031,0.056,1.006
2026/05/14 10:29:00.592,0.033,0.057,1.001
2026/05/14 10:29:00.611,0.036,0.056,1.005
2026/05/14 10:29:00.630,0.035,0.055,1.004
2026/05/14 10:29:00.649,0.034,0.058,1.003
2026/05/14 10:29:00.668,0.035,0.055,1.007
2026/05/14 10:29:00.687,0.035,0.057,1.005
2026/05/14 10:29:00.706,0.034,0.055,1.004
2026/05/14 10:29:00.725,0.035,0.055,1.002
2026/05/14 10:29:00.744,0.036,0.055,1.005
2026/05/14 10:29:00.762,0.034,0.057,1.007
2026/05/14 10:29:00.781,0.037,0.058,1.002
2026/05/14 10:29:00.800,0.036,0.054,1.002
2026/05/14 10:29:00.819,0.039,0.052,1.005
2026/05/14 10:29:00.838,0.034,0.059,1.005
2026/05/14 10:29:00.857,0.034,0.055,1.004
2026/05/14 10:29:00.876,0.033,0.053,1.002
2026/05/14 10:29:00.895,0.036,0.054,1.003
2026/05/14 10:29:00.914,0.034,0.054,1.006
2026/05/14 10:29:00.933,0.036,0.055,1.005
2026/05/14 10:29:00.952,0.038,0.061,1.002
2026/05/14 10:29:00.971,0.035,0.054,1.001
2026/05/14 10:29:00.989,0.032,0.059,1.001
2026/05/14 10:29:01.008,0.033,0.057,1.006
2026/05/14 10:29:01.027,0.034,0.057,1.002
2026/05/14 10:29:01.046,0.033,0.057,1.001
2026/05/14 10:29:01.065,0.035,0.056,1.007
2026/05/14 10:29:01.084,0.036,0.057,1.002
2026/05/14 10:29:01.103,0.038,0.06,1.009
2026/05/14 10:29:01.122,0.035,0.054,1.002
2026/05/14 10:29:01.141,0.037,0.056,1.005
2026/05/14 10:29:01.160,0.037,0.055,1.005
2026/05/14 10:29:01.179,0.037,0.054,1.002
2026/05/14 10:29:01.198,0.036,0.058,1.006
2026/05/14 10:29:01.217,0.035,0.057,1.004
2026/05/14 10:29:01.235,0.035,0.056,1.0
2026/05/14 10:29:01.254,0.038,0.052,1.001
2026/05/14 10:29:01.273,0.035,0.054,1.005
2026/05/14 10:29:01.292,0.033,0.056,1.003
2026/05/14 10:29:01.311,0.038,0.056,1.002
2026/05/14 10:29:01.330,0.038,0.059,1.004
2026/05/14 10:29:01.349,0.031,0.054,1.002
2026/05/14 10:29:01.368,0.036,0.055,1.0
2026/05/14 10:29:01.387,0.036,0.058,0.998
2026/05/14 10:29:01.406,0.033,0.056,1.001
2026/05/14 10:29:01.425,0.032,0.06,1.004
2026/05/14 10:29:01.444,0.037,0.056,1.006
2026/05/14 10:29:01.462,0.034,0.056,1.003
2026/05/14 10:29:01.481,0.039,0.054,1.005
2026/05/14 10:29:01.500,0.034,0.056,1.008
2026/05/14 10:29:01.519,0.038,0.059,1.002
2026/05/14 10:29:01.538,0.033,0.057,1.008
2026/05/14 10:29:01.557,0.036,0.055,1.003
2026/05/14 10:29:01.576,0.038,0.056,1.003
2026/05/14 10:29:01.595,0.034,0.06,1.007
2026/05/14 10:29:01.614,0.032,0.056,1.002
2026/05/14 10:29:01.633,0.035,0.053,1.005
2026/05/14 10:29:01.652,0.036,0.055,1.004
2026/05/14 10:29:01.671,0.034,0.056,1.004
2026/05/14 10:29:01.689,0.035,0.057,1.006
2026/05/14 10:29:01.708,0.033,0.053,0.999
2026/05/14 10:29:01.727,0.038,0.056,1.003
2026/05/14 10:29:01.746,0.034,0.056,1.002
2026/05/14 10:29:01.765,0.036,0.06,1.009
2026/05/14 10:29:01.784,0.03,0.058,1.002
2026/05/14 10:29:01.803,0.038,0.057,1.002
2026/05/14 10:29:01.822,0.036,0.058,1.003
2026/05/14 10:29:01.841,0.037,0.057,1.003
2026/05/14 10:29:01.860,0.035,0.056,1.006
2026/05/14 10:29:01.879,0.034,0.058,1.006
2026/05/14 10:29:01.898,0.034,0.056,1.0
2026/05/14 10:29:01.917,0.034,0.055,1.002
2026/05/14 10:29:01.935,0.034,0.054,1.006
2026/05/14 10:29:01.954,0.033,0.057,1.004
2026/05/14 10:29:01.973,0.035,0.052,1.006
2026/05/14 10:29:01.992,0.032,0.055,1.004
2026/05/14 10:29:02.011,0.036,0.054,1.005
2026/05/14 10:29:02.030,0.037,0.055,1.006
2026/05/14 10:29:02.049,0.036,0.056,1.007
2026/05/14 10:29:02.068,0.034,0.059,1.004
2026/05/14 10:29:02.087,0.037,0.054,1.001
2026/05/14 10:29:02.106,0.035,0.054,1.004
2026/05/14 10:29:02.125,0.036,0.06,1.003
2026/05/14 10:29:02.144,0.03,0.055,1.004
2026/05/14 10:29:02.162,0.036,0.056,1.005
2026/05/14 10:29:02.181,0.034,0.056,1.002
2026/05/14 10:29:02.200,0.032,0.056,1.004
2026/05/14 10:29:02.219,0.034,0.059,1.002
2026/05/14 10:29:02.238,0.038,0.057,1.004
2026/05/14 10:29:02.257,0.115,-0.089,1.318
2026/05/14 10:29:02.276,0.135,-0.007,1.123
2026/05/14 10:29:02.295,0.059,-0.023,0.951
2026/05/14 10:29:02.314,0.035,0.088,0.936
2026/05/14 10:29:02.333,0.075,0.05,0.975
2026/05/14 10:29:02.352,-0.038,0.134,0.886
2026/05/14 10:29:02.371,0.024,0.041,0.987
2026/05/14 10:29:02.390,0.039,0.053,1.05
2026/05/14 10:29:02.408,0.037,0.048,0.985
2026/05/14 10:29:02.427,0.037,0.057,0.997
2026/05/14 10:29:02.446,0.033,0.051,1.012
2026/05/14 10:29:02.465,0.034,0.059,1.019
2026/05/14 10:29:02.484,0.038,0.051,0.998
2026/05/14 10:29:02.503,0.04,0.054,1.003
2026/05/14 10:29:02.522,0.036,0.055,0.999
2026/05/14 10:29:02.541,0.032,0.051,1.0
2026/05/14 10:29:02.560,0.035,0.057,1.012
2026/05/14 10:29:02.579,0.034,0.058,1.001
2026/05/14 10:29:02.598,0.035,0.056,0.994
2026/05/14 10:29:02.617,0.036,0.054,1.002
2026/05/14 10:29:02.635,0.034,0.056,1.004
2026/05/14 10:29:02.654,0.032,0.055,0.996
2026/05/14 10:29:02.673,0.034,0.057,1.001
2026/05/14 10:29:02.692,0.034,0.058,1.001
2026/05/14 10:29:02.711,0.032,0.059,1.007
2026/05/14 10:29:02.730,0.036,0.06,1.017
2026/05/14 10:29:02.749,0.048,0.057,1.026
2026/05/14 10:29:02.768,0.031,0.051,0.997
2026/05/14 10:29:02.787,0.039,0.058,1.024
2026/05/14 10:29:02.806,0.029,0.052,0.999
2026/05/14 10:29:02.825,0.016,0.052,0.967
2026/05/14 10:29:02.844,0.041,0.073,1.076
2026/05/14 10:29:02.862,0.033,0.059,1.014
2026/05/14 10:29:02.881,0.035,0.057,1.014
2026/05/14 10:29:02.900,0.039,0.054,1.027
2026/05/14 10:29:02.919,0.043,0.067,1.114
2026/05/14 10:29:02.938,0.024,0.052,1.009
2026/05/14 10:29:02.957,0.009,0.029,0.537
2026/05/14 10:29:02.976,0.036,0.045,1.079
2026/05/14 10:29:02.995,0.045,0.055,1.075
2026/05/14 10:29:03.014,0.034,0.053,0.958
2026/05/14 10:29:03.033,0.052,0.066,1.019
2026/05/14 10:29:03.052,0.03,0.058,0.999
2026/05/14 10:29:03.071,0.032,0.058,1.01
2026/05/14 10:29:03.090,0.025,0.058,0.984
2026/05/14 10:29:03.108,0.025,0.057,1.019
2026/05/14 10:29:03.127,0.026,0.06,1.016
2026/05/14 10:29:03.146,0.029,0.057,1.006
2026/05/14 10:29:03.165,0.042,0.053,0.992
2026/05/14 10:29:03.184,0.038,0.049,0.996
2026/05/14 10:29:03.203,0.04,0.054,1.005
2026/05/14 10:29:03.222,0.033,0.059,1.012
2026/05/14 10:29:03.241,0.031,0.055,0.995
2026/05/14 10:29:03.260,0.029,0.057,0.999
2026/05/14 10:29:03.279,0.028,0.055,1.01
2026/05/14 10:29:03.298,0.035,0.06,1.017
2026/05/14 10:29:03.317,0.034,0.058,1.001
2026/05/14 10:29:03.335,0.037,0.061,0.996
2026/05/14 10:29:03.354,0.04,0.06,1.0
2026/05/14 10:29:03.373,0.043,0.054,1.008
2026/05/14 10:29:03.392,0.039,0.056,1.007
2026/05/14 10:29:03.411,0.035,0.054,1.004
2026/05/14 10:29:03.430,0.033,0.058,1.007
2026/05/14 10:29:03.449,0.031,0.056,1.005
2026/05/14 10:29:03.468,0.03,0.059,1.007
2026/05/14 10:29:03.487,0.033,0.055,1.006
2026/05/14 10:29:03.506,0.036,0.051,1.001
2026/05/14 10:29:03.525,0.038,0.056,1.003
2026/05/14 10:29:03.544,0.039,0.056,1.004
2026/05/14 10:29:03.562,0.037,0.053,0.999
2026/05/14 10:29:03.581,0.036,0.052,0.999
2026/05/14 10:29:03.600,0.035,0.056,1.005
2026/05/14 10:29:03.619,0.036,0.06,1.004
2026/05/14 10:29:03.638,0.035,0.06,1.006
2026/05/14 10:29:03.657,0.034,0.054,1.002
2026/05/14 10:29:03.676,0.037,0.057,1.006
2026/05/14 10:29:03.695,0.04,0.057,1.003
2026/05/14 10:29:03.714,0.039,0.06,1.004
2026/05/14 10:29:03.733,0.038,0.057,1.005
2026/05/14 10:29:03.752,0.034,0.055,1.005
2026/05/14 10:29:03.771,0.035,0.059,1.005
2026/05/14 10:29:03.789,0.031,0.057,1.006
2026/05/14 10:29:03.808,0.032,0.052,1.005
2026/05/14 10:29:03.827,0.035,0.053,1.004
2026/05/14 10:29:03.846,0.032,0.058,1.005
2026/05/14 10:29:03.865,0.036,0.056,1.0
2026/05/14 10:29:03.884,0.037,0.054,1.004
2026/05/14 10:29:03.903,0.035,0.054,1.006
2026/05/14 10:29:03.922,0.039,0.056,1.005
2026/05/14 10:29:03.941,0.037,0.056,1.006
2026/05/14 10:29:03.960,0.032,0.057,1.002
2026/05/14 10:29:03.979,0.035,0.059,1.005
2026/05/14 10:29:03.998,0.037,0.053,1.007
2026/05/14 10:29:04.017,0.032,0.058,1.004
2026/05/14 10:29:04.035,0.033,0.055,1.005
2026/05/14 10:29:04.054,0.034,0.058,1.002
2026/05/14 10:29:04.073,0.036,0.053,1.002
2026/05/14 10:29:04.092,0.033,0.057,1.006
2026/05/14 10:29:04.111,0.032,0.056,1.002
2026/05/14 10:29:04.130,0.032,0.053,1.003
2026/05/14 10:29:04.149,0.035,0.055,1.001
2026/05/14 10:29:04.168,0.032,0.055,1.006
2026/05/14 10:29:04.187,0.034,0.053,1.006
2026/05/14 10:29:04.206,0.035,0.056,1.003
2026/05/14 10:29:04.225,0.038,0.056,1.004
2026/05/14 10:29:04.244,0.036,0.058,1.005
2026/05/14 10:29:04.262,0.039,0.058,1.003
2026/05/14 10:29:04.281,0.036,0.054,0.999
2026/05/14 10:29:04.300,0.036,0.057,1.004
2026/05/14 10:29:04.319,0.033,0.058,1.002
2026/05/14 10:29:04.338,0.035,0.056,1.006
2026/05/14 10:29:04.357,0.036,0.056,1.003
2026/05/14 10:29:04.376,0.036,0.055,1.003
2026/05/14 10:29:04.395,0.037,0.056,1.002
2026/05/14 10:29:04.414,0.036,0.055,1.003
2026/05/14 10:29:04.433,0.036,0.057,1.002
2026/05/14 10:29:04.452,0.037,0.052,1.004
2026/05/14 10:29:04.471,0.031,0.054,1.007
2026/05/14 10:29:04.489,0.036,0.054,1.002
2026/05/14 10:29:04.508,0.037,0.058,1.001
2026/05/14 10:29:04.527,0.034,0.052,1.004
2026/05/14 10:29:04.546,0.035,0.06,1.001
2026/05/14 10:29:04.565,0.037,0.056,1.001
2026/05/14 10:29:04.584,0.037,0.059,1.006
2026/05/14 10:29:04.603,0.034,0.06,1.005
2026/05/14 10:29:04.622,0.035,0.056,1.005
2026/05/14 10:29:04.641,0.034,0.057,1.004
2026/05/14 10:29:04.660,0.032,0.053,1.002
2026/05/14 10:29:04.679,0.032,0.057,1.003
2026/05/14 10:29:04.698,0.032,0.053,1.002
2026/05/14 10:29:04.716,0.033,0.053,1.004
2026/05/14 10:29:04.735,0.036,0.055,1.005
2026/05/14 10:29:04.754,0.034,0.055,1.004
2026/05/14 10:29:04.773,0.035,0.057,1.005
2026/05/14 10:29:04.792,0.038,0.055,1.004
2026/05/14 10:29:04.811,0.036,0.057,1.004
2026/05/14 10:29:04.830,0.036,0.055,1.004
2026/05/14 10:29:04.849,0.036,0.06,1.003
2026/05/14 10:29:04.868,0.033,0.056,1.0
2026/05/14 10:29:04.887,0.035,0.056,1.003
2026/05/14 10:29:04.906,0.034,0.052,1.005
2026/05/14 10:29:04.925,0.038,0.059,1.004
2026/05/14 10:29:04.943,0.038,0.054,1.001
2026/05/14 10:29:04.962,0.034,0.058,1.003
2026/05/14 10:29:04.981,0.037,0.055,1.003
2026/05/14 10:29:05.000,0.036,0.055,1.008
2026/05/14 10:29:05.019,0.033,0.056,1.005
2026/05/14 10:29:05.038,0.034,0.057,1.001
2026/05/14 10:29:05.057,0.033,0.052,1.004
2026/05/14 10:29:05.076,0.03,0.057,1.003
2026/05/14 10:29:05.095,0.034,0.055,1.005
2026/05/14 10:29:05.114,0.033,0.058,1.0
2026/05/14 10:29:05.133,0.035,0.057,1.002
2026/05/14 10:29:05.152,0.038,0.053,1.002
2026/05/14 10:29:05.171,0.035,0.061,1.006
2026/05/14 10:29:05.189,0.033,0.056,1.003
2026/05/14 10:29:05.208,0.033,0.062,1.003
2026/05/14 10:29:05.227,0.035,0.059,1.001
2026/05/14 10:29:05.246,0.034,0.054,1.006
2026/05/14 10:29:05.265,0.033,0.054,1.004
2026/05/14 10:29:05.284,0.035,0.056,1.002
2026/05/14 10:29:05.303,0.032,0.055,1.001
2026/05/14 10:29:05.322,0.035,0.055,1.004
2026/05/14 10:29:05.341,0.034,0.058,0.998
2026/05/14 10:29:05.360,0.037,0.054,1.003
2026/05/14 10:29:05.379,0.035,0.052,1.005
2026/05/14 10:29:05.398,0.038,0.053,1.002
2026/05/14 10:29:05.416,0.037,0.055,1.001
2026/05/14 10:29:05.435,0.036,0.055,1.0
2026/05/14 10:29:05.454,0.036,0.055,1.005
2026/05/14 10:29:05.473,0.037,0.057,1.003
2026/05/14 10:29:05.492,0.035,0.052,1.007
2026/05/14 10:29:05.511,0.037,0.06,1.001
2026/05/14 10:29:05.530,0.037,0.055,1.003
2026/05/14 10:29:05.549,0.034,0.056,0.998
2026/05/14 10:29:05.568,0.036,0.058,1.002
2026/05/14 10:29:05.587,0.037,0.056,1.005
2026/05/14 10:29:05.606,0.034,0.054,1.003
2026/05/14 10:29:05.625,0.033,0.057,1.003
2026/05/14 10:29:05.643,0.034,0.057,1.007
2026/05/14 10:29:05.662,0.035,0.057,0.998
2026/05/14 10:29:05.681,0.035,0.056,1.006
2026/05/14 10:29:05.700,0.039,0.06,1.001
2026/05/14 10:29:05.719,0.034,0.055,1.005
2026/05/14 10:29:05.738,0.033,0.057,1.003
2026/05/14 10:29:05.757,0.032,0.055,1.001
2026/05/14 10:29:05.776,0.036,0.062,1.006
2026/05/14 10:29:05.795,0.036,0.058,0.999
2026/05/14 10:29:05.814,0.032,0.057,1.003
2026/05/14 10:29:05.833,0.039,0.058,1.005
2026/05/14 10:29:05.852,0.035,0.056,1.002
2026/05/14 10:29:05.870,0.034,0.063,1.003
2026/05/14 10:29:05.889,0.039,0.053,1.003
2026/05/14 10:29:05.908,0.036,0.058,1.003
2026/05/14 10:29:05.927,0.033,0.058,1.006
2026/05/14 10:29:05.946,0.035,0.055,1.005
2026/05/14 10:29:05.965,0.038,0.057,1.003
2026/05/14 10:29:05.984,0.036,0.06,1.002
2026/05/14 10:29:06.003,0.035,0.054,0.999
2026/05/14 10:29:06.022,0.035,0.054,1.002
2026/05/14 10:29:06.041,0.035,0.057,1.005
2026/05/14 10:29:06.060,0.039,0.059,1.004
2026/05/14 10:29:06.079,0.032,0.062,1.002
2026/05/14 10:29:06.098,0.034,0.057,1.001
2026/05/14 10:29:06.116,0.035,0.058,1.002
2026/05/14 10:29:06.135,0.034,0.054,1.003
2026/05/14 10:29:06.154,0.033,0.059,1.007
2026/05/14 10:29:06.173,0.037,0.052,1.003
2026/05/14 10:29:06.192,0.033,0.053,1.002
2026/05/14 10:29:06.211,0.033,0.055,1.003
2026/05/14 10:29:06.230,0.035,0.055,1.003
2026/05/14 10:29:06.249,0.035,0.059,1.006
2026/05/14 10:29:06.268,0.04,0.053,1.002
2026/05/14 10:29:06.287,0.034,0.059,1.008
2026/05/14 10:29:06.306,0.036,0.057,1.006
2026/05/14 10:29:06.325,0.033,0.059,1.0
2026/05/14 10:29:06.343,0.035,0.057,1.001
2026/05/14 10:29:06.362,0.037,0.054,1.001
2026/05/14 10:29:06.381,0.033,0.053,1.005
2026/05/14 10:29:06.400,0.035,0.055,1.003
2026/05/14 10:29:06.419,0.036,0.054,1.003
2026/05/14 10:29:06.438,0.035,0.054,1.003
2026/05/14 10:29:06.457,0.035,0.057,1.005
2026/05/14 10:29:06.476,0.035,0.056,1.006
2026/05/14 10:29:06.495,0.045,0.124,1.016
2026/05/14 10:29:06.514,0.076,0.046,1.073
2026/05/14 10:29:06.533,0.031,0.033,0.918
2026/05/14 10:29:06.552,0.053,0.065,1.062
2026/05/14 10:29:06.570,0.038,0.05,0.974
2026/05/14 10:29:06.589,0.045,0.059,1.043
2026/05/14 10:29:06.608,0.046,0.061,1.037
2026/05/14 10:29:06.627,0.038,0.059,1.036
2026/05/14 10:29:06.646,0.027,0.061,1.004
2026/05/14 10:29:06.665,0.028,0.058,0.981
2026/05/14 10:29:06.684,0.027,0.054,0.979
2026/05/14 10:29:06.703,0.033,0.054,0.998
2026/05/14 10:29:06.722,0.04,0.051,1.0
2026/05/14 10:29:06.741,0.037,0.048,0.991
2026/05/14 10:29:06.760,0.049,0.06,1.018
2026/05/14 10:29:06.779,0.04,0.048,1.003
2026/05/14 10:29:06.797,0.032,0.048,1.004
2026/05/14 10:29:06.816,0.029,0.05,1.013
2026/05/14 10:29:06.835,0.033,0.059,1.011
2026/05/14 10:29:06.854,0.03,0.061,1.005
2026/05/14 10:29:06.873,0.033,0.066,1.009
2026/05/14 10:29:06.892,0.035,0.062,1.007
2026/05/14 10:29:06.911,0.042,0.058,1.01
2026/05/14 10:29:06.930,0.04,0.055,1.011
2026/05/14 10:29:06.949,0.039,0.061,1.005
2026/05/14 10:29:06.968,0.036,0.06,0.999
2026/05/14 10:29:06.987,0.035,0.062,1.001
2026/05/14 10:29:07.006,0.035,0.049,1.003
2026/05/14 10:29:07.024,0.03,0.056,1.002
2026/05/14 10:29:07.043,0.029,0.052,1.001
2026/05/14 10:29:07.062,0.03,0.049,1.002
2026/05/14 10:29:07.081,0.037,0.053,1.0
2026/05/14 10:29:07.100,0.036,0.058,1.005
2026/05/14 10:29:07.119,0.041,0.054,1.005
2026/05/14 10:29:07.138,0.039,0.06,1.005
2026/05/14 10:29:07.157,0.032,0.056,1.006
2026/05/14 10:29:07.176,0.031,0.054,1.003
2026/05/14 10:29:07.195,0.032,0.058,1.007
2026/05/14 10:29:07.214,0.032,0.056,1.006
2026/05/14 10:29:07.233,0.033,0.063,1.011
2026/05/14 10:29:07.252,0.036,0.059,1.007
2026/05/14 10:29:07.270,0.035,0.059,1.001
2026/05/14 10:29:07.289,0.037,0.058,1.0
2026/05/14 10:29:07.308,0.037,0.056,1.002
2026/05/14 10:29:07.327,0.035,0.055,1.001
2026/05/14 10:29:07.346,0.033,0.052,1.002
2026/05/14 10:29:07.365,0.033,0.052,0.999
2026/05/14 10:29:07.384,0.03,0.055,1.004
2026/05/14 10:29:07.403,0.033,0.053,1.002
2026/05/14 10:29:07.422,0.034,0.056,1.005
2026/05/14 10:29:07.441,0.036,0.055,1.004
2026/05/14 10:29:07.460,0.034,0.055,1.005
2026/05/14 10:29:07.479,0.033,0.057,1.004
2026/05/14 10:29:07.497,0.038,0.061,1.003
2026/05/14 10:29:07.516,0.036,0.056,1.002
2026/05/14 10:29:07.535,0.033,0.057,1.006
2026/05/14 10:29:07.554,0.035,0.054,1.006
2026/05/14 10:29:07.573,0.036,0.059,1.005
2026/05/14 10:29:07.592,0.036,0.058,1.007
2026/05/14 10:29:07.611,0.034,0.057,1.006
2026/05/14 10:29:07.630,0.036,0.056,1.003
2026/05/14 10:29:07.649,0.034,0.057,1.005
2026/05/14 10:29:07.668,0.036,0.055,1.003
2026/05/14 10:29:07.687,0.034,0.055,1.0
2026/05/14 10:29:07.706,0.031,0.054,1.005
2026/05/14 10:29:07.724,0.032,0.056,1.007
2026/05/14 10:29:07.743,0.036,0.05,1.004
2026/05/14 10:29:07.762,0.035,0.058,1.002
2026/05/14 10:29:07.781,0.035,0.062,1.001
2026/05/14 10:29:07.800,0.033,0.058,1.004
2026/05/14 10:29:07.819,0.039,0.058,1.0
2026/05/14 10:29:07.838,0.04,0.054,1.005
2026/05/14 10:29:07.857,0.039,0.059,1.005
2026/05/14 10:29:07.876,0.037,0.054,1.001
2026/05/14 10:29:07.895,0.037,0.055,1.003
2026/05/14 10:29:07.914,0.033,0.054,1.0
2026/05/14 10:29:07.933,0.033,0.054,1.006
2026/05/14 10:29:07.951,0.035,0.057,1.004
2026/05/14 10:29:07.970,0.037,0.056,1.005
2026/05/14 10:29:07.989,0.035,0.053,1.003
2026/05/14 10:29:08.008,0.034,0.054,1.0
2026/05/14 10:29:08.027,0.036,0.051,1.006
2026/05/14 10:29:08.046,0.033,0.054,1.001
2026/05/14 10:29:08.065,0.029,0.052,1.005
2026/05/14 10:29:08.084,0.031,0.057,1.003
2026/05/14 10:29:08.103,0.03,0.06,1.008
2026/05/14 10:29:08.122,0.034,0.057,1.006
2026/05/14 10:29:08.141,0.035,0.058,1.005
2026/05/14 10:29:08.160,0.034,0.058,1.004
2026/05/14 10:29:08.178,0.033,0.057,1.009
2026/05/14 10:29:08.197,0.037,0.058,1.002
2026/05/14 10:29:08.216,0.037,0.054,1.006
2026/05/14 10:29:08.235,0.032,0.058,1.006
2026/05/14 10:29:08.254,0.032,0.051,1.005
2026/05/14 10:29:08.273,0.034,0.058,1.003
2026/05/14 10:29:08.292,0.033,0.054,1.003
2026/05/14 10:29:08.311,0.029,0.054,1.006
2026/05/14 10:29:08.330,0.033,0.055,1.005
2026/05/14 10:29:08.349,0.037,0.054,1.005
2026/05/14 10:29:08.368,0.039,0.055,1.003
2026/05/14 10:29:08.387,0.04,0.059,1.001
2026/05/14 10:29:08.405,0.034,0.057,1.008
2026/05/14 10:29:08.424,0.036,0.06,1.005
2026/05/14 10:29:08.443,0.034,0.055,1.003
2026/05/14 10:29:08.462,0.034,0.055,1.003
2026/05/14 10:29:08.481,0.035,0.057,1.006
2026/05/14 10:29:08.500,0.035,0.059,1.007
2026/05/14 10:29:08.519,0.033,0.054,1.004
2026/05/14 10:29:08.538,0.038,0.056,0.998
2026/05/14 10:29:08.557,0.04,0.053,1.003
2026/05/14 10:29:08.576,0.036,0.055,1.006
2026/05/14 10:29:08.595,0.033,0.056,1.005
2026/05/14 10:29:08.613,0.032,0.054,0.999
2026/05/14 10:29:08.632,0.036,0.053,1.004
2026/05/14 10:29:08.651,0.032,0.052,1.006
2026/05/14 10:29:08.670,0.036,0.054,1.002
2026/05/14 10:29:08.689,0.036,0.057,1.004
2026/05/14 10:29:08.708,0.037,0.054,1.005
2026/05/14 10:29:08.727,0.037,0.056,1.005
2026/05/14 10:29:08.746,0.041,0.056,1.001
2026/05/14 10:29:08.765,0.031,0.057,1.002
2026/05/14 10:29:08.784,0.036,0.057,1.004
2026/05/14 10:29:08.803,0.036,0.055,1.008
2026/05/14 10:29:08.822,0.031,0.057,1.003
2026/05/14 10:29:08.840,0.036,0.056,1.003
2026/05/14 10:29:08.859,0.033,0.055,1.005
2026/05/14 10:29:08.878,0.034,0.055,1.002
2026/05/14 10:29:08.897,0.033,0.054,1.002
2026/05/14 10:29:08.916,0.035,0.057,1.0
2026/05/14 10:29:08.935,0.03,0.059,1.003
2026/05/14 10:29:08.954,0.036,0.053,1.003
2026/05/14 10:29:08.973,0.034,0.054,1.006
2026/05/14 10:29:08.992,0.033,0.058,1.006
2026/05/14 10:29:09.011,0.032,0.055,1.002
2026/05/14 10:29:09.030,0.035,0.055,1.005
2026/05/14 10:29:09.049,0.039,0.058,1.0
2026/05/14 10:29:09.067,0.035,0.055,1.006
2026/05/14 10:29:09.086,0.036,0.057,0.999
2026/05/14 10:29:09.105,0.033,0.06,1.002
2026/05/14 10:29:09.124,0.036,0.059,1.009
2026/05/14 10:29:09.143,0.032,0.057,1.006
2026/05/14 10:29:09.162,0.035,0.055,1.004
2026/05/14 10:29:09.181,0.037,0.058,1.004
2026/05/14 10:29:09.200,0.035,0.053,1.001
2026/05/14 10:29:09.219,0.037,0.054,1.007
2026/05/14 10:29:09.238,0.033,0.055,1.003
2026/05/14 10:29:09.257,0.036,0.058,1.004
2026/05/14 10:29:09.276,0.036,0.058,1.001
2026/05/14 10:29:09.294,0.032,0.056,1.001
2026/05/14 10:29:09.313,0.034,0.065,1.003
2026/05/14 10:29:09.332,0.038,0.059,1.002
2026/05/14 10:29:09.351,0.036,0.056,1.002
2026/05/14 10:29:09.370,0.034,0.056,1.006
2026/05/14 10:29:09.389,0.037,0.055,1.003
2026/05/14 10:29:09.408,0.038,0.054,1.002
2026/05/14 10:29:09.427,0.034,0.059,1.003
2026/05/14 10:29:09.446,0.036,0.055,1.003
2026/05/14 10:29:09.465,0.031,0.051,1.005
2026/05/14 10:29:09.484,0.033,0.057,1.006
2026/05/14 10:29:09.503,0.034,0.059,1.002
2026/05/14 10:29:09.521,0.035,0.055,1.006
2026/05/14 10:29:09.540,0.033,0.055,1.003
2026/05/14 10:29:09.559,0.034,0.054,1.002
2026/05/14 10:29:09.578,0.036,0.054,1.006
2026/05/14 10:29:09.597,0.036,0.056,1.003
2026/05/14 10:29:09.616,0.036,0.059,1.007
2026/05/14 10:29:09.635,0.029,0.058,1.003
2026/05/14 10:29:09.654,0.035,0.055,1.003
2026/05/14 10:29:09.673,0.035,0.058,1.005
2026/05/14 10:29:09.692,0.036,0.057,1.005
2026/05/14 10:29:09.711,0.031,0.055,1.001
2026/05/14 10:29:09.730,0.034,0.054,1.009
2026/05/14 10:29:09.748,0.037,0.057,1.001
2026/05/14 10:29:09.767,0.033,0.053,1.006
2026/05/14 10:29:09.786,0.033,0.055,1.006
2026/05/14 10:29:09.805,0.037,0.054,1.003
2026/05/14 10:29:09.824,0.035,0.052,1.005
2026/05/14 10:29:09.843,0.036,0.056,1.002
2026/05/14 10:29:09.862,0.033,0.052,1.0
2026/05/14 10:29:09.881,0.035,0.054,1.007
2026/05/14 10:29:09.900,0.036,0.053,1.001
2026/05/14 10:29:09.919,0.036,0.056,1.004
2026/05/14 10:29:09.938,0.035,0.057,1.002
2026/05/14 10:29:09.957,0.033,0.054,1.002
2026/05/14 10:29:09.975,0.034,0.056,1.003
2026/05/14 10:29:09.994,0.034,0.055,1.006
2026/05/14 10:29:10.013,0.032,0.057,1.003
2026/05/14 10:29:10.032,0.035,0.054,1.001
2026/05/14 10:29:10.051,0.037,0.057,1.004
2026/05/14 10:29:10.070,0.036,0.057,1.002
2026/05/14 10:29:10.089,0.034,0.055,1.006
2026/05/14 10:29:10.108,0.035,0.057,0.999
2026/05/14 10:29:10.127,0.034,0.058,1.003
2026/05/14 10:29:10.146,0.034,0.056,1.002
2026/05/14 10:29:10.165,0.035,0.056,1.003
2026/05/14 10:29:10.184,0.034,0.056,1.005
2026/05/14 10:29:10.202,0.038,0.053,1.004
2026/05/14 10:29:10.221,0.035,0.054,1.004
2026/05/14 10:29:10.240,0.035,0.056,1.002
2026/05/14 10:29:10.259,0.036,0.054,1.002
2026/05/14 10:29:10.278,0.034,0.059,1.0
2026/05/14 10:29:10.297,0.034,0.058,1.009
2026/05/14 10:29:10.316,0.034,0.06,1.004
2026/05/14 10:29:10.335,0.04,0.054,1.001
2026/05/14 10:29:10.354,0.033,0.054,1.0
2026/05/14 10:29:10.373,0.033,0.054,1.0
2026/05/14 10:29:10.392,0.035,0.058,1.008
2026/05/14 10:29:10.411,0.036,0.056,0.997
2026/05/14 10:29:10.429,0.033,0.056,1.003
2026/05/14 10:29:10.448,0.033,0.057,1.001
2026/05/14 10:29:10.467,0.036,0.053,1.005
2026/05/14 10:29:10.486,0.034,0.056,1.005
2026/05/14 10:29:10.505,0.034,0.058,1.004
2026/05/14 10:29:10.524,0.036,0.056,1.004
2026/05/14 10:29:10.543,0.035,0.054,1.005
2026/05/14 10:29:10.562,0.032,0.053,1.003
2026/05/14 10:29:10.581,0.034,0.055,1.002
2026/05/14 10:29:10.600,0.037,0.052,1.005
2026/05/14 10:29:10.619,0.034,0.056,1.002
2026/05/14 10:29:10.638,0.033,0.053,1.003
2026/05/14 10:29:10.656,0.034,0.055,1.004
2026/05/14 10:29:10.675,0.04,0.06,1.005
2026/05/14 10:29:10.694,0.035,0.052,1.007
2026/05/14 10:29:10.713,0.033,0.054,1.0
2026/05/14 10:29:10.732,0.038,0.053,1.007
2026/05/14 10:29:10.751,0.039,0.052,1.002
2026/05/14 10:29:10.770,0.037,0.056,1.003
2026/05/14 10:29:10.789,0.034,0.057,1.006
2026/05/14 10:29:10.808,0.036,0.056,1.002
2026/05/14 10:29:10.827,0.038,0.052,1.002
2026/05/14 10:29:10.846,0.032,0.056,1.0
2026/05/14 10:29:10.865,0.035,0.054,1.005
2026/05/14 10:29:10.883,0.033,0.058,1.005
2026/05/14 10:29:10.902,0.034,0.055,1.005
2026/05/14 10:29:10.921,0.033,0.056,0.998
2026/05/14 10:29:10.940,0.033,0.059,1.006
2026/05/14 10:29:10.959,0.033,0.051,1.006
2026/05/14 10:29:10.978,0.036,0.058,1.006
2026/05/14 10:29:10.997,0.037,0.06,1.005
2026/05/14 10:29:11.016,0.032,0.052,1.003
2026/05/14 10:29:11.035,0.035,0.056,1.005
2026/05/14 10:29:11.054,0.035,0.054,0.999
2026/05/14 10:29:11.073,0.034,0.055,1.007
2026/05/14 10:29:11.092,0.032,0.053,1.004
2026/05/14 10:29:11.110,0.038,0.055,1.002
2026/05/14 10:29:11.129,0.033,0.057,1.003
2026/05/14 10:29:11.148,0.034,0.055,1.004
2026/05/14 10:29:11.167,0.036,0.056,1.003
2026/05/14 10:29:11.186,0.035,0.057,1.0
2026/05/14 10:29:11.205,0.032,0.056,1.002
2026/05/14 10:29:11.224,0.034,0.057,0.998
2026/05/14 10:29:11.243,0.033,0.059,1.005
2026/05/14 10:29:11.262,0.035,0.06,1.002
2026/05/14 10:29:11.281,0.033,0.06,1.003
2026/05/14 10:29:11.300,0.033,0.056,0.999
2026/05/14 10:29:11.319,0.035,0.052,1.006
2026/05/14 10:29:11.337,0.034,0.06,1.002
2026/05/14 10:29:11.356,0.036,0.054,1.0
2026/05/14 10:29:11.375,0.037,0.057,0.998
2026/05/14 10:29:11.394,0.037,0.054,1.004
2026/05/14 10:29:11.413,0.034,0.055,1.003
2026/05/14 10:29:11.432,0.036,0.054,1.002
2026/05/14 10:29:11.451,0.037,0.057,1.002
2026/05/14 10:29:11.470,0.036,0.055,1.002
2026/05/14 10:29:11.489,0.038,0.056,1.006
2026/05/14 10:29:11.508,0.032,0.054,1.003
2026/05/14 10:29:11.527,0.036,0.057,1.004
2026/05/14 10:29:11.546,0.035,0.057,1.002
2026/05/14 10:29:11.565,0.032,0.058,1.006
2026/05/14 10:29:11.583,0.033,0.054,1.001
2026/05/14 10:29:11.602,0.035,0.055,1.004
2026/05/14 10:29:11.621,0.039,0.055,1.003
2026/05/14 10:29:11.640,0.036,0.058,0.999
2026/05/14 10:29:11.659,0.034,0.056,1.006
2026/05/14 10:29:11.678,0.035,0.057,1.006
2026/05/14 10:29:11.697,0.035,0.058,1.001
2026/05/14 10:29:11.716,0.035,0.054,1.002
2026/05/14 10:29:11.735,0.033,0.052,1.003
2026/05/14 10:29:11.754,0.032,0.055,1.005
2026/05/14 10:29:11.773,0.033,0.058,1.003
2026/05/14 10:29:11.792,0.036,0.054,1.003
2026/05/14 10:29:11.810,0.035,0.056,1.001
2026/05/14 10:29:11.829,0.034,0.058,1.006
2026/05/14 10:29:11.848,0.036,0.059,1.005
2026/05/14 10:29:11.867,0.031,0.052,0.985
2026/05/14 10:29:11.886,0.035,0.053,1.009
2026/05/14 10:29:11.905,0.041,0.06,1.021
2026/05/14 10:29:11.924,0.047,0.061,1.008
2026/05/14 10:29:11.943,0.022,0.044,0.972
2026/05/14 10:29:11.962,0.047,0.055,0.993
2026/05/14 10:29:11.981,0.035,0.053,1.001
2026/05/14 10:29:12.000,0.045,0.062,1.009
2026/05/14 10:29:12.019,0.033,0.062,0.995
2026/05/14 10:29:12.037,0.032,0.061,1.02
2026/05/14 10:29:12.056,0.031,0.059,1.005
2026/05/14 10:29:12.075,0.025,0.048,0.997
2026/05/14 10:29:12.094,0.036,0.057,1.011
2026/05/14 10:29:12.113,0.037,0.054,0.997
2026/05/14 10:29:12.132,0.035,0.057,1.008
2026/05/14 10:29:12.151,0.038,0.055,1.0
2026/05/14 10:29:12.170,0.035,0.055,0.995
2026/05/14 10:29:12.189,0.037,0.051,1.002
2026/05/14 10:29:12.208,0.028,0.05,1.007
2026/05/14 10:29:12.227,0.028,0.059,1.01
2026/05/14 10:29:12.246,0.034,0.055,1.01
2026/05/14 10:29:12.264,0.037,0.055,0.992
2026/05/14 10:29:12.283,0.04,0.058,0.996
2026/05/14 10:29:12.302,0.039,0.053,1.004
2026/05/14 10:29:12.321,0.036,0.054,1.005
2026/05/14 10:29:12.340,0.039,0.052,1.003
2026/05/14 10:29:12.359,0.034,0.057,1.003
2026/05/14 10:29:12.378,0.034,0.056,1.008
2026/05/14 10:29:12.397,0.033,0.057,1.007
2026/05/14 10:29:12.416,0.03,0.057,1.005
2026/05/14 10:29:12.435,0.035,0.054,1.007
2026/05/14 10:29:12.454,0.031,0.053,1.004
2026/05/14 10:29:12.473,0.035,0.046,1.006
2026/05/14 10:29:12.491,0.037,0.055,1.002
2026/05/14 10:29:12.510,0.039,0.058,1.004
2026/05/14 10:29:12.529,0.038,0.057,1.001
2026/05/14 10:29:12.548,0.033,0.057,1.005
2026/05/14 10:29:12.567,0.033,0.052,1.005
2026/05/14 10:29:12.586,0.034,0.055,1.005
2026/05/14 10:29:12.605,0.038,0.062,1.003
2026/05/14 10:29:12.624,0.039,0.06,1.004
2026/05/14 10:29:12.643,0.037,0.056,1.004
2026/05/14 10:29:12.662,0.038,0.056,0.998
2026/05/14 10:29:12.681,0.04,0.057,1.001
2026/05/14 10:29:12.700,0.036,0.055,1.003
2026/05/14 10:29:12.718,0.034,0.058,1.002
2026/05/14 10:29:12.737,0.035,0.055,0.999
2026/05/14 10:29:12.756,0.031,0.058,1.008
2026/05/14 10:29:12.775,0.033,0.057,1.002
2026/05/14 10:29:12.794,0.035,0.061,1.006
2026/05/14 10:29:12.813,0.034,0.051,1.001
2026/05/14 10:29:12.832,0.036,0.056,1.004
2026/05/14 10:29:12.851,0.037,0.058,1.002
2026/05/14 10:29:12.870,0.037,0.056,1.003
2026/05/14 10:29:12.889,0.036,0.054,1.008
2026/05/14 10:29:12.908,0.033,0.055,1.001
2026/05/14 10:29:12.927,0.035,0.058,1.004
2026/05/14 10:29:12.946,0.033,0.057,1.004
2026/05/14 10:29:12.964,0.031,0.057,1.004
2026/05/14 10:29:12.983,0.037,0.058,1.003
2026/05/14 10:29:13.002,0.037,0.055,1.002
2026/05/14 10:29:13.021,0.037,0.055,1.006
2026/05/14 10:29:13.040,0.036,0.06,0.998
2026/05/14 10:29:13.059,0.033,0.054,1.004
2026/05/14 10:29:13.078,0.033,0.058,1.005
2026/05/14 10:29:13.097,0.032,0.057,1.004
2026/05/14 10:29:13.116,0.034,0.057,1.004
2026/05/14 10:29:13.135,0.036,0.056,1.004
2026/05/14 10:29:13.154,0.034,0.059,1.004
2026/05/14 10:29:13.173,0.034,0.055,1.002
2026/05/14 10:29:13.191,0.034,0.056,1.002
2026/05/14 10:29:13.210,0.036,0.059,1.003
2026/05/14 10:29:13.229,0.035,0.056,1.008
2026/05/14 10:29:13.248,0.035,0.054,1.002
2026/05/14 10:29:13.267,0.034,0.061,1.005
2026/05/14 10:29:13.286,0.035,0.056,1.001
2026/05/14 10:29:13.305,0.035,0.057,1.004
2026/05/14 10:29:13.324,0.04,0.055,1.006
2026/05/14 10:29:13.343,0.032,0.057,1.001
2026/05/14 10:29:13.362,0.041,0.058,1.002
2026/05/14 10:29:13.381,0.037,0.054,1.006
2026/05/14 10:29:13.400,0.034,0.058,1.004
2026/05/14 10:29:13.418,0.033,0.055,1.0
2026/05/14 10:29:13.437,0.037,0.053,1.004
2026/05/14 10:29:13.456,0.031,0.057,1.002
2026/05/14 10:29:13.475,0.032,0.058,1.004
2026/05/14 10:29:13.494,0.036,0.054,1.001
2026/05/14 10:29:13.513,0.035,0.055,0.999
2026/05/14 10:29:13.532,0.037,0.058,1.0
2026/05/14 10:29:13.551,0.034,0.058,1.002
2026/05/14 10:29:13.570,0.034,0.057,1.001
2026/05/14 10:29:13.589,0.034,0.057,1.003
2026/05/14 10:29:13.608,0.03,0.056,1.002
2026/05/14 10:29:13.627,0.037,0.062,1.006
2026/05/14 10:29:13.645,0.036,0.053,1.002
2026/05/14 10:29:13.664,0.034,0.061,1.004
2026/05/14 10:29:13.683,0.035,0.057,0.999
2026/05/14 10:29:13.702,0.035,0.058,1.0
2026/05/14 10:29:13.721,0.035,0.057,1.001
2026/05/14 10:29:13.740,0.037,0.058,1.002
2026/05/14 10:29:13.759,0.032,0.054,1.005
2026/05/14 10:29:13.778,0.034,0.06,1.002
2026/05/14 10:29:13.797,0.033,0.057,0.998
2026/05/14 10:29:13.816,0.03,0.059,1.002
2026/05/14 10:29:13.835,0.033,0.057,1.004
2026/05/14 10:29:13.854,0.035,0.055,1.003
2026/05/14 10:29:13.873,0.038,0.056,1.004
2026/05/14 10:29:13.891,0.034,0.055,1.007
2026/05/14 10:29:13.910,0.036,0.054,1.002
2026/05/14 10:29:13.929,0.037,0.055,1.001
2026/05/14 10:29:13.948,0.035,0.056,1.005
2026/05/14 10:29:13.967,0.034,0.059,1.005
2026/05/14 10:29:13.986,0.005,0.045,0.872
2026/05/14 10:29:14.005,0.045,0.068,1.062
2026/05/14 10:29:14.024,0.033,0.045,0.963
2026/05/14 10:29:14.043,0.039,0.064,1.039
2026/05/14 10:29:14.062,0.037,0.047,0.98
2026/05/14 10:29:14.081,0.034,0.058,1.035
2026/05/14 10:29:14.100,0.034,0.059,1.003
2026/05/14 10:29:14.118,0.034,0.06,0.993
2026/05/14 10:29:14.137,0.025,0.054,0.977
2026/05/14 10:29:14.156,0.021,0.057,0.997
2026/05/14 10:29:14.175,0.033,0.05,1.001
2026/05/14 10:29:14.194,0.04,0.052,0.993
2026/05/14 10:29:14.213,0.04,0.056,0.998
2026/05/14 10:29:14.232,0.037,0.055,0.997
2026/05/14 10:29:14.251,0.035,0.054,0.999
2026/05/14 10:29:14.270,0.036,0.057,1.003
2026/05/14 10:29:14.289,0.033,0.054,1.008
2026/05/14 10:29:14.308,0.03,0.052,1.011
2026/05/14 10:29:14.327,0.031,0.057,1.008
2026/05/14 10:29:14.345,0.03,0.058,1.002
2026/05/14 10:29:14.364,0.036,0.056,1.004
2026/05/14 10:29:14.383,0.039,0.056,1.008
2026/05/14 10:29:14.402,0.039,0.054,1.006
2026/05/14 10:29:14.421,0.04,0.061,0.998
2026/05/14 10:29:14.440,0.038,0.055,0.996
2026/05/14 10:29:14.459,0.036,0.058,1.0
2026/05/14 10:29:14.478,0.034,0.057,1.001
2026/05/14 10:29:14.497,0.031,0.057,1.004
2026/05/14 10:29:14.516,0.032,0.055,1.004
2026/05/14 10:29:14.535,0.035,0.054,1.003
2026/05/14 10:29:14.554,0.038,0.055,1.007
2026/05/14 10:29:14.572,0.035,0.053,1.002
2026/05/14 10:29:14.591,0.04,0.056,1.006
2026/05/14 10:29:14.610,0.04,0.055,1.006
2026/05/14 10:29:14.629,0.034,0.056,0.997
2026/05/14 10:29:14.648,0.036,0.055,1.005
2026/05/14 10:29:14.667,0.031,0.059,1.005
2026/05/14 10:29:14.686,0.033,0.057,1.005
2026/05/14 10:29:14.705,0.034,0.056,1.005
2026/05/14 10:29:14.724,0.035,0.055,0.998
2026/05/14 10:29:14.743,0.036,0.057,1.003
2026/05/14 10:29:14.762,0.04,0.058,0.999
2026/05/14 10:29:14.781,0.037,0.057,1.006
2026/05/14 10:29:14.799,0.039,0.057,1.006
2026/05/14 10:29:14.818,0.034,0.056,1.004
2026/05/14 10:29:14.837,0.035,0.055,1.003
2026/05/14 10:29:14.856,0.034,0.06,1.001
2026/05/14 10:29:14.875,0.031,0.056,1.003
2026/05/14 10:29:14.894,0.038,0.055,1.004
2026/05/14 10:29:14.913,0.039,0.052,1.002
2026/05/14 10:29:14.932,0.04,0.052,1.003
2026/05/14 10:29:14.951,0.038,0.052,1.005
2026/05/14 10:29:14.970,0.034,0.059,1.003
2026/05/14 10:29:14.989,0.035,0.055,1.007
2026/05/14 10:29:15.008,0.034,0.056,1.003
2026/05/14 10:29:15.026,0.034,0.054,1.008
2026/05/14 10:29:15.045,0.036,0.054,1.003
2026/05/14 10:29:15.064,0.033,0.059,1.005
2026/05/14 10:29:15.083,0.036,0.054,0.998
2026/05/14 10:29:15.102,0.036,0.055,1.002
2026/05/14 10:29:15.121,0.039,0.055,1.0
2026/05/14 10:29:15.140,0.032,0.055,1.005
2026/05/14 10:29:15.159,0.035,0.057,1.003
2026/05/14 10:29:15.178,0.035,0.054,1.001
2026/05/14 10:29:15.197,0.033,0.057,1.003
2026/05/14 10:29:15.216,0.033,0.057,1.006
2026/05/14 10:29:15.235,0.034,0.056,1.008
2026/05/14 10:29:15.253,0.037,0.059,1.003
2026/05/14 10:29:15.272,0.035,0.053,1.007
2026/05/14 10:29:15.291,0.036,0.057,1.004
2026/05/14 10:29:15.310,0.035,0.059,1.004
2026/05/14 10:29:15.329,0.036,0.055,1.005
2026/05/14 10:29:15.348,0.036,0.061,1.005
2026/05/14 10:29:15.367,0.034,0.056,1.001
2026/05/14 10:29:15.386,0.028,0.051,1.005
2026/05/14 10:29:15.405,0.038,0.055,1.002
2026/05/14 10:29:15.424,0.035,0.058,1.001
2026/05/14 10:29:15.443,0.034,0.056,1.015
2026/05/14 10:29:15.462,0.034,0.057,1.001
2026/05/14 10:29:15.480,0.035,0.054,1.011
2026/05/14 10:29:15.499,0.031,0.051,0.987
2026/05/14 10:29:15.518,0.036,0.059,1.002
2026/05/14 10:29:15.537,0.035,0.054,1.004
2026/05/14 10:29:15.556,0.033,0.061,1.007
2026/05/14 10:29:15.575,0.033,0.057,1.005
2026/05/14 10:29:15.594,0.036,0.055,1.005
2026/05/14 10:29:15.613,0.034,0.057,1.005
2026/05/14 10:29:15.632,0.035,0.057,1.003
2026/05/14 10:29:15.651,0.038,0.055,1.004
2026/05/14 10:29:15.670,0.029,0.055,1.006
2026/05/14 10:29:15.689,0.035,0.055,0.995
2026/05/14 10:29:15.707,0.033,0.057,1.007
2026/05/14 10:29:15.726,0.028,0.054,1.0
2026/05/14 10:29:15.745,0.035,0.054,1.003
2026/05/14 10:29:15.764,0.033,0.055,1.006
2026/05/14 10:29:15.783,0.035,0.054,1.002
2026/05/14 10:29:15.802,0.034,0.057,1.005
2026/05/14 10:29:15.821,0.034,0.056,1.004
2026/05/14 10:29:15.840,0.029,0.058,1.001
2026/05/14 10:29:15.859,0.037,0.054,1.006
2026/05/14 10:29:15.878,0.036,0.057,1.002
2026/05/14 10:29:15.897,0.035,0.059,1.007
2026/05/14 10:29:15.915,0.035,0.053,1.002
2026/05/14 10:29:15.934,0.029,0.06,0.997
2026/05/14 10:29:15.953,0.035,0.054,1.008
2026/05/14 10:29:15.972,0.036,0.058,1.002
2026/05/14 10:29:15.991,0.034,0.056,1.001
2026/05/14 10:29:16.010,0.031,0.056,1.002
2026/05/14 10:29:16.029,0.036,0.056,1.004
2026/05/14 10:29:16.048,0.032,0.058,1.004
2026/05/14 10:29:16.067,0.037,0.06,1.006
2026/05/14 10:29:16.086,0.03,0.054,1.0
2026/05/14 10:29:16.105,0.035,0.057,1.002
2026/05/14 10:29:16.124,0.035,0.056,1.002
2026/05/14 10:29:16.142,0.037,0.056,1.0
2026/05/14 10:29:16.161,0.035,0.056,1.004
2026/05/14 10:29:16.180,0.036,0.057,1.006
2026/05/14 10:29:16.199,0.034,0.054,1.007
2026/05/14 10:29:16.218,0.036,0.057,1.001
2026/05/14 10:29:16.237,0.036,0.053,1.003
2026/05/14 10:29:16.256,0.036,0.055,1.003
2026/05/14 10:29:16.275,0.037,0.056,1.003
2026/05/14 10:29:16.294,0.038,0.059,1.003
2026/05/14 10:29:16.313,0.035,0.054,1.005
2026/05/14 10:29:16.332,0.039,0.055,0.998
2026/05/14 10:29:16.351,0.035,0.054,1.002
2026/05/14 10:29:16.369,0.033,0.057,1.003
2026/05/14 10:29:16.388,0.037,0.058,1.005
2026/05/14 10:29:16.407,0.037,0.053,1.003
2026/05/14 10:29:16.426,0.033,0.056,0.999
2026/05/14 10:29:16.445,0.034,0.056,1.004
2026/05/14 10:29:16.464,0.036,0.058,1.002
2026/05/14 10:29:16.483,0.037,0.058,1.006
2026/05/14 10:29:16.502,0.034,0.055,1.002
2026/05/14 10:29:16.521,0.037,0.059,1.001
2026/05/14 10:29:16.540,0.036,0.056,1.002
2026/05/14 10:29:16.559,0.036,0.056,1.001
2026/05/14 10:29:16.578,0.037,0.059,1.0
2026/05/14 10:29:16.596,0.031,0.052,1.008
2026/05/14 10:29:16.615,0.037,0.057,1.006
2026/05/14 10:29:16.634,0.034,0.055,1.002
2026/05/14 10:29:16.653,0.04,0.054,1.0
2026/05/14 10:29:16.672,0.032,0.058,1.009
2026/05/14 10:29:16.691,0.035,0.058,1.004
2026/05/14 10:29:16.710,0.034,0.056,1.001
2026/05/14 10:29:16.729,0.037,0.053,0.998
2026/05/14 10:29:16.748,0.036,0.056,1.008
2026/05/14 10:29:16.767,0.034,0.056,1.006
2026/05/14 10:29:16.786,0.033,0.058,1.004
2026/05/14 10:29:16.805,0.036,0.054,1.008
2026/05/14 10:29:16.824,0.03,0.061,1.001
2026/05/14 10:29:16.842,0.031,0.055,1.006
2026/05/14 10:29:16.861,0.036,0.054,1.003
2026/05/14 10:29:16.880,0.035,0.056,1.004
2026/05/14 10:29:16.899,0.034,0.057,1.0
2026/05/14 10:29:16.918,0.035,0.056,1.003
2026/05/14 10:29:16.937,0.033,0.058,1.003
2026/05/14 10:29:16.956,0.038,0.055,1.002
2026/05/14 10:29:16.975,0.034,0.055,1.002
2026/05/14 10:29:16.994,0.033,0.054,1.004
2026/05/14 10:29:17.013,0.031,0.057,1.004
2026/05/14 10:29:17.032,0.036,0.057,1.003
2026/05/14 10:29:17.051,0.035,0.057,1.006
2026/05/14 10:29:17.069,0.037,0.054,1.002
2026/05/14 10:29:17.088,0.034,0.057,1.003
2026/05/14 10:29:17.107,0.033,0.056,1.005
2026/05/14 10:29:17.126,0.035,0.054,1.001
2026/05/14 10:29:17.145,0.033,0.057,0.999
2026/05/14 10:29:17.164,0.035,0.058,1.003
2026/05/14 10:29:17.183,0.033,0.055,1.003
2026/05/14 10:29:17.202,0.036,0.057,1.004
2026/05/14 10:29:17.221,0.035,0.055,1.002
2026/05/14 10:29:17.240,0.031,0.057,1.006
2026/05/14 10:29:17.259,0.038,0.056,0.997
2026/05/14 10:29:17.278,0.038,0.057,0.998
2026/05/14 10:29:17.296,0.033,0.055,0.999
2026/05/14 10:29:17.315,0.033,0.054,1.005
2026/05/14 10:29:17.334,0.036,0.058,1.006
2026/05/14 10:29:17.353,0.034,0.057,1.001
2026/05/14 10:29:17.372,0.039,0.054,1.007
2026/05/14 10:29:17.391,0.033,0.053,1.003
2026/05/14 10:29:17.410,0.038,0.059,1.003
2026/05/14 10:29:17.429,0.032,0.052,1.001
2026/05/14 10:29:17.448,0.036,0.053,1.001
2026/05/14 10:29:17.467,0.037,0.055,1.003
2026/05/14 10:29:17.486,0.031,0.057,1.003
2026/05/14 10:29:17.505,0.035,0.057,1.006
2026/05/14 10:29:17.524,0.036,0.051,1.004
2026/05/14 10:29:17.542,0.037,0.054,1.003
2026/05/14 10:29:17.561,0.036,0.057,1.002
2026/05/14 10:29:17.580,0.036,0.058,1.007
2026/05/14 10:29:17.599,0.034,0.054,1.002
2026/05/14 10:29:17.618,0.035,0.056,1.003
2026/05/14 10:29:17.637,0.035,0.056,1.002
2026/05/14 10:29:17.656,0.041,0.058,1.003
2026/05/14 10:29:17.675,0.036,0.057,1.002
2026/05/14 10:29:17.694,0.038,0.055,1.004
2026/05/14 10:29:17.713,0.037,0.06,1.006
2026/05/14 10:29:17.732,0.035,0.052,1.002
2026/05/14 10:29:17.751,0.03,0.058,0.997
2026/05/14 10:29:17.769,0.034,0.056,1.002
2026/05/14 10:29:17.788,0.035,0.057,1.001
2026/05/14 10:29:17.807,0.036,0.055,0.999
2026/05/14 10:29:17.826,0.035,0.053,1.007
2026/05/14 10:29:17.845,0.036,0.057,1.004
2026/05/14 10:29:17.864,0.033,0.055,1.004
2026/05/14 10:29:17.883,0.037,0.058,1.004
2026/05/14 10:29:17.902,0.031,0.054,1.003
2026/05/14 10:29:17.921,0.036,0.057,1.002
2026/05/14 10:29:17.940,0.031,0.056,1.007
2026/05/14 10:29:17.959,0.034,0.056,1.003
2026/05/14 10:29:17.978,0.038,0.057,1.004
2026/05/14 10:29:17.996,0.037,0.055,1.005
2026/05/14 10:29:18.015,0.033,0.059,0.999
2026/05/14 10:29:18.034,0.035,0.057,1.003
2026/05/14 10:29:18.053,0.035,0.055,0.999
2026/05/14 10:29:18.072,0.035,0.062,1.004
2026/05/14 10:29:18.091,0.036,0.056,1.005
2026/05/14 10:29:18.110,0.035,0.055,1.002
2026/05/14 10:29:18.129,0.037,0.054,1.002
2026/05/14 10:29:18.148,0.035,0.059,1.001
2026/05/14 10:29:18.167,0.038,0.057,0.999
2026/05/14 10:29:18.186,0.034,0.056,1.008
2026/05/14 10:29:18.205,0.033,0.054,1.005
2026/05/14 10:29:18.224,0.037,0.051,1.007
2026/05/14 10:29:18.242,0.034,0.057,1.003
2026/05/14 10:29:18.261,0.032,0.059,1.002
2026/05/14 10:29:18.280,0.032,0.054,1.003
2026/05/14 10:29:18.299,0.031,0.054,1.0
2026/05/14 10:29:18.318,0.036,0.056,1.006
2026/05/14 10:29:18.337,0.033,0.054,1.004
2026/05/14 10:29:18.356,0.037,0.056,1.003
2026/05/14 10:29:18.375,0.036,0.055,1.002
2026/05/14 10:29:18.394,0.033,0.058,1.001
2026/05/14 10:29:18.413,0.031,0.054,1.0
2026/05/14 10:29:18.432,0.036,0.054,1.008
2026/05/14 10:29:18.451,0.034,0.054,1.002
2026/05/14 10:29:18.469,0.035,0.056,1.003
2026/05/14 10:29:18.488,0.035,0.055,0.999
2026/05/14 10:29:18.507,0.032,0.058,1.002
2026/05/14 10:29:18.526,0.035,0.051,1.002
2026/05/14 10:29:18.545,0.035,0.054,1.004
2026/05/14 10:29:18.564,0.033,0.056,1.008
2026/05/14 10:29:18.583,0.035,0.056,1.006
2026/05/14 10:29:18.602,0.034,0.06,1.005
2026/05/14 10:29:18.621,0.034,0.059,1.004
2026/05/14 10:29:18.640,0.034,0.057,1.0
2026/05/14 10:29:18.659,0.034,0.059,1.003
2026/05/14 10:29:18.678,0.032,0.055,1.007
2026/05/14 10:29:18.697,0.033,0.059,1.004
2026/05/14 10:29:18.715,0.038,0.053,1.002
2026/05/14 10:29:18.734,0.037,0.055,1.002
2026/05/14 10:29:18.753,0.034,0.058,1.004
2026/05/14 10:29:18.772,0.034,0.056,1.005
2026/05/14 10:29:18.791,0.035,0.054,1.004
2026/05/14 10:29:18.810,0.034,0.056,1.006
2026/05/14 10:29:18.829,0.034,0.057,1.004
2026/05/14 10:29:18.848,0.032,0.058,1.0
2026/05/14 10:29:18.867,0.038,0.054,1.0
2026/05/14 10:29:18.886,0.036,0.057,1.001
2026/05/14 10:29:18.905,0.036,0.057,1.003
2026/05/14 10:29:18.924,0.034,0.057,1.002
2026/05/14 10:29:18.942,0.036,0.053,1.003
2026/05/14 10:29:18.961,0.036,0.056,1.003
2026/05/14 10:29:18.980,0.038,0.058,1.0
2026/05/14 10:29:18.999,0.032,0.055,1.006
2026/05/14 10:29:19.018,0.034,0.058,1.002
2026/05/14 10:29:19.037,0.035,0.056,1.005
2026/05/14 10:29:19.056,0.033,0.06,1.004
2026/05/14 10:29:19.075,0.038,0.055,1.001
2026/05/14 10:29:19.094,0.035,0.054,1.001
2026/05/14 10:29:19.113,0.036,0.054,1.005
2026/05/14 10:29:19.132,0.033,0.056,1.003
2026/05/14 10:29:19.151,0.031,0.06,1.002
2026/05/14 10:29:19.169,0.033,0.055,1.006
2026/05/14 10:29:19.188,0.039,0.056,1.004
2026/05/14 10:29:19.207,0.035,0.057,1.003
2026/05/14 10:29:19.226,0.036,0.052,1.005
2026/05/14 10:29:19.245,0.037,0.056,1.004
2026/05/14 10:29:19.264,0.033,0.054,1.004
2026/05/14 10:29:19.283,0.035,0.054,1.005
2026/05/14 10:29:19.302,0.035,0.057,1.003
2026/05/14 10:29:19.321,0.036,0.06,1.003
2026/05/14 10:29:19.340,0.033,0.059,1.004
2026/05/14 10:29:19.359,0.035,0.058,1.002
2026/05/14 10:29:19.378,0.035,0.054,1.0
2026/05/14 10:29:19.397,0.038,0.053,1.001
2026/05/14 10:29:19.415,0.035,0.058,1.002
2026/05/14 10:29:19.434,0.033,0.058,1.008
2026/05/14 10:29:19.453,0.034,0.054,1.004
2026/05/14 10:29:19.472,0.035,0.059,1.004
2026/05/14 10:29:19.491,0.036,0.053,1.003
2026/05/14 10:29:19.510,0.032,0.054,1.003
2026/05/14 10:29:19.529,0.037,0.055,1.002
2026/05/14 10:29:19.548,0.035,0.058,1.006
2026/05/14 10:29:19.567,0.036,0.055,0.999
2026/05/14 10:29:19.586,0.035,0.055,1.0
2026/05/14 10:29:19.605,0.037,0.054,1.003
2026/05/14 10:29:19.624,0.037,0.055,1.003
2026/05/14 10:29:19.642,0.036,0.055,0.999
2026/05/14 10:29:19.661,0.033,0.057,1.003
2026/05/14 10:29:19.680,0.034,0.054,1.006
2026/05/14 10:29:19.699,0.033,0.058,1.002
2026/05/14 10:29:19.718,0.034,0.059,1.0
2026/05/14 10:29:19.737,0.032,0.059,1.002
2026/05/14 10:29:19.756,0.035,0.056,1.008
2026/05/14 10:29:19.775,0.034,0.056,1.008
2026/05/14 10:29:19.794,0.036,0.053,1.006
2026/05/14 10:29:19.813,0.032,0.055,1.007
2026/05/14 10:29:19.832,0.029,0.062,1.007
2026/05/14 10:29:19.851,0.036,0.056,1.002
2026/05/14 10:29:19.870,0.033,0.056,1.004
2026/05/14 10:29:19.888,0.035,0.057,1.003
2026/05/14 10:29:19.907,0.033,0.056,1.004
2026/05/14 10:29:19.926,0.032,0.054,1.002
2026/05/14 10:29:19.945,0.033,0.055,1.005
2026/05/14 10:29:19.964,0.034,0.053,1.004
2026/05/14 10:29:19.983,0.037,0.055,1.004
2026/05/14 10:29:20.002,0.033,0.055,1.003
2026/05/14 10:29:20.021,0.038,0.056,1.007
2026/05/14 10:29:20.040,0.033,0.054,1.01
2026/05/14 10:29:20.059,0.039,0.058,1.002
2026/05/14 10:29:20.078,0.036,0.055,1.001
2026/05/14 10:29:20.097,0.034,0.058,0.999
2026/05/14 10:29:20.115,0.033,0.051,1.006
2026/05/14 10:29:20.134,0.034,0.061,1.006
2026/05/14 10:29:20.153,0.035,0.055,1.007
2026/05/14 10:29:20.172,0.037,0.055,1.004
2026/05/14 10:29:20.191,0.034,0.056,1.004
2026/05/14 10:29:20.210,0.035,0.057,1.002
2026/05/14 10:29:20.229,0.034,0.06,1.004
2026/05/14 10:29:20.248,0.04,0.058,1.001
2026/05/14 10:29:20.267,0.032,0.057,1.001
2026/05/14 10:29:20.286,0.033,0.056,1.005
2026/05/14 10:29:20.305,0.036,0.056,1.008
2026/05/14 10:29:20.324,0.035,0.054,1.004
2026/05/14 10:29:20.343,0.032,0.056,1.002
2026/05/14 10:29:20.361,0.034,0.058,1.007
2026/05/14 10:29:20.380,0.034,0.056,1.005
2026/05/14 10:29:20.399,0.035,0.055,1.002
2026/05/14 10:29:20.418,0.033,0.056,1.004
2026/05/14 10:29:20.437,0.032,0.058,1.004
2026/05/14 10:29:20.456,0.035,0.061,1.002
2026/05/14 10:29:20.475,0.035,0.058,1.001
2026/05/14 10:29:20.494,0.034,0.054,1.004
2026/05/14 10:29:20.513,0.033,0.05,1.002
2026/05/14 10:29:20.532,0.036,0.055,1.004
2026/05/14 10:29:20.551,0.041,0.057,1.001
2026/05/14 10:29:20.570,0.035,0.055,1.001
2026/05/14 10:29:20.589,0.037,0.057,1.003
2026/05/14 10:29:20.607,0.034,0.055,0.999
2026/05/14 10:29:20.626,0.031,0.057,1.002
2026/05/14 10:29:20.645,0.033,0.057,1.006
2026/05/14 10:29:20.664,0.032,0.055,1.004
2026/05/14 10:29:20.683,0.033,0.053,1.003
2026/05/14 10:29:20.702,0.036,0.054,1.005
2026/05/14 10:29:20.721,0.038,0.057,1.002
2026/05/14 10:29:20.740,0.034,0.056,1.003
2026/05/14 10:29:20.759,0.032,0.055,1.006
2026/05/14 10:29:20.778,0.034,0.059,1.001
2026/05/14 10:29:20.797,0.035,0.057,1.0
2026/05/14 10:29:20.816,0.034,0.057,1.002
2026/05/14 10:29:20.834,0.036,0.061,1.003
2026/05/14 10:29:20.853,0.033,0.055,1.0
2026/05/14 10:29:20.872,0.034,0.055,1.004
2026/05/14 10:29:20.891,0.032,0.055,1.003
2026/05/14 10:29:20.910,0.035,0.057,1.004
2026/05/14 10:29:20.929,0.039,0.054,1.006
2026/05/14 10:29:20.948,0.034,0.057,1.001
2026/05/14 10:29:20.967,0.033,0.056,1.003
2026/05/14 10:29:20.986,0.033,0.053,1.003
2026/05/14 10:29:21.005,0.034,0.053,1.006
2026/05/14 10:29:21.024,0.038,0.056,1.006
2026/05/14 10:29:21.043,0.034,0.057,1.002
2026/05/14 10:29:21.062,0.036,0.058,1.001
2026/05/14 10:29:21.080,0.033,0.054,1.0
2026/05/14 10:29:21.099,0.034,0.057,1.003
2026/05/14 10:29:21.118,0.03,0.053,1.002
2026/05/14 10:29:21.137,0.032,0.053,1.0
2026/05/14 10:29:21.156,0.033,0.06,1.003
2026/05/14 10:29:21.175,0.034,0.056,0.999
2026/05/14 10:29:21.194,0.038,0.059,1.006
2026/05/14 10:29:21.213,0.032,0.053,1.004
2026/05/14 10:29:21.232,0.034,0.053,1.004
2026/05/14 10:29:21.251,0.034,0.053,1.001
2026/05/14 10:29:21.270,0.031,0.057,1.003
2026/05/14 10:29:21.289,0.039,0.056,1.003
2026/05/14 10:29:21.307,0.037,0.056,1.001
2026/05/14 10:29:21.326,0.036,0.054,0.997
2026/05/14 10:29:21.345,0.035,0.06,1.003
2026/05/14 10:29:21.364,0.033,0.057,1.003
2026/05/14 10:29:21.383,0.034,0.058,1.003
2026/05/14 10:29:21.402,0.036,0.057,1.001
2026/05/14 10:29:21.421,0.035,0.055,1.007
2026/05/14 10:29:21.440,0.036,0.055,1.001
2026/05/14 10:29:21.459,0.036,0.061,1.001
2026/05/14 10:29:21.478,0.032,0.058,1.008
2026/05/14 10:29:21.497,0.034,0.053,1.002
2026/05/14 10:29:21.516,0.031,0.058,0.999
2026/05/14 10:29:21.535,0.038,0.054,1.0
2026/05/14 10:29:21.553,0.035,0.057,1.004
2026/05/14 10:29:21.572,0.036,0.058,1.002
2026/05/14 10:29:21.591,0.033,0.055,1.001
2026/05/14 10:29:21.610,0.035,0.056,1.004
2026/05/14 10:29:21.629,0.036,0.055,1.002
2026/05/14 10:29:21.648,0.038,0.053,1.004
2026/05/14 10:29:21.667,0.033,0.055,1.004
2026/05/14 10:29:21.686,0.034,0.056,1.002
2026/05/14 10:29:21.705,0.033,0.053,1.004
2026/05/14 10:29:21.724,0.034,0.056,1.003
2026/05/14 10:29:21.743,0.035,0.056,1.002
2026/05/14 10:29:21.762,0.035,0.054,1.006
2026/05/14 10:29:21.780,0.031,0.054,1.0
2026/05/14 10:29:21.799,0.034,0.058,1.005
2026/05/14 10:29:21.818,0.036,0.058,0.998
2026/05/14 10:29:21.837,0.035,0.055,1.006
2026/05/14 10:29:21.856,0.037,0.056,1.005
2026/05/14 10:29:21.875,0.035,0.055,1.003
2026/05/14 10:29:21.894,0.034,0.056,1.004
2026/05/14 10:29:21.913,0.038,0.057,1.008
2026/05/14 10:29:21.932,0.038,0.057,1.0
2026/05/14 10:29:21.951,0.036,0.054,1.002
2026/05/14 10:29:21.970,0.036,0.056,1.008
2026/05/14 10:29:21.989,0.034,0.054,1.005
2026/05/14 10:29:22.007,0.036,0.056,1.001
2026/05/14 10:29:22.026,0.035,0.054,1.004
2026/05/14 10:29:22.045,0.037,0.06,1.002
2026/05/14 10:29:22.064,0.034,0.053,1.002
2026/05/14 10:29:22.083,0.037,0.057,1.003
2026/05/14 10:29:22.102,0.035,0.055,1.007
2026/05/14 10:29:22.121,0.033,0.057,1.0
2026/05/14 10:29:22.140,0.031,0.054,1.001
2026/05/14 10:29:22.159,0.037,0.056,1.005
2026/05/14 10:29:22.178,0.034,0.056,1.002
2026/05/14 10:29:22.197,0.034,0.057,1.001
2026/05/14 10:29:22.216,0.036,0.054,1.003
2026/05/14 10:29:22.235,0.033,0.056,1.005
2026/05/14 10:29:22.253,0.037,0.053,1.004
2026/05/14 10:29:22.272,0.034,0.055,1.004
2026/05/14 10:29:22.291,0.032,0.057,1.006
2026/05/14 10:29:22.310,0.032,0.059,1.003
2026/05/14 10:29:22.329,0.037,0.057,1.004
2026/05/14 10:29:22.348,0.031,0.054,1.004
2026/05/14 10:29:22.367,0.038,0.059,1.004
2026/05/14 10:29:22.386,0.036,0.052,1.006
2026/05/14 10:29:22.405,0.038,0.059,1.0
2026/05/14 10:29:22.424,0.036,0.058,1.003
2026/05/14 10:29:22.443,0.032,0.059,1.003
2026/05/14 10:29:22.462,0.033,0.052,0.999
2026/05/14 10:29:22.480,0.035,0.056,1.002
2026/05/14 10:29:22.499,0.038,0.054,1.005
2026/05/14 10:29:22.518,0.035,0.055,1.005
2026/05/14 10:29:22.537,0.033,0.056,1.003
2026/05/14 10:29:22.556,0.035,0.058,1.005
2026/05/14 10:29:22.575,0.034,0.057,1.004
2026/05/14 10:29:22.594,0.032,0.051,1.003
2026/05/14 10:29:22.613,0.034,0.055,1.003
2026/05/14 10:29:22.632,0.036,0.06,0.993
2026/05/14 10:29:22.651,0.05,0.078,1.007
2026/05/14 10:29:22.670,0.022,0.065,0.944
2026/05/14 10:29:22.689,0.065,0.09,1.039
2026/05/14 10:29:22.707,0.015,0.041,1.01
2026/05/14 10:29:22.726,0.03,0.069,1.056
2026/05/14 10:29:22.745,0.02,0.048,1.019
2026/05/14 10:29:22.764,0.022,0.034,0.97
2026/05/14 10:29:22.783,0.028,0.027,0.976
2026/05/14 10:29:22.802,0.04,0.023,1.009
2026/05/14 10:29:22.821,0.011,0.023,1.174
2026/05/14 10:29:22.840,0.015,0.036,0.849
2026/05/14 10:29:22.859,0.026,0.04,1.03
2026/05/14 10:29:22.878,0.039,0.069,1.046
2026/05/14 10:29:22.897,-0.003,0.074,0.923
2026/05/14 10:29:22.916,0.022,0.074,1.031
2026/05/14 10:29:22.934,0.031,0.034,1.088
2026/05/14 10:29:22.953,0.054,0.053,0.964
2026/05/14 10:29:22.972,0.059,0.08,1.003
2026/05/14 10:29:22.991,0.06,0.079,0.952
2026/05/14 10:29:23.010,0.075,0.102,0.994
2026/05/14 10:29:23.029,0.023,0.061,0.978
2026/05/14 10:29:23.048,0.04,0.059,1.013
2026/05/14 10:29:23.067,0.029,0.049,0.978
2026/05/14 10:29:23.086,0.02,0.055,1.023
2026/05/14 10:29:23.105,0.025,0.051,0.992
2026/05/14 10:29:23.124,0.026,0.049,0.999
2026/05/14 10:29:23.143,0.032,0.047,0.997
2026/05/14 10:29:23.162,0.037,0.047,0.997
2026/05/14 10:29:23.180,0.04,0.045,1.013
2026/05/14 10:29:23.199,0.038,0.041,0.992
2026/05/14 10:29:23.218,0.041,0.052,1.02
2026/05/14 10:29:23.237,0.03,0.064,1.021
2026/05/14 10:29:23.256,0.031,0.073,0.988
2026/05/14 10:29:23.275,0.031,0.078,1.015
2026/05/14 10:29:23.294,0.021,0.057,1.035
2026/05/14 10:29:23.313,0.028,0.055,1.009
2026/05/14 10:29:23.332,0.059,0.05,0.989
2026/05/14 10:29:23.351,0.05,0.047,0.995
2026/05/14 10:29:23.370,0.039,0.043,0.998
2026/05/14 10:29:23.389,0.039,0.047,1.018
2026/05/14 10:29:23.407,0.033,0.069,1.036
2026/05/14 10:29:23.426,0.008,0.074,1.009
2026/05/14 10:29:23.445,0.014,0.064,0.999
2026/05/14 10:29:23.464,0.017,0.02,0.984
2026/05/14 10:29:23.483,0.007,0.047,1.046
2026/05/14 10:29:23.502,0.044,0.067,0.941
2026/05/14 10:29:23.521,0.066,0.075,0.995
2026/05/14 10:29:23.540,0.052,0.072,1.008
2026/05/14 10:29:23.559,0.052,0.052,1.019
2026/05/14 10:29:23.578,0.022,0.038,0.974
2026/05/14 10:29:23.597,0.032,0.064,0.901
2026/05/14 10:29:23.616,0.01,0.065,1.021
2026/05/14 10:29:23.634,0.017,0.069,0.994
2026/05/14 10:29:23.653,0.03,0.061,0.974
2026/05/14 10:29:23.672,0.04,0.048,1.022
2026/05/14 10:29:23.691,0.041,0.068,0.968
2026/05/14 10:29:23.710,0.015,0.025,1.229
2026/05/14 10:29:23.729,0.024,0.038,1.077
2026/05/14 10:29:23.748,0.009,0.084,1.038
2026/05/14 10:29:23.767,0.039,0.058,1.121
2026/05/14 10:29:23.786,0.05,0.033,0.989
2026/05/14 10:29:23.805,0.032,0.057,0.95
2026/05/14 10:29:23.824,0.014,0.064,0.968
2026/05/14 10:29:23.843,0.031,0.048,0.924
2026/05/14 10:29:23.862,0.038,0.053,0.985
2026/05/14 10:29:23.880,0.05,0.056,0.996
2026/05/14 10:29:23.899,0.04,0.048,0.988
2026/05/14 10:29:23.918,0.03,0.055,0.997
2026/05/14 10:29:23.937,0.033,0.057,1.011
2026/05/14 10:29:23.956,0.032,0.055,1.023
2026/05/14 10:29:23.975,0.037,0.054,1.039
2026/05/14 10:29:23.994,0.032,0.066,1.032
2026/05/14 10:29:24.013,0.037,0.068,1.017
2026/05/14 10:29:24.032,0.034,0.058,1.011
2026/05/14 10:29:24.051,0.04,0.058,1.002
2026/05/14 10:29:24.070,0.04,0.056,1.004
2026/05/14 10:29:24.089,0.038,0.057,0.999
2026/05/14 10:29:24.107,0.033,0.062,0.983
2026/05/14 10:29:24.126,0.032,0.058,0.989
2026/05/14 10:29:24.145,0.027,0.054,1.006
2026/05/14 10:29:24.164,0.032,0.051,1.001
2026/05/14 10:29:24.183,0.032,0.052,0.996
2026/05/14 10:29:24.202,0.034,0.054,0.999
2026/05/14 10:29:24.221,0.033,0.056,1.001
2026/05/14 10:29:24.240,0.036,0.054,1.01
2026/05/14 10:29:24.259,0.039,0.052,1.009
2026/05/14 10:29:24.278,0.036,0.057,1.009
2026/05/14 10:29:24.297,0.036,0.057,1.007
2026/05/14 10:29:24.316,0.033,0.06,1.004
2026/05/14 10:29:24.334,0.031,0.06,1.005
2026/05/14 10:29:24.353,0.032,0.059,1.007
2026/05/14 10:29:24.372,0.031,0.06,1.0
2026/05/14 10:29:24.391,0.035,0.052,0.996
2026/05/14 10:29:24.410,0.035,0.057,0.997
2026/05/14 10:29:24.429,0.036,0.055,1.004
2026/05/14 10:29:24.448,0.032,0.056,1.0
2026/05/14 10:29:24.467,0.032,0.055,1.005
2026/05/14 10:29:24.486,0.03,0.054,0.999
2026/05/14 10:29:24.505,0.036,0.057,1.004
2026/05/14 10:29:24.524,0.032,0.054,1.0
2026/05/14 10:29:24.543,0.034,0.056,1.004
2026/05/14 10:29:24.562,0.039,0.053,1.009
2026/05/14 10:29:24.580,0.035,0.058,1.002
2026/05/14 10:29:24.599,0.035,0.06,1.005
2026/05/14 10:29:24.618,0.037,0.061,1.008
2026/05/14 10:29:24.637,0.036,0.059,1.007
2026/05/14 10:29:24.656,0.04,0.06,1.002
2026/05/14 10:29:24.675,0.033,0.056,1.002
2026/05/14 10:29:24.694,0.034,0.063,1.007
2026/05/14 10:29:24.713,0.034,0.053,1.006
2026/05/14 10:29:24.732,0.033,0.057,1.001
2026/05/14 10:29:24.751,0.036,0.057,1.005
2026/05/14 10:29:24.770,0.036,0.054,1.004
2026/05/14 10:29:24.789,0.037,0.054,1.004
2026/05/14 10:29:24.807,0.035,0.054,1.005
2026/05/14 10:29:24.826,0.039,0.053,1.003
2026/05/14 10:29:24.845,0.033,0.056,1.007
2026/05/14 10:29:24.864,0.034,0.059,1.001
2026/05/14 10:29:24.883,0.032,0.061,1.003
2026/05/14 10:29:24.902,0.036,0.052,1.008
2026/05/14 10:29:24.921,0.033,0.058,1.004
2026/05/14 10:29:24.940,0.034,0.058,1.003
2026/05/14 10:29:24.959,0.04,0.06,1.001
2026/05/14 10:29:24.978,0.035,0.06,1.003
2026/05/14 10:29:24.997,0.035,0.058,1.001
2026/05/14 10:29:25.016,0.035,0.057,1.005
2026/05/14 10:29:25.034,0.038,0.056,1.002
2026/05/14 10:29:25.053,0.031,0.059,1.001
2026/05/14 10:29:25.072,0.036,0.054,1.004
2026/05/14 10:29:25.091,0.035,0.053,1.006
2026/05/14 10:29:25.110,0.034,0.055,1.002
2026/05/14 10:29:25.129,0.036,0.054,0.998
2026/05/14 10:29:25.148,0.033,0.057,1.002
2026/05/14 10:29:25.167,0.036,0.057,1.001
2026/05/14 10:29:25.186,0.035,0.057,1.006
2026/05/14 10:29:25.205,0.035,0.058,1.0
2026/05/14 10:29:25.224,0.033,0.057,1.006
2026/05/14 10:29:25.243,0.034,0.054,1.002
2026/05/14 10:29:25.262,0.036,0.059,1.0
2026/05/14 10:29:25.280,0.038,0.058,1.002
2026/05/14 10:29:25.299,0.034,0.054,1.002
2026/05/14 10:29:25.318,0.036,0.058,1.002
2026/05/14 10:29:25.337,0.033,0.056,1.004
2026/05/14 10:29:25.356,0.035,0.059,1.004
2026/05/14 10:29:25.375,0.037,0.055,1.004
2026/05/14 10:29:25.394,0.035,0.053,1.01
2026/05/14 10:29:25.413,0.036,0.054,1.003
2026/05/14 10:29:25.432,0.035,0.06,1.005
2026/05/14 10:29:25.451,0.034,0.053,1.003
2026/05/14 10:29:25.470,0.036,0.054,1.006
2026/05/14 10:29:25.489,0.036,0.058,1.003
2026/05/14 10:29:25.507,0.034,0.057,1.002
2026/05/14 10:29:25.526,0.034,0.055,1.002
2026/05/14 10:29:25.545,0.039,0.057,1.005
2026/05/14 10:29:25.564,0.039,0.06,1.004
2026/05/14 10:29:25.583,0.037,0.058,1.002
2026/05/14 10:29:25.602,0.035,0.06,1.005
2026/05/14 10:29:25.621,0.032,0.056,1.002
2026/05/14 10:29:25.640,0.036,0.057,1.003
2026/05/14 10:29:25.659,0.033,0.059,1.006
2026/05/14 10:29:25.678,0.03,0.058,1.005
2026/05/14 10:29:25.697,0.033,0.056,1.007
2026/05/14 10:29:25.716,0.036,0.054,1.006
2026/05/14 10:29:25.734,0.032,0.055,1.005
2026/05/14 10:29:25.753,0.036,0.058,0.999
2026/05/14 10:29:25.772,0.035,0.058,1.005
2026/05/14 10:29:25.791,0.033,0.059,1.005
2026/05/14 10:29:25.810,0.034,0.059,1.004
2026/05/14 10:29:25.829,0.036,0.059,1.002
2026/05/14 10:29:25.848,0.039,0.057,1.001
2026/05/14 10:29:25.867,0.034,0.056,1.003
2026/05/14 10:29:25.886,0.036,0.055,1.006
2026/05/14 10:29:25.905,0.035,0.058,0.998
2026/05/14 10:29:25.924,0.037,0.053,1.003
2026/05/14 10:29:25.943,0.034,0.058,1.005
2026/05/14 10:29:25.962,0.034,0.054,1.003
2026/05/14 10:29:25.980,0.032,0.058,1.001
2026/05/14 10:29:25.999,0.032,0.053,1.008
2026/05/14 10:29:26.018,0.033,0.054,1.005
2026/05/14 10:29:26.037,0.035,0.058,1.001
2026/05/14 10:29:26.056,0.033,0.055,1.007
2026/05/14 10:29:26.075,0.033,0.054,1.003
2026/05/14 10:29:26.094,0.036,0.052,0.99
2026/05/14 10:29:26.113,0.034,0.056,1.002
2026/05/14 10:29:26.132,0.036,0.057,1.008
2026/05/14 10:29:26.151,0.032,0.058,1.005
2026/05/14 10:29:26.170,0.034,0.055,1.003
2026/05/14 10:29:26.189,0.033,0.054,1.005
2026/05/14 10:29:26.207,0.032,0.059,1.006
2026/05/14 10:29:26.226,0.034,0.06,1.003
2026/05/14 10:29:26.245,0.038,0.056,1.001
2026/05/14 10:29:26.264,0.034,0.061,1.009
2026/05/14 10:29:26.283,0.033,0.056,1.004
2026/05/14 10:29:26.302,0.035,0.054,1.005
2026/05/14 10:29:26.321,0.035,0.059,1.005
2026/05/14 10:29:26.340,0.032,0.054,1.002
2026/05/14 10:29:26.359,0.038,0.058,1.005
2026/05/14 10:29:26.378,0.037,0.055,0.997
2026/05/14 10:29:26.397,0.04,0.054,1.005
2026/05/14 10:29:26.416,0.039,0.059,1.007
2026/05/14 10:29:26.434,0.035,0.053,1.002
2026/05/14 10:29:26.453,0.032,0.055,1.005
2026/05/14 10:29:26.472,0.033,0.057,1.007
2026/05/14 10:29:26.491,0.032,0.054,1.001
2026/05/14 10:29:26.510,0.034,0.055,0.998
2026/05/14 10:29:26.529,0.036,0.058,1.0
2026/05/14 10:29:26.548,0.039,0.059,1.003
2026/05/14 10:29:26.567,0.036,0.054,1.0
2026/05/14 10:29:26.586,0.035,0.056,0.998
2026/05/14 10:29:26.605,0.035,0.056,1.0
2026/05/14 10:29:26.624,0.04,0.055,1.009
2026/05/14 10:29:26.643,0.032,0.054,1.004
2026/05/14 10:29:26.661,0.033,0.054,1.004
2026/05/14 10:29:26.680,0.035,0.059,1.004
2026/05/14 10:29:26.699,0.035,0.058,1.004
2026/05/14 10:29:26.718,0.036,0.059,1.007
2026/05/14 10:29:26.737,0.032,0.056,1.003
2026/05/14 10:29:26.756,0.037,0.059,1.003
2026/05/14 10:29:26.775,0.037,0.057,1.007
2026/05/14 10:29:26.794,0.031,0.056,1.002
2026/05/14 10:29:26.813,0.035,0.06,1.006
2026/05/14 10:29:26.832,0.035,0.054,1.005
2026/05/14 10:29:26.851,0.037,0.057,1.004
2026/05/14 10:29:26.870,0.032,0.059,1.002
2026/05/14 10:29:26.888,0.034,0.054,1.003
2026/05/14 10:29:26.907,0.034,0.058,1.006
2026/05/14 10:29:26.926,0.034,0.054,0.999
2026/05/14 10:29:26.945,0.041,0.055,0.994
2026/05/14 10:29:26.964,0.034,0.056,1.004
2026/05/14 10:29:26.983,0.03,0.058,1.01
2026/05/14 10:29:27.002,0.031,0.059,1.004
2026/05/14 10:29:27.021,0.031,0.052,1.003
2026/05/14 10:29:27.040,0.033,0.06,1.011
2026/05/14 10:29:27.059,0.036,0.056,1.004
2026/05/14 10:29:27.078,0.034,0.054,1.007
2026/05/14 10:29:27.097,0.036,0.057,0.992
2026/05/14 10:29:27.116,0.036,0.056,0.996
2026/05/14 10:29:27.134,0.036,0.057,1.001
2026/05/14 10:29:27.153,0.031,0.058,1.004
2026/05/14 10:29:27.172,0.034,0.059,1.007
2026/05/14 10:29:27.191,0.037,0.06,1.015
2026/05/14 10:29:27.210,0.033,0.055,1.003
2026/05/14 10:29:27.229,0.036,0.057,1.0
2026/05/14 10:29:27.248,0.036,0.056,1.006
2026/05/14 10:29:27.267,0.03,0.058,1.005
2026/05/14 10:29:27.286,0.038,0.054,0.995
2026/05/14 10:29:27.305,0.035,0.055,1.001
2026/05/14 10:29:27.324,0.034,0.054,1.004
2026/05/14 10:29:27.343,0.036,0.053,1.002
2026/05/14 10:29:27.361,0.038,0.057,0.991
2026/05/14 10:29:27.380,0.037,0.057,1.008
2026/05/14 10:29:27.399,0.032,0.057,0.996
2026/05/14 10:29:27.418,0.035,0.055,1.005
2026/05/14 10:29:27.437,0.037,0.054,0.997
2026/05/14 10:29:27.456,0.034,0.053,1.004
2026/05/14 10:29:27.475,0.037,0.057,1.012
2026/05/14 10:29:27.494,0.034,0.058,1.006
2026/05/14 10:29:27.513,0.032,0.057,1.004
2026/05/14 10:29:27.532,0.035,0.053,0.996
2026/05/14 10:29:27.551,0.032,0.056,0.995
2026/05/14 10:29:27.570,0.034,0.053,1.0
2026/05/14 10:29:27.588,0.035,0.06,1.004
2026/05/14 10:29:27.607,0.033,0.055,1.007
2026/05/14 10:29:27.626,0.036,0.05,1.006
2026/05/14 10:29:27.645,0.034,0.056,1.001
2026/05/14 10:29:27.664,0.036,0.056,1.003
2026/05/14 10:29:27.683,0.035,0.055,0.999
2026/05/14 10:29:27.702,0.034,0.056,1.004
2026/05/14 10:29:27.721,0.035,0.058,1.005
2026/05/14 10:29:27.740,0.034,0.059,0.999
2026/05/14 10:29:27.759,0.035,0.06,1.003
2026/05/14 10:29:27.778,0.034,0.053,0.993
2026/05/14 10:29:27.797,0.032,0.057,0.996
2026/05/14 10:29:27.815,0.033,0.057,1.006
2026/05/14 10:29:27.834,0.033,0.054,0.997
2026/05/14 10:29:27.853,0.035,0.054,0.991
2026/05/14 10:29:27.872,0.036,0.061,1.009
2026/05/14 10:29:27.891,0.036,0.055,1.002
2026/05/14 10:29:27.910,0.031,0.059,0.998
2026/05/14 10:29:27.929,0.034,0.059,0.999
2026/05/14 10:29:27.948,0.034,0.055,1.007
2026/05/14 10:29:27.967,0.036,0.055,1.001
2026/05/14 10:29:27.986,0.034,0.061,1.001
2026/05/14 10:29:28.005,0.036,0.057,1.001
2026/05/14 10:29:28.024,0.033,0.053,1.0
2026/05/14 10:29:28.042,0.038,0.056,1.002
2026/05/14 10:29:28.061,0.034,0.055,0.985
2026/05/14 10:29:28.080,0.035,0.058,1.013
2026/05/14 10:29:28.099,0.036,0.055,0.997
2026/05/14 10:29:28.118,0.033,0.058,1.001
2026/05/14 10:29:28.137,0.034,0.058,1.031
2026/05/14 10:29:28.156,0.031,0.054,0.988
2026/05/14 10:29:28.175,0.032,0.059,1.009
2026/05/14 10:29:28.194,0.032,0.056,1.005
2026/05/14 10:29:28.213,0.035,0.054,1.0
2026/05/14 10:29:28.232,0.037,0.054,1.004
2026/05/14 10:29:28.251,0.033,0.054,1.005
2026/05/14 10:29:28.270,0.032,0.054,1.01
2026/05/14 10:29:28.288,0.034,0.057,1.019
2026/05/14 10:29:28.307,0.034,0.053,0.997
2026/05/14 10:29:28.326,0.036,0.06,1.005
2026/05/14 10:29:28.345,0.039,0.056,0.993
2026/05/14 10:29:28.364,0.033,0.056,0.999
2026/05/14 10:29:28.383,0.037,0.057,0.999
2026/05/14 10:29:28.402,0.035,0.058,1.0
2026/05/14 10:29:28.421,0.032,0.055,1.005
2026/05/14 10:29:28.440,0.035,0.056,0.998
2026/05/14 10:29:28.459,0.035,0.058,0.998
2026/05/14 10:29:28.478,0.037,0.056,1.004
2026/05/14 10:29:28.497,0.035,0.057,1.001
2026/05/14 10:29:28.515,0.037,0.059,0.998
2026/05/14 10:29:28.534,0.031,0.055,0.997
2026/05/14 10:29:28.553,0.033,0.057,1.005
2026/05/14 10:29:28.572,0.035,0.057,0.999
2026/05/14 10:29:28.591,0.036,0.055,1.007
2026/05/14 10:29:28.610,0.034,0.052,1.001
2026/05/14 10:29:28.629,0.034,0.058,1.027
2026/05/14 10:29:28.648,0.034,0.056,0.998
2026/05/14 10:29:28.667,0.035,0.06,1.006
2026/05/14 10:29:28.686,0.038,0.054,1.004
2026/05/14 10:29:28.705,0.039,0.059,1.026
2026/05/14 10:29:28.724,0.033,0.057,1.001
2026/05/14 10:29:28.742,0.035,0.054,1.0
2026/05/14 10:29:28.761,0.035,0.055,1.007
2026/05/14 10:29:28.780,0.034,0.058,1.002
2026/05/14 10:29:28.799,0.036,0.054,1.009
2026/05/14 10:29:28.818,0.032,0.058,0.999
2026/05/14 10:29:28.837,0.042,0.055,1.005
2026/05/14 10:29:28.856,0.037,0.056,1.0
2026/05/14 10:29:28.875,0.033,0.057,1.006
2026/05/14 10:29:28.894,0.037,0.054,1.003
2026/05/14 10:29:28.913,0.035,0.058,1.001
2026/05/14 10:29:28.932,0.037,0.052,1.003
2026/05/14 10:29:28.951,0.032,0.057,1.005
2026/05/14 10:29:28.970,0.034,0.055,1.002
2026/05/14 10:29:28.988,0.035,0.06,1.001
2026/05/14 10:29:29.007,0.037,0.057,1.003
2026/05/14 10:29:29.026,0.036,0.057,1.007
2026/05/14 10:29:29.045,0.035,0.058,1.004
2026/05/14 10:29:29.064,0.033,0.058,1.002
2026/05/14 10:29:29.083,0.035,0.057,1.004
2026/05/14 10:29:29.102,0.033,0.055,1.004
2026/05/14 10:29:29.121,0.035,0.055,1.003
2026/05/14 10:29:29.140,0.033,0.058,1.002
2026/05/14 10:29:29.159,0.035,0.056,1.007
2026/05/14 10:29:29.178,0.033,0.059,1.002
2026/05/14 10:29:29.197,0.034,0.06,1.006
2026/05/14 10:29:29.215,0.033,0.06,1.005
2026/05/14 10:29:29.234,0.038,0.053,0.997
2026/05/14 10:29:29.253,0.034,0.058,1.001
2026/05/14 10:29:29.272,0.037,0.058,0.994
2026/05/14 10:29:29.291,0.031,0.057,1.0
2026/05/14 10:29:29.310,0.041,0.051,0.996
2026/05/14 10:29:29.329,0.033,0.057,1.016
2026/05/14 10:29:29.348,0.033,0.058,1.006
2026/05/14 10:29:29.367,0.035,0.054,1.006
2026/05/14 10:29:29.386,0.038,0.062,1.01
2026/05/14 10:29:29.405,0.032,0.056,1.003
2026/05/14 10:29:29.424,0.034,0.059,1.005
2026/05/14 10:29:29.442,0.034,0.055,0.999
2026/05/14 10:29:29.461,0.036,0.056,1.001
2026/05/14 10:29:29.480,0.034,0.059,1.006
2026/05/14 10:29:29.499,0.031,0.056,1.001
2026/05/14 10:29:29.518,0.039,0.054,1.004
2026/05/14 10:29:29.537,0.035,0.057,1.007
2026/05/14 10:29:29.556,0.035,0.055,1.004
2026/05/14 10:29:29.575,0.033,0.056,1.003
2026/05/14 10:29:29.594,0.035,0.058,1.004
2026/05/14 10:29:29.613,0.034,0.057,1.008
2026/05/14 10:29:29.632,0.037,0.061,0.999
2026/05/14 10:29:29.651,0.036,0.06,1.004
2026/05/14 10:29:29.669,0.035,0.055,1.002
2026/05/14 10:29:29.688,0.035,0.059,1.007
2026/05/14 10:29:29.707,0.033,0.057,1.005
2026/05/14 10:29:29.726,0.037,0.063,1.005
2026/05/14 10:29:29.745,0.037,0.06,1.002
2026/05/14 10:29:29.764,0.035,0.062,1.005
2026/05/14 10:29:29.783,0.037,0.054,1.007
2026/05/14 10:29:29.802,0.036,0.054,1.005
2026/05/14 10:29:29.821,0.033,0.059,0.996
2026/05/14 10:29:29.840,0.034,0.057,1.002
2026/05/14 10:29:29.859,0.036,0.058,1.001
2026/05/14 10:29:29.878,0.033,0.058,1.006
2026/05/14 10:29:29.897,0.032,0.056,1.001
2026/05/14 10:29:29.915,0.032,0.056,1.005
2026/05/14 10:29:29.934,0.037,0.057,1.002
2026/05/14 10:29:29.953,0.038,0.055,1.004
2026/05/14 10:29:29.972,0.031,0.059,1.002
2026/05/14 10:29:29.991,0.033,0.053,1.004
2026/05/14 10:29:30.010,0.035,0.055,1.002
2026/05/14 10:29:30.029,0.034,0.055,1.006
2026/05/14 10:29:30.048,0.034,0.06,1.002
2026/05/14 10:29:30.067,0.038,0.056,1.003
2026/05/14 10:29:30.086,0.034,0.054,1.004
2026/05/14 10:29:30.105,0.035,0.06,1.003
2026/05/14 10:29:30.124,0.036,0.053,1.006
2026/05/14 10:29:30.142,0.036,0.057,1.004
2026/05/14 10:29:30.161,0.032,0.054,1.003
2026/05/14 10:29:30.180,0.034,0.057,1.004
2026/05/14 10:29:30.199,0.036,0.053,1.003
2026/05/14 10:29:30.218,0.032,0.058,1.0
2026/05/14 10:29:30.237,0.036,0.055,1.003
2026/05/14 10:29:30.256,0.033,0.051,1.009
2026/05/14 10:29:30.275,0.038,0.052,0.999
2026/05/14 10:29:30.294,0.036,0.054,1.004
2026/05/14 10:29:30.313,0.035,0.059,1.006
2026/05/14 10:29:30.332,0.038,0.059,1.003
2026/05/14 10:29:30.351,0.038,0.058,1.001
2026/05/14 10:29:30.369,0.037,0.058,1.0
2026/05/14 10:29:30.388,0.038,0.056,1.003
2026/05/14 10:29:30.407,0.037,0.058,1.001
2026/05/14 10:29:30.426,0.033,0.054,0.999
2026/05/14 10:29:30.445,0.034,0.051,1.002
2026/05/14 10:29:30.464,0.034,0.059,1.009
2026/05/14 10:29:30.483,0.039,0.055,1.001
2026/05/14 10:29:30.502,0.033,0.059,1.001
2026/05/14 10:29:30.521,0.035,0.057,1.001
2026/05/14 10:29:30.540,0.035,0.058,1.006
2026/05/14 10:29:30.559,0.033,0.055,1.002
2026/05/14 10:29:30.578,0.035,0.054,1.003
2026/05/14 10:29:30.596,0.038,0.056,1.003
2026/05/14 10:29:30.615,0.035,0.054,1.007
2026/05/14 10:29:30.634,0.035,0.057,1.002
2026/05/14 10:29:30.653,0.036,0.057,1.002
2026/05/14 10:29:30.672,0.037,0.052,0.999
2026/05/14 10:29:30.691,0.035,0.057,1.002
2026/05/14 10:29:30.710,0.037,0.054,1.006
2026/05/14 10:29:30.729,0.037,0.056,1.004
2026/05/14 10:29:30.748,0.03,0.059,1.0
2026/05/14 10:29:30.767,0.037,0.057,1.005
2026/05/14 10:29:30.786,0.034,0.058,1.007
2026/05/14 10:29:30.805,0.033,0.056,1.003
2026/05/14 10:29:30.823,0.036,0.062,1.002
2026/05/14 10:29:30.842,0.037,0.057,0.999
2026/05/14 10:29:30.861,0.032,0.056,1.003
2026/05/14 10:29:30.880,0.037,0.056,1.002
2026/05/14 10:29:30.899,0.037,0.053,1.006
2026/05/14 10:29:30.918,0.036,0.057,1.001
2026/05/14 10:29:30.937,0.033,0.06,1.0
2026/05/14 10:29:30.956,0.035,0.053,1.0
2026/05/14 10:29:30.975,0.034,0.054,1.004
2026/05/14 10:29:30.994,0.036,0.056,1.004
2026/05/14 10:29:31.013,0.037,0.056,1.007
2026/05/14 10:29:31.032,0.035,0.052,1.005
2026/05/14 10:29:31.050,0.034,0.056,1.001
2026/05/14 10:29:31.069,0.034,0.06,1.004
2026/05/14 10:29:31.088,0.034,0.058,1.001
2026/05/14 10:29:31.107,0.04,0.055,1.0
2026/05/14 10:29:31.126,0.035,0.056,1.004
2026/05/14 10:29:31.145,0.032,0.061,1.003
2026/05/14 10:29:31.164,0.036,0.053,1.005
2026/05/14 10:29:31.183,0.034,0.055,1.004
2026/05/14 10:29:31.202,0.035,0.059,1.002
2026/05/14 10:29:31.221,0.032,0.057,1.006
2026/05/14 10:29:31.240,0.033,0.055,1.006
2026/05/14 10:29:31.259,0.035,0.056,1.002
2026/05/14 10:29:31.277,0.034,0.057,1.006
2026/05/14 10:29:31.296,0.033,0.056,1.002
2026/05/14 10:29:31.315,0.032,0.058,1.004
2026/05/14 10:29:31.334,0.034,0.055,1.006
2026/05/14 10:29:31.353,0.035,0.054,1.006
2026/05/14 10:29:31.372,0.034,0.058,1.006
2026/05/14 10:29:31.391,0.036,0.059,1.0
2026/05/14 10:29:31.410,0.035,0.058,1.003
2026/05/14 10:29:31.429,0.035,0.059,0.998
2026/05/14 10:29:31.448,0.039,0.056,1.004
2026/05/14 10:29:31.467,0.039,0.056,1.003
2026/05/14 10:29:31.486,0.035,0.056,1.002
2026/05/14 10:29:31.504,0.036,0.057,1.003
2026/05/14 10:29:31.523,0.037,0.055,1.001
2026/05/14 10:29:31.542,0.037,0.059,1.009
2026/05/14 10:29:31.561,0.034,0.06,1.003
2026/05/14 10:29:31.580,0.032,0.054,1.006
2026/05/14 10:29:31.599,0.032,0.054,1.003
2026/05/14 10:29:31.618,0.032,0.058,0.998
2026/05/14 10:29:31.637,0.036,0.06,1.009
2026/05/14 10:29:31.656,0.037,0.057,1.004
2026/05/14 10:29:31.675,0.033,0.057,0.996
2026/05/14 10:29:31.694,0.033,0.058,1.007
2026/05/14 10:29:31.713,0.035,0.058,1.003
2026/05/14 10:29:31.731,0.036,0.058,1.008
2026/05/14 10:29:31.750,0.033,0.059,1.002
2026/05/14 10:29:31.769,0.031,0.055,0.997
2026/05/14 10:29:31.788,0.031,0.055,0.999
2026/05/14 10:29:31.807,0.031,0.055,1.007
2026/05/14 10:29:31.826,0.036,0.058,1.001
2026/05/14 10:29:31.845,0.033,0.054,1.01
2026/05/14 10:29:31.864,0.037,0.058,1.002
2026/05/14 10:29:31.883,0.035,0.058,1.002
2026/05/14 10:29:31.902,0.036,0.054,0.996
2026/05/14 10:29:31.921,0.033,0.058,1.004
2026/05/14 10:29:31.940,0.034,0.057,1.007
2026/05/14 10:29:31.958,0.031,0.055,1.003
2026/05/14 10:29:31.977,0.033,0.052,1.005
2026/05/14 10:29:31.996,0.036,0.061,1.002
2026/05/14 10:29:32.015,0.038,0.057,1.001
2026/05/14 10:29:32.034,0.036,0.053,1.003
2026/05/14 10:29:32.053,0.035,0.056,1.002
2026/05/14 10:29:32.072,0.036,0.061,0.997
2026/05/14 10:29:32.091,0.034,0.055,1.004
2026/05/14 10:29:32.110,0.036,0.057,1.002
2026/05/14 10:29:32.129,0.037,0.055,1.002
2026/05/14 10:29:32.148,0.035,0.06,1.002
2026/05/14 10:29:32.167,0.034,0.057,0.999
2026/05/14 10:29:32.185,0.034,0.054,0.999
2026/05/14 10:29:32.204,0.032,0.053,1.006
2026/05/14 10:29:32.223,0.034,0.057,1.0
2026/05/14 10:29:32.242,0.037,0.059,1.005
2026/05/14 10:29:32.261,0.033,0.054,1.002
2026/05/14 10:29:32.280,0.032,0.061,1.003
2026/05/14 10:29:32.299,0.033,0.059,0.999
2026/05/14 10:29:32.318,0.034,0.058,1.005
2026/05/14 10:29:32.337,0.036,0.053,1.001
2026/05/14 10:29:32.356,0.03,0.06,1.001
2026/05/14 10:29:32.375,0.033,0.059,1.004
2026/05/14 10:29:32.394,0.034,0.057,1.001
2026/05/14 10:29:32.412,0.034,0.055,1.002
2026/05/14 10:29:32.431,0.038,0.053,1.002
2026/05/14 10:29:32.450,0.035,0.055,0.999
2026/05/14 10:29:32.469,0.038,0.06,1.005
2026/05/14 10:29:32.488,0.038,0.056,1.0
2026/05/14 10:29:32.507,0.033,0.058,1.003
2026/05/14 10:29:32.526,0.036,0.053,1.006
2026/05/14 10:29:32.545,0.037,0.061,1.003
2026/05/14 10:29:32.564,0.036,0.052,1.004
2026/05/14 10:29:32.583,0.035,0.056,1.004
2026/05/14 10:29:32.602,0.033,0.056,1.003
2026/05/14 10:29:32.621,0.036,0.053,1.005
2026/05/14 10:29:32.639,0.035,0.054,1.003
2026/05/14 10:29:32.658,0.035,0.054,1.002
2026/05/14 10:29:32.677,0.036,0.057,1.002
2026/05/14 10:29:32.696,0.034,0.057,1.005
2026/05/14 10:29:32.715,0.032,0.055,1.001
2026/05/14 10:29:32.734,0.031,0.057,1.001
2026/05/14 10:29:32.753,0.033,0.056,1.003
2026/05/14 10:29:32.772,0.035,0.056,1.002
2026/05/14 10:29:32.791,0.031,0.058,1.004
2026/05/14 10:29:32.810,0.034,0.058,1.01
2026/05/14 10:29:32.829,0.035,0.059,1.005
2026/05/14 10:29:32.848,0.035,0.058,1.006
2026/05/14 10:29:32.866,0.034,0.054,1.001
2026/05/14 10:29:32.885,0.035,0.055,1.002
2026/05/14 10:29:32.904,0.033,0.058,1.006
2026/05/14 10:29:32.923,0.037,0.058,1.005
2026/05/14 10:29:32.942,0.036,0.057,1.001
2026/05/14 10:29:32.961,0.036,0.056,1.005
2026/05/14 10:29:32.980,0.032,0.054,1.005
2026/05/14 10:29:32.999,0.034,0.058,1.006
2026/05/14 10:29:33.018,0.038,0.052,1.007
2026/05/14 10:29:33.037,0.038,0.057,1.005
2026/05/14 10:29:33.056,0.036,0.056,1.003
2026/05/14 10:29:33.075,0.035,0.057,1.005
2026/05/14 10:29:33.094,0.036,0.055,1.004
2026/05/14 10:29:33.112,0.032,0.053,1.002
2026/05/14 10:29:33.131,0.036,0.057,1.003
2026/05/14 10:29:33.150,0.033,0.057,0.999
2026/05/14 10:29:33.169,0.033,0.054,1.005
2026/05/14 10:29:33.188,0.035,0.057,1.007
2026/05/14 10:29:33.207,0.037,0.055,1.004
2026/05/14 10:29:33.226,0.036,0.063,1.004
2026/05/14 10:29:33.245,0.038,0.053,1.004
2026/05/14 10:29:33.264,0.039,0.056,1.003
2026/05/14 10:29:33.283,0.038,0.058,0.997
2026/05/14 10:29:33.302,0.035,0.058,1.007
2026/05/14 10:29:33.321,0.036,0.059,1.016
2026/05/14 10:29:33.339,0.035,0.057,1.012
2026/05/14 10:29:33.358,0.034,0.055,1.002
2026/05/14 10:29:33.377,0.034,0.062,1.002
2026/05/14 10:29:33.396,0.033,0.061,1.0
2026/05/14 10:29:33.415,0.032,0.056,1.003
2026/05/14 10:29:33.434,0.037,0.052,1.0
2026/05/14 10:29:33.453,0.035,0.059,1.003
2026/05/14 10:29:33.472,0.034,0.051,1.005
2026/05/14 10:29:33.491,0.033,0.058,1.0
2026/05/14 10:29:33.510,0.033,0.051,1.003
2026/05/14 10:29:33.529,0.04,0.056,1.002
2026/05/14 10:29:33.548,0.039,0.057,1.006
2026/05/14 10:29:33.566,0.034,0.06,1.003
2026/05/14 10:29:33.585,0.036,0.054,1.0
2026/05/14 10:29:33.604,0.034,0.058,1.006
2026/05/14 10:29:33.623,0.038,0.054,1.001
2026/05/14 10:29:33.642,0.032,0.056,1.003
2026/05/14 10:29:33.661,0.036,0.057,1.005
2026/05/14 10:29:33.680,0.035,0.052,1.006
2026/05/14 10:29:33.699,0.039,0.053,1.003
2026/05/14 10:29:33.718,0.036,0.059,1.005
2026/05/14 10:29:33.737,0.033,0.06,1.003
2026/05/14 10:29:33.756,0.036,0.057,1.002
2026/05/14 10:29:33.775,0.037,0.055,1.003
2026/05/14 10:29:33.794,0.037,0.057,1.003
2026/05/14 10:29:33.812,0.036,0.056,1.002
2026/05/14 10:29:33.831,0.032,0.061,1.004
2026/05/14 10:29:33.850,0.034,0.055,1.002
2026/05/14 10:29:33.869,0.035,0.055,1.001
2026/05/14 10:29:33.888,0.036,0.061,1.004
2026/05/14 10:29:33.907,0.034,0.056,1.006
2026/05/14 10:29:33.926,0.036,0.055,1.004
2026/05/14 10:29:33.945,0.032,0.058,1.0
2026/05/14 10:29:33.964,0.033,0.055,1.005
2026/05/14 10:29:33.983,0.036,0.054,1.001
2026/05/14 10:29:34.002,0.03,0.058,1.002
2026/05/14 10:29:34.021,0.036,0.057,1.003
2026/05/14 10:29:34.039,0.031,0.058,1.005
2026/05/14 10:29:34.058,0.034,0.054,1.003
2026/05/14 10:29:34.077,0.036,0.055,0.999
2026/05/14 10:29:34.096,0.037,0.052,1.003
2026/05/14 10:29:34.115,0.034,0.056,1.005
2026/05/14 10:29:34.134,0.034,0.059,1.0
2026/05/14 10:29:34.153,0.037,0.054,1.004
2026/05/14 10:29:34.172,0.032,0.055,1.004
2026/05/14 10:29:34.191,0.031,0.056,1.004
2026/05/14 10:29:34.210,0.032,0.053,1.004
2026/05/14 10:29:34.229,0.035,0.058,1.003
2026/05/14 10:29:34.248,0.038,0.057,1.0
2026/05/14 10:29:34.266,0.039,0.051,1.004
2026/05/14 10:29:34.285,0.032,0.055,1.002
2026/05/14 10:29:34.304,0.032,0.055,1.004
2026/05/14 10:29:34.323,0.034,0.053,1.006
2026/05/14 10:29:34.342,0.035,0.055,1.003
2026/05/14 10:29:34.361,0.035,0.057,1.005
2026/05/14 10:29:34.380,0.032,0.055,1.003
2026/05/14 10:29:34.399,0.031,0.056,1.007
2026/05/14 10:29:34.418,0.033,0.055,1.003
2026/05/14 10:29:34.437,0.04,0.058,1.003
2026/05/14 10:29:34.456,0.04,0.054,1.0
2026/05/14 10:29:34.475,0.035,0.055,1.003
2026/05/14 10:29:34.494,0.034,0.055,1.006
2026/05/14 10:29:34.512,0.036,0.057,1.001
2026/05/14 10:29:34.531,0.033,0.052,1.004
2026/05/14 10:29:34.550,0.039,0.055,1.003
2026/05/14 10:29:34.569,0.037,0.054,1.002
2026/05/14 10:29:34.588,0.034,0.059,0.999
2026/05/14 10:29:34.607,0.031,0.056,1.004
2026/05/14 10:29:34.626,0.036,0.056,1.004
2026/05/14 10:29:34.645,0.035,0.054,1.006
2026/05/14 10:29:34.664,0.036,0.056,1.005
2026/05/14 10:29:34.683,0.032,0.056,1.009
2026/05/14 10:29:34.702,0.034,0.058,1.002
2026/05/14 10:29:34.721,0.036,0.057,1.003
2026/05/14 10:29:34.739,0.037,0.057,1.003
2026/05/14 10:29:34.758,0.035,0.055,1.005
2026/05/14 10:29:34.777,0.034,0.053,1.001
2026/05/14 10:29:34.796,0.038,0.058,1.006
2026/05/14 10:29:34.815,0.036,0.059,1.01
2026/05/14 10:29:34.834,0.032,0.056,0.998
2026/05/14 10:29:34.853,0.033,0.051,1.006
2026/05/14 10:29:34.872,0.035,0.058,0.998
2026/05/14 10:29:34.891,0.032,0.058,1.001
2026/05/14 10:29:34.910,0.038,0.062,1.007
2026/05/14 10:29:34.929,0.036,0.058,1.005
2026/05/14 10:29:34.948,0.04,0.058,1.008
2026/05/14 10:29:34.967,0.035,0.055,1.008
2026/05/14 10:29:34.985,0.034,0.057,1.008
2026/05/14 10:29:35.004,0.038,0.056,1.007
2026/05/14 10:29:35.023,0.032,0.048,0.998
2026/05/14 10:29:35.042,0.033,0.057,1.001
2026/05/14 10:29:35.061,0.039,0.055,1.005
2026/05/14 10:29:35.080,0.034,0.054,1.002
2026/05/14 10:29:35.099,0.038,0.057,1.004
2026/05/14 10:29:35.118,0.034,0.058,1.0
2026/05/14 10:29:35.137,0.037,0.057,1.0
2026/05/14 10:29:35.156,0.036,0.058,1.001
2026/05/14 10:29:35.175,0.032,0.053,1.0
2026/05/14 10:29:35.194,0.032,0.054,1.004
2026/05/14 10:29:35.212,0.034,0.055,1.003
2026/05/14 10:29:35.231,0.038,0.053,1.004
2026/05/14 10:29:35.250,0.034,0.055,1.006
2026/05/14 10:29:35.269,0.033,0.058,1.01
2026/05/14 10:29:35.288,0.037,0.056,1.006
2026/05/14 10:29:35.307,0.033,0.055,0.999
2026/05/14 10:29:35.326,0.033,0.055,1.0
2026/05/14 10:29:35.345,0.036,0.054,1.003
2026/05/14 10:29:35.364,0.035,0.056,1.004
2026/05/14 10:29:35.383,0.033,0.052,1.003
2026/05/14 10:29:35.402,0.034,0.055,1.002
2026/05/14 10:29:35.420,0.034,0.055,1.001
2026/05/14 10:29:35.439,0.031,0.054,1.0
2026/05/14 10:29:35.458,0.034,0.057,1.0
2026/05/14 10:29:35.477,0.034,0.056,1.003
2026/05/14 10:29:35.496,0.031,0.054,1.002
2026/05/14 10:29:35.515,0.038,0.057,1.006
2026/05/14 10:29:35.534,0.037,0.058,1.007
2026/05/14 10:29:35.553,0.035,0.057,1.003
2026/05/14 10:29:35.572,0.036,0.056,0.996
2026/05/14 10:29:35.591,0.032,0.054,1.006
2026/05/14 10:29:35.610,0.031,0.055,1.004
2026/05/14 10:29:35.629,0.037,0.054,1.003
2026/05/14 10:29:35.647,0.037,0.057,1.002
2026/05/14 10:29:35.666,0.035,0.058,1.007
2026/05/14 10:29:35.685,0.035,0.06,1.005
2026/05/14 10:29:35.704,0.033,0.057,1.006
2026/05/14 10:29:35.723,0.035,0.056,1.003
2026/05/14 10:29:35.742,0.034,0.057,1.008
2026/05/14 10:29:35.761,0.037,0.058,1.003
2026/05/14 10:29:35.780,0.036,0.057,1.004
2026/05/14 10:29:35.799,0.038,0.055,1.004
2026/05/14 10:29:35.818,0.03,0.054,1.01
2026/05/14 10:29:35.837,0.034,0.056,0.996
2026/05/14 10:29:35.856,0.036,0.056,1.006
2026/05/14 10:29:35.874,0.031,0.056,1.003
2026/05/14 10:29:35.893,0.035,0.054,1.004
2026/05/14 10:29:35.912,0.035,0.057,1.003
2026/05/14 10:29:35.931,0.035,0.057,1.005
2026/05/14 10:29:35.950,0.036,0.057,1.003
2026/05/14 10:29:35.969,0.032,0.058,1.003
2026/05/14 10:29:35.988,0.034,0.056,1.006
2026/05/14 10:29:36.007,0.034,0.057,1.002
2026/05/14 10:29:36.026,0.04,0.058,1.001
2026/05/14 10:29:36.045,0.036,0.059,1.003
2026/05/14 10:29:36.064,0.033,0.055,1.005
2026/05/14 10:29:36.083,0.036,0.053,0.997
2026/05/14 10:29:36.101,0.032,0.055,0.998
2026/05/14 10:29:36.120,0.031,0.056,0.999
2026/05/14 10:29:36.139,0.038,0.054,1.006
2026/05/14 10:29:36.158,0.032,0.054,1.006
2026/05/14 10:29:36.177,0.035,0.054,1.002
2026/05/14 10:29:36.196,0.033,0.057,1.002
2026/05/14 10:29:36.215,0.035,0.054,1.005
2026/05/14 10:29:36.234,0.037,0.054,1.006
2026/05/14 10:29:36.253,0.035,0.058,0.999
2026/05/14 10:29:36.272,0.038,0.059,0.998
2026/05/14 10:29:36.291,0.039,0.061,1.002
2026/05/14 10:29:36.310,0.031,0.055,1.004
2026/05/14 10:29:36.328,0.032,0.056,1.001
2026/05/14 10:29:36.347,0.033,0.058,1.005
2026/05/14 10:29:36.366,0.03,0.057,1.001
2026/05/14 10:29:36.385,0.032,0.056,1.001
2026/05/14 10:29:36.404,0.038,0.051,1.0
2026/05/14 10:29:36.423,0.036,0.05,1.002
2026/05/14 10:29:36.442,0.031,0.052,1.003
2026/05/14 10:29:36.461,0.033,0.055,1.003
2026/05/14 10:29:36.480,0.031,0.057,1.003
2026/05/14 10:29:36.499,0.029,0.058,1.006
2026/05/14 10:29:36.518,0.028,0.053,1.003
2026/05/14 10:29:36.537,0.035,0.055,1.003
2026/05/14 10:29:36.555,0.036,0.056,1.012
2026/05/14 10:29:36.574,0.039,0.057,1.005
2026/05/14 10:29:36.593,0.04,0.064,1.004
2026/05/14 10:29:36.612,0.04,0.068,1.004
2026/05/14 10:29:36.631,0.039,0.062,1.0
2026/05/14 10:29:36.650,0.036,0.06,1.004
2026/05/14 10:29:36.669,0.033,0.059,1.007
2026/05/14 10:29:36.688,0.035,0.057,1.009
2026/05/14 10:29:36.707,0.032,0.056,1.008
2026/05/14 10:29:36.726,0.033,0.05,0.998
2026/05/14 10:29:36.745,0.035,0.059,1.007
2026/05/14 10:29:36.764,0.037,0.051,1.004
2026/05/14 10:29:36.782,0.034,0.054,0.996
2026/05/14 10:29:36.801,0.034,0.058,1.004
2026/05/14 10:29:36.820,0.035,0.057,1.001
2026/05/14 10:29:36.839,0.036,0.06,1.006
2026/05/14 10:29:36.858,0.033,0.054,1.008
2026/05/14 10:29:36.877,0.027,0.052,1.0
2026/05/14 10:29:36.896,0.03,0.051,0.999
2026/05/14 10:29:36.915,0.029,0.053,1.0
2026/05/14 10:29:36.934,0.032,0.054,1.0
2026/05/14 10:29:36.953,0.037,0.048,0.999
2026/05/14 10:29:36.972,0.038,0.051,1.005
2026/05/14 10:29:36.991,0.036,0.054,1.006
2026/05/14 10:29:37.009,0.036,0.056,1.001
2026/05/14 10:29:37.028,0.04,0.065,1.002
2026/05/14 10:29:37.047,0.034,0.069,1.002
2026/05/14 10:29:37.066,0.036,0.068,1.002
2026/05/14 10:29:37.085,0.037,0.065,0.999
2026/05/14 10:29:37.104,0.036,0.054,1.009
2026/05/14 10:29:37.123,0.033,0.047,1.007
2026/05/14 10:29:37.142,0.033,0.039,0.996
2026/05/14 10:29:37.161,0.031,0.048,1.006
2026/05/14 10:29:37.180,0.029,0.058,1.005
2026/05/14 10:29:37.199,0.03,0.064,1.006
2026/05/14 10:29:37.218,0.031,0.068,1.001
2026/05/14 10:29:37.236,0.039,0.062,1.004
2026/05/14 10:29:37.255,0.045,0.059,1.002
2026/05/14 10:29:37.274,0.048,0.061,1.003
2026/05/14 10:29:37.293,0.045,0.063,1.004
2026/05/14 10:29:37.312,0.04,0.061,1.005
2026/05/14 10:29:37.331,0.033,0.059,1.008
2026/05/14 10:29:37.350,0.026,0.05,1.0
2026/05/14 10:29:37.369,0.023,0.047,1.005
2026/05/14 10:29:37.388,0.02,0.042,1.0
2026/05/14 10:29:37.407,0.025,0.042,1.002
2026/05/14 10:29:37.426,0.028,0.05,1.008
2026/05/14 10:29:37.444,0.035,0.055,1.004
2026/05/14 10:29:37.463,0.041,0.062,1.007
2026/05/14 10:29:37.482,0.04,0.072,1.006
2026/05/14 10:29:37.501,0.046,0.074,1.006
2026/05/14 10:29:37.520,0.044,0.072,1.002
2026/05/14 10:29:37.539,0.042,0.06,0.999
2026/05/14 10:29:37.558,0.04,0.053,1.009
2026/05/14 10:29:37.577,0.04,0.046,1.005
2026/05/14 10:29:37.596,0.034,0.045,1.002
2026/05/14 10:29:37.615,0.032,0.05,1.006
2026/05/14 10:29:37.634,0.026,0.056,1.009
2026/05/14 10:29:37.653,0.032,0.053,0.994
2026/05/14 10:29:37.672,0.033,0.059,1.009
2026/05/14 10:29:37.690,0.034,0.06,1.01
2026/05/14 10:29:37.709,0.038,0.062,1.009
2026/05/14 10:29:37.728,0.04,0.064,0.997
2026/05/14 10:29:37.747,0.04,0.073,1.019
2026/05/14 10:29:37.766,0.038,0.066,1.009
2026/05/14 10:29:37.785,0.036,0.055,1.005
2026/05/14 10:29:37.804,0.025,0.052,1.003
2026/05/14 10:29:37.823,0.028,0.05,0.993
2026/05/14 10:29:37.842,0.033,0.048,0.981
2026/05/14 10:29:37.861,0.031,0.055,1.003
2026/05/14 10:29:37.880,0.043,0.06,1.008
2026/05/14 10:29:37.899,0.04,0.063,0.997
2026/05/14 10:29:37.917,0.037,0.053,0.979
2026/05/14 10:29:37.936,0.039,0.065,1.02
2026/05/14 10:29:37.955,0.035,0.053,1.001
2026/05/14 10:29:37.974,0.03,0.054,1.003
2026/05/14 10:29:37.993,0.043,0.062,1.005
2026/05/14 10:29:38.012,0.047,0.062,0.997
2026/05/14 10:29:38.031,0.043,0.057,1.012
2026/05/14 10:29:38.050,0.035,0.052,1.007
2026/05/14 10:29:38.069,0.028,0.068,1.013
2026/05/14 10:29:38.088,0.017,0.068,1.002
2026/05/14 10:29:38.107,0.017,0.06,1.021
2026/05/14 10:29:38.126,0.026,0.048,0.998
2026/05/14 10:29:38.144,0.039,0.046,0.999
2026/05/14 10:29:38.163,0.052,0.045,0.996
2026/05/14 10:29:38.182,0.053,0.045,0.987
2026/05/14 10:29:38.201,0.048,0.052,0.996
2026/05/14 10:29:38.220,0.038,0.054,1.002
2026/05/14 10:29:38.239,0.026,0.054,0.993
2026/05/14 10:29:38.258,0.022,0.06,1.016
2026/05/14 10:29:38.277,0.018,0.06,0.992
2026/05/14 10:29:38.296,0.02,0.067,1.013
2026/05/14 10:29:38.315,0.038,0.062,1.001
2026/05/14 10:29:38.334,0.044,0.06,0.999
2026/05/14 10:29:38.353,0.049,0.06,0.994
2026/05/14 10:29:38.371,0.048,0.053,1.0
2026/05/14 10:29:38.390,0.047,0.052,1.002
2026/05/14 10:29:38.409,0.035,0.053,0.99
2026/05/14 10:29:38.428,0.032,0.058,1.01
2026/05/14 10:29:38.447,0.022,0.059,1.001
2026/05/14 10:29:38.466,0.022,0.055,1.015
2026/05/14 10:29:38.485,0.029,0.054,1.006
2026/05/14 10:29:38.504,0.033,0.051,1.002
2026/05/14 10:29:38.523,0.039,0.049,1.01
2026/05/14 10:29:38.542,0.044,0.055,1.017
2026/05/14 10:29:38.561,0.045,0.056,1.005
2026/05/14 10:29:38.580,0.043,0.059,1.004
2026/05/14 10:29:38.598,0.036,0.056,1.002
2026/05/14 10:29:38.617,0.029,0.062,0.997
2026/05/14 10:29:38.636,0.027,0.066,1.006
2026/05/14 10:29:38.655,0.028,0.065,1.016
2026/05/14 10:29:38.674,0.027,0.065,1.017
2026/05/14 10:29:38.693,0.038,0.062,1.006
2026/05/14 10:29:38.712,0.044,0.053,1.008
2026/05/14 10:29:38.731,0.042,0.055,1.005
2026/05/14 10:29:38.750,0.04,0.051,0.994
2026/05/14 10:29:38.769,0.037,0.051,0.989
2026/05/14 10:29:38.788,0.031,0.056,1.006
2026/05/14 10:29:38.807,0.027,0.054,1.0
2026/05/14 10:29:38.825,0.028,0.056,1.008
2026/05/14 10:29:38.844,0.031,0.056,1.004
2026/05/14 10:29:38.863,0.036,0.054,1.005
2026/05/14 10:29:38.882,0.041,0.053,1.002
2026/05/14 10:29:38.901,0.04,0.055,0.987
2026/05/14 10:29:38.920,0.042,0.06,1.001
2026/05/14 10:29:38.939,0.04,0.059,1.01
2026/05/14 10:29:38.958,0.038,0.058,0.993
2026/05/14 10:29:38.977,0.033,0.06,1.008
2026/05/14 10:29:38.996,0.033,0.06,1.012
2026/05/14 10:29:39.015,0.03,0.057,1.012
2026/05/14 10:29:39.034,0.034,0.062,0.995
2026/05/14 10:29:39.052,0.033,0.054,1.017
2026/05/14 10:29:39.071,0.034,0.06,1.011
2026/05/14 10:29:39.090,0.039,0.057,1.005
2026/05/14 10:29:39.109,0.036,0.048,1.001
2026/05/14 10:29:39.128,0.033,0.052,1.003
2026/05/14 10:29:39.147,0.033,0.055,1.008
2026/05/14 10:29:39.166,0.031,0.055,1.002
2026/05/14 10:29:39.185,0.034,0.06,1.003
2026/05/14 10:29:39.204,0.032,0.06,1.006
2026/05/14 10:29:39.223,0.033,0.059,1.007
2026/05/14 10:29:39.242,0.036,0.056,1.003
2026/05/14 10:29:39.261,0.037,0.056,0.999
2026/05/14 10:29:39.279,0.039,0.056,0.998
2026/05/14 10:29:39.298,0.039,0.059,1.007
2026/05/14 10:29:39.317,0.039,0.058,1.0
2026/05/14 10:29:39.336,0.032,0.056,1.003
2026/05/14 10:29:39.355,0.032,0.054,1.008
2026/05/14 10:29:39.374,0.034,0.054,1.006
2026/05/14 10:29:39.393,0.032,0.054,1.006
2026/05/14 10:29:39.412,0.04,0.052,1.0
2026/05/14 10:29:39.431,0.037,0.054,1.001
2026/05/14 10:29:39.450,0.041,0.05,1.0
2026/05/14 10:29:39.469,0.034,0.052,1.002
2026/05/14 10:29:39.488,0.04,0.052,1.001
2026/05/14 10:29:39.506,0.031,0.058,1.001
2026/05/14 10:29:39.525,0.031,0.058,1.005
2026/05/14 10:29:39.544,0.034,0.057,1.002
2026/05/14 10:29:39.563,0.035,0.057,1.002
2026/05/14 10:29:39.582,0.032,0.064,0.998
2026/05/14 10:29:39.601,0.04,0.054,1.002
2026/05/14 10:29:39.620,0.039,0.058,1.003
2026/05/14 10:29:39.639,0.037,0.054,1.001
2026/05/14 10:29:39.658,0.038,0.058,1.002
2026/05/14 10:29:39.677,0.034,0.057,1.003
2026/05/14 10:29:39.696,0.037,0.058,0.996
2026/05/14 10:29:39.715,0.034,0.053,1.007
2026/05/14 10:29:39.734,0.03,0.052,1.002
2026/05/14 10:29:39.752,0.034,0.06,1.012
2026/05/14 10:29:39.771,0.036,0.052,0.997
2026/05/14 10:29:39.790,0.036,0.056,0.991
2026/05/14 10:29:39.809,0.038,0.055,1.006
2026/05/14 10:29:39.828,0.037,0.057,1.007
2026/05/14 10:29:39.847,0.039,0.058,1.001
2026/05/14 10:29:39.866,0.035,0.057,1.006
2026/05/14 10:29:39.885,0.034,0.062,1.003
2026/05/14 10:29:39.904,0.032,0.058,1.002
2026/05/14 10:29:39.923,0.033,0.059,0.998
2026/05/14 10:29:39.942,0.04,0.055,0.981
2026/05/14 10:29:39.961,0.039,0.062,1.005
2026/05/14 10:29:39.979,0.036,0.055,1.003
2026/05/14 10:29:39.998,0.035,0.056,1.011
2026/05/14 10:29:40.017,0.035,0.05,0.978
2026/05/14 10:29:40.036,0.03,0.057,1.01
2026/05/14 10:29:40.055,0.033,0.057,1.009
2026/05/14 10:29:40.074,0.035,0.053,0.989
2026/05/14 10:29:40.093,0.036,0.055,0.994
2026/05/14 10:29:40.112,0.035,0.058,1.002
2026/05/14 10:29:40.131,0.035,0.059,1.009
2026/05/14 10:29:40.150,0.034,0.059,1.004
2026/05/14 10:29:40.169,0.036,0.056,1.011
2026/05/14 10:29:40.188,0.036,0.061,0.994
2026/05/14 10:29:40.206,0.038,0.063,0.999
2026/05/14 10:29:40.225,0.034,0.059,1.005
2026/05/14 10:29:40.244,0.039,0.058,1.015
2026/05/14 10:29:40.263,0.035,0.056,1.002
2026/05/14 10:29:40.282,0.036,0.056,1.017
2026/05/14 10:29:40.301,0.034,0.054,0.992
2026/05/14 10:29:40.320,0.032,0.056,1.007
2026/05/14 10:29:40.339,0.037,0.058,1.007
2026/05/14 10:29:40.358,0.033,0.054,1.006
2026/05/14 10:29:40.377,0.033,0.054,1.003
2026/05/14 10:29:40.396,0.035,0.056,1.006
2026/05/14 10:29:40.415,0.033,0.054,1.003
2026/05/14 10:29:40.433,0.037,0.056,1.003
2026/05/14 10:29:40.452,0.036,0.054,1.007
2026/05/14 10:29:40.471,0.037,0.06,1.004
2026/05/14 10:29:40.490,0.034,0.059,1.004
2026/05/14 10:29:40.509,0.034,0.059,1.002
2026/05/14 10:29:40.528,0.034,0.055,1.001
2026/05/14 10:29:40.547,0.036,0.054,1.004
2026/05/14 10:29:40.566,0.034,0.056,1.006
2026/05/14 10:29:40.585,0.032,0.06,1.005
2026/05/14 10:29:40.604,0.038,0.055,1.004
2026/05/14 10:29:40.623,0.033,0.058,1.004
2026/05/14 10:29:40.642,0.031,0.054,1.006
2026/05/14 10:29:40.661,0.034,0.057,1.004
2026/05/14 10:29:40.679,0.032,0.056,0.998
2026/05/14 10:29:40.698,0.034,0.051,1.0
2026/05/14 10:29:40.717,0.033,0.06,1.004
2026/05/14 10:29:40.736,0.038,0.057,1.003
2026/05/14 10:29:40.755,0.032,0.058,1.007
2026/05/14 10:29:40.774,0.033,0.056,1.005
2026/05/14 10:29:40.793,0.035,0.058,1.005
2026/05/14 10:29:40.812,0.039,0.054,1.003
2026/05/14 10:29:40.831,0.038,0.055,1.006
2026/05/14 10:29:40.850,0.039,0.058,1.002
2026/05/14 10:29:40.869,0.036,0.058,1.004
2026/05/14 10:29:40.888,0.033,0.054,1.004
2026/05/14 10:29:40.906,0.034,0.055,1.003
2026/05/14 10:29:40.925,0.033,0.053,1.001
2026/05/14 10:29:40.944,0.031,0.056,1.002
2026/05/14 10:29:40.963,0.033,0.051,1.002
2026/05/14 10:29:40.982,0.036,0.054,1.002
2026/05/14 10:29:41.001,0.036,0.057,1.005
2026/05/14 10:29:41.020,0.035,0.052,1.004
2026/05/14 10:29:41.039,0.038,0.058,1.004
2026/05/14 10:29:41.058,0.035,0.059,1.003
2026/05/14 10:29:41.077,0.037,0.054,1.0
2026/05/14 10:29:41.096,0.033,0.056,1.007
2026/05/14 10:29:41.115,0.035,0.058,1.003
2026/05/14 10:29:41.133,0.032,0.056,1.003
2026/05/14 10:29:41.152,0.035,0.057,1.004
2026/05/14 10:29:41.171,0.037,0.056,1.005
2026/05/14 10:29:41.190,0.035,0.057,1.007
2026/05/14 10:29:41.209,0.038,0.06,1.002
2026/05/14 10:29:41.228,0.036,0.056,1.007
2026/05/14 10:29:41.247,0.032,0.054,1.003
2026/05/14 10:29:41.266,0.037,0.055,1.005
2026/05/14 10:29:41.285,0.037,0.056,1.0
2026/05/14 10:29:41.304,0.036,0.057,1.002
2026/05/14 10:29:41.323,0.033,0.055,1.004
2026/05/14 10:29:41.342,0.037,0.054,1.003
2026/05/14 10:29:41.360,0.032,0.056,1.003
2026/05/14 10:29:41.379,0.033,0.056,1.003
2026/05/14 10:29:41.398,0.036,0.06,1.004
2026/05/14 10:29:41.417,0.036,0.054,1.0
2026/05/14 10:29:41.436,0.035,0.057,1.001
2026/05/14 10:29:41.455,0.033,0.058,1.0
2026/05/14 10:29:41.474,0.036,0.055,1.002
2026/05/14 10:29:41.493,0.035,0.054,1.003
2026/05/14 10:29:41.512,0.032,0.056,1.003
2026/05/14 10:29:41.531,0.035,0.053,1.0
2026/05/14 10:29:41.550,0.039,0.054,1.002
2026/05/14 10:29:41.569,0.035,0.053,1.002
2026/05/14 10:29:41.588,0.034,0.054,1.0
2026/05/14 10:29:41.606,0.037,0.059,1.003
2026/05/14 10:29:41.625,0.03,0.054,1.006
2026/05/14 10:29:41.644,0.038,0.058,1.003
2026/05/14 10:29:41.663,0.037,0.054,1.001
2026/05/14 10:29:41.682,0.038,0.058,1.002
2026/05/14 10:29:41.701,0.035,0.058,1.004
2026/05/14 10:29:41.720,0.035,0.058,1.003
2026/05/14 10:29:41.739,0.037,0.056,1.001
2026/05/14 10:29:41.758,0.032,0.059,1.003
2026/05/14 10:29:41.777,0.036,0.059,1.003
2026/05/14 10:29:41.796,0.033,0.053,1.0
2026/05/14 10:29:41.815,0.036,0.055,1.0
2026/05/14 10:29:41.833,0.031,0.059,1.001
2026/05/14 10:29:41.852,0.037,0.053,1.001
2026/05/14 10:29:41.871,0.037,0.053,1.004
2026/05/14 10:29:41.890,0.037,0.061,1.002
2026/05/14 10:29:41.909,0.037,0.054,1.003
2026/05/14 10:29:41.928,0.034,0.057,1.002
2026/05/14 10:29:41.947,0.038,0.057,1.003
2026/05/14 10:29:41.966,0.038,0.054,1.0
2026/05/14 10:29:41.985,0.033,0.057,0.998
2026/05/14 10:29:42.004,0.039,0.055,1.005
2026/05/14 10:29:42.023,0.034,0.058,1.005
2026/05/14 10:29:42.042,0.033,0.057,1.005
2026/05/14 10:29:42.060,0.033,0.057,1.003
2026/05/14 10:29:42.079,0.038,0.055,1.002
2026/05/14 10:29:42.098,0.036,0.056,1.005
2026/05/14 10:29:42.117,0.032,0.056,1.003
2026/05/14 10:29:42.136,0.036,0.058,1.001
2026/05/14 10:29:42.155,0.035,0.054,1.002
2026/05/14 10:29:42.174,0.038,0.055,1.003
2026/05/14 10:29:42.193,0.031,0.059,1.003
2026/05/14 10:29:42.212,0.036,0.056,1.005
2026/05/14 10:29:42.231,0.035,0.061,1.001
2026/05/14 10:29:42.250,0.034,0.057,1.004
2026/05/14 10:29:42.269,0.032,0.057,1.002
2026/05/14 10:29:42.288,0.032,0.055,0.997
2026/05/14 10:29:42.306,0.036,0.058,1.001
2026/05/14 10:29:42.325,0.032,0.055,1.0
2026/05/14 10:29:42.344,0.038,0.055,1.005
2026/05/14 10:29:42.363,0.034,0.056,1.004
2026/05/14 10:29:42.382,0.038,0.058,1.004
2026/05/14 10:29:42.401,0.034,0.055,1.004
2026/05/14 10:29:42.420,0.036,0.054,1.002
2026/05/14 10:29:42.439,0.038,0.062,1.004
2026/05/14 10:29:42.458,0.033,0.054,1.002
2026/05/14 10:29:42.477,0.033,0.056,1.006
2026/05/14 10:29:42.496,0.033,0.055,1.005
2026/05/14 10:29:42.515,0.034,0.055,1.004
2026/05/14 10:29:42.533,0.034,0.055,1.0
2026/05/14 10:29:42.552,0.034,0.057,1.003
2026/05/14 10:29:42.571,0.031,0.059,1.001
2026/05/14 10:29:42.590,0.03,0.058,1.003
2026/05/14 10:29:42.609,0.039,0.057,1.003
2026/05/14 10:29:42.628,0.034,0.054,1.009
2026/05/14 10:29:42.647,0.035,0.056,0.999
2026/05/14 10:29:42.666,0.038,0.055,1.002
2026/05/14 10:29:42.685,0.031,0.058,1.005
2026/05/14 10:29:42.704,0.035,0.057,1.002
2026/05/14 10:29:42.723,0.036,0.057,1.0
2026/05/14 10:29:42.742,0.035,0.056,1.003
2026/05/14 10:29:42.761,0.037,0.057,1.006
2026/05/14 10:29:42.779,0.035,0.054,1.0
2026/05/14 10:29:42.798,0.033,0.058,0.998
2026/05/14 10:29:42.817,0.035,0.055,0.999
2026/05/14 10:29:42.836,0.036,0.055,1.001
2026/05/14 10:29:42.855,0.036,0.055,1.005
2026/05/14 10:29:42.874,0.036,0.056,1.003
2026/05/14 10:29:42.893,0.033,0.06,1.001
2026/05/14 10:29:42.912,0.037,0.056,1.002
2026/05/14 10:29:42.931,0.034,0.055,1.006
2026/05/14 10:29:42.950,0.038,0.059,1.002
2026/05/14 10:29:42.969,0.036,0.053,1.002
2026/05/14 10:29:42.988,0.036,0.056,1.006
2026/05/14 10:29:43.007,0.036,0.059,1.003
2026/05/14 10:29:43.025,0.039,0.055,1.001
2026/05/14 10:29:43.044,0.036,0.057,1.001
2026/05/14 10:29:43.063,0.039,0.057,1.002
2026/05/14 10:29:43.082,0.031,0.052,1.002
2026/05/14 10:29:43.101,0.034,0.058,1.005
2026/05/14 10:29:43.120,0.034,0.057,1.002
2026/05/14 10:29:43.139,0.037,0.058,1.005
2026/05/14 10:29:43.158,0.032,0.055,1.003
2026/05/14 10:29:43.177,0.037,0.058,1.005
2026/05/14 10:29:43.196,0.034,0.055,1.003
2026/05/14 10:29:43.215,0.038,0.055,1.008
2026/05/14 10:29:43.234,0.035,0.059,1.005
2026/05/14 10:29:43.252,0.037,0.056,1.006
2026/05/14 10:29:43.271,0.035,0.055,1.003
2026/05/14 10:29:43.290,0.036,0.055,1.004
2026/05/14 10:29:43.309,0.033,0.057,1.004
2026/05/14 10:29:43.328,0.034,0.057,1.003
2026/05/14 10:29:43.347,0.035,0.059,1.004
2026/05/14 10:29:43.366,0.036,0.058,1.005
2026/05/14 10:29:43.385,0.034,0.056,1.0
2026/05/14 10:29:43.404,0.036,0.056,1.001
2026/05/14 10:29:43.423,0.036,0.056,1.003
2026/05/14 10:29:43.442,0.033,0.058,1.002
2026/05/14 10:29:43.461,0.034,0.056,1.005
2026/05/14 10:29:43.480,0.033,0.054,1.003
2026/05/14 10:29:43.498,0.034,0.055,1.004
2026/05/14 10:29:43.517,0.036,0.056,1.002
2026/05/14 10:29:43.536,0.031,0.056,1.002
2026/05/14 10:29:43.555,0.033,0.053,1.0
2026/05/14 10:29:43.574,0.038,0.059,1.003
2026/05/14 10:29:43.593,0.031,0.055,1.003
2026/05/14 10:29:43.612,0.035,0.056,1.003
2026/05/14 10:29:43.631,0.036,0.057,1.002
2026/05/14 10:29:43.650,0.035,0.054,1.002
2026/05/14 10:29:43.669,0.037,0.057,1.003
2026/05/14 10:29:43.688,0.036,0.058,1.001
2026/05/14 10:29:43.707,0.035,0.059,1.003
2026/05/14 10:29:43.725,0.035,0.058,1.004
2026/05/14 10:29:43.744,0.032,0.059,1.004
2026/05/14 10:29:43.763,0.035,0.052,1.006
2026/05/14 10:29:43.782,0.035,0.055,1.001
2026/05/14 10:29:43.801,0.033,0.056,1.006
2026/05/14 10:29:43.820,0.033,0.058,1.001
2026/05/14 10:29:43.839,0.034,0.054,1.004
2026/05/14 10:29:43.858,0.032,0.053,1.004
2026/05/14 10:29:43.877,0.036,0.055,1.003
2026/05/14 10:29:43.896,0.033,0.057,1.006
2026/05/14 10:29:43.915,0.033,0.058,1.005
2026/05/14 10:29:43.934,0.034,0.057,1.004
2026/05/14 10:29:43.953,0.036,0.059,1.001
2026/05/14 10:29:43.971,0.036,0.058,1.002
2026/05/14 10:29:43.990,0.034,0.056,1.004
2026/05/14 10:29:44.009,0.032,0.056,1.003
2026/05/14 10:29:44.028,0.036,0.057,1.003
2026/05/14 10:29:44.047,0.036,0.059,1.004
2026/05/14 10:29:44.066,0.034,0.059,1.004
2026/05/14 10:29:44.085,0.031,0.058,1.003
2026/05/14 10:29:44.104,0.03,0.052,1.002
2026/05/14 10:29:44.123,0.032,0.054,1.001
2026/05/14 10:29:44.142,0.035,0.057,0.999
2026/05/14 10:29:44.161,0.031,0.054,1.002
2026/05/14 10:29:44.180,0.035,0.054,1.003
2026/05/14 10:29:44.198,0.035,0.059,1.003
2026/05/14 10:29:44.217,0.036,0.054,1.006
2026/05/14 10:29:44.236,0.032,0.055,1.004
2026/05/14 10:29:44.255,0.032,0.055,1.003
2026/05/14 10:29:44.274,0.034,0.056,1.001
2026/05/14 10:29:44.293,0.034,0.055,1.004
2026/05/14 10:29:44.312,0.037,0.058,0.999
2026/05/14 10:29:44.331,0.036,0.058,1.004
2026/05/14 10:29:44.350,0.04,0.06,1.002
2026/05/14 10:29:44.369,0.034,0.057,1.002
2026/05/14 10:29:44.388,0.037,0.055,1.005
2026/05/14 10:29:44.407,0.039,0.058,1.001
2026/05/14 10:29:44.426,0.036,0.059,1.007
2026/05/14 10:29:44.444,0.034,0.057,1.005
2026/05/14 10:29:44.463,0.031,0.055,1.004
2026/05/14 10:29:44.482,0.033,0.055,1.002
2026/05/14 10:29:44.501,0.032,0.056,1.005
2026/05/14 10:29:44.520,0.036,0.056,1.002
2026/05/14 10:29:44.539,0.035,0.057,1.005
2026/05/14 10:29:44.558,0.035,0.057,1.004
2026/05/14 10:29:44.577,0.035,0.056,1.004
2026/05/14 10:29:44.596,0.034,0.057,1.005
2026/05/14 10:29:44.615,0.034,0.057,1.001
2026/05/14 10:29:44.634,0.037,0.053,1.004
2026/05/14 10:29:44.653,0.037,0.058,1.004
2026/05/14 10:29:44.671,0.037,0.059,1.004
2026/05/14 10:29:44.690,0.035,0.051,1.0
2026/05/14 10:29:44.709,0.037,0.057,1.007
2026/05/14 10:29:44.728,0.039,0.056,1.0
2026/05/14 10:29:44.747,0.036,0.058,1.0
2026/05/14 10:29:44.766,0.035,0.059,1.001
2026/05/14 10:29:44.785,0.034,0.059,1.006
2026/05/14 10:29:44.804,0.03,0.058,1.005
2026/05/14 10:29:44.823,0.038,0.058,1.001
2026/05/14 10:29:44.842,0.037,0.055,1.003
2026/05/14 10:29:44.861,0.038,0.054,0.999
2026/05/14 10:29:44.880,0.033,0.056,1.004
2026/05/14 10:29:44.899,0.034,0.059,1.0
2026/05/14 10:29:44.917,0.033,0.058,1.001
2026/05/14 10:29:44.936,0.03,0.059,1.003
2026/05/14 10:29:44.955,0.034,0.058,1.004
2026/05/14 10:29:44.974,0.034,0.058,1.004
2026/05/14 10:29:44.993,0.032,0.059,1.004
2026/05/14 10:29:45.012,0.032,0.056,1.005
2026/05/14 10:29:45.031,0.033,0.054,1.0
2026/05/14 10:29:45.050,0.036,0.054,1.001
2026/05/14 10:29:45.069,0.036,0.058,1.002
2026/05/14 10:29:45.088,0.035,0.053,1.005
2026/05/14 10:29:45.107,0.035,0.056,1.0
2026/05/14 10:29:45.126,0.032,0.055,1.005
2026/05/14 10:29:45.144,0.036,0.059,1.001
2026/05/14 10:29:45.163,0.037,0.055,1.002
2026/05/14 10:29:45.182,0.033,0.056,1.004
2026/05/14 10:29:45.201,0.038,0.06,1.003
2026/05/14 10:29:45.220,0.032,0.055,1.003
2026/05/14 10:29:45.239,0.037,0.057,1.002
2026/05/14 10:29:45.258,0.034,0.055,1.002
2026/05/14 10:29:45.277,0.032,0.057,1.006
2026/05/14 10:29:45.296,0.034,0.055,0.999
2026/05/14 10:29:45.315,0.036,0.054,1.006
2026/05/14 10:29:45.334,0.035,0.055,1.003
2026/05/14 10:29:45.353,0.034,0.057,1.005
2026/05/14 10:29:45.371,0.03,0.055,1.003
2026/05/14 10:29:45.390,0.035,0.057,1.004
2026/05/14 10:29:45.409,0.034,0.057,1.001
2026/05/14 10:29:45.428,0.033,0.053,1.003
2026/05/14 10:29:45.447,0.032,0.054,1.004
2026/05/14 10:29:45.466,0.036,0.058,1.003
2026/05/14 10:29:45.485,0.037,0.055,1.002
2026/05/14 10:29:45.504,0.033,0.059,1.005
2026/05/14 10:29:45.523,0.037,0.06,1.006
2026/05/14 10:29:45.542,0.036,0.057,1.001
2026/05/14 10:29:45.561,0.036,0.055,1.004
2026/05/14 10:29:45.580,0.038,0.059,1.003
2026/05/14 10:29:45.598,0.033,0.056,1.001
2026/05/14 10:29:45.617,0.039,0.055,1.003
2026/05/14 10:29:45.636,0.033,0.054,1.003
2026/05/14 10:29:45.655,0.038,0.053,1.003
2026/05/14 10:29:45.674,0.033,0.055,1.006
2026/05/14 10:29:45.693,0.037,0.056,1.007
2026/05/14 10:29:45.712,0.033,0.056,1.002
2026/05/14 10:29:45.731,0.035,0.056,1.006
2026/05/14 10:29:45.750,0.037,0.052,1.006
2026/05/14 10:29:45.769,0.035,0.057,1.002
2026/05/14 10:29:45.788,0.035,0.053,1.006
2026/05/14 10:29:45.807,0.032,0.058,1.002
2026/05/14 10:29:45.826,0.036,0.054,1.002
2026/05/14 10:29:45.844,0.039,0.055,1.003
2026/05/14 10:29:45.863,0.031,0.059,0.999
2026/05/14 10:29:45.882,0.036,0.055,1.0
2026/05/14 10:29:45.901,0.035,0.061,1.0
2026/05/14 10:29:45.920,0.038,0.055,1.003
2026/05/14 10:29:45.939,0.036,0.054,1.006
2026/05/14 10:29:45.958,0.033,0.058,1.002
2026/05/14 10:29:45.977,0.033,0.057,1.003
2026/05/14 10:29:45.996,0.034,0.052,1.006
2026/05/14 10:29:46.015,0.032,0.059,1.001
2026/05/14 10:29:46.034,0.039,0.057,1.004
2026/05/14 10:29:46.053,0.036,0.056,1.005
2026/05/14 10:29:46.071,0.035,0.057,1.004
2026/05/14 10:29:46.090,0.035,0.053,1.004
2026/05/14 10:29:46.109,0.034,0.055,1.0
2026/05/14 10:29:46.128,0.039,0.053,1.004
2026/05/14 10:29:46.147,0.039,0.057,1.004
2026/05/14 10:29:46.166,0.036,0.056,1.0
2026/05/14 10:29:46.185,0.034,0.055,1.006
2026/05/14 10:29:46.204,0.034,0.054,1.003
2026/05/14 10:29:46.223,0.036,0.055,1.004
2026/05/14 10:29:46.242,0.037,0.055,1.0
2026/05/14 10:29:46.261,0.036,0.059,1.004
2026/05/14 10:29:46.280,0.035,0.053,1.009
2026/05/14 10:29:46.298,0.035,0.054,1.011
2026/05/14 10:29:46.317,0.035,0.058,1.004
2026/05/14 10:29:46.336,0.034,0.056,1.005
2026/05/14 10:29:46.355,0.035,0.056,1.006
2026/05/14 10:29:46.374,0.036,0.058,1.008
2026/05/14 10:29:46.393,0.034,0.057,0.996
2026/05/14 10:29:46.412,0.036,0.056,1.005
2026/05/14 10:29:46.431,0.034,0.058,1.004
2026/05/14 10:29:46.450,0.037,0.058,1.006
2026/05/14 10:29:46.469,0.036,0.055,1.001
2026/05/14 10:29:46.488,0.035,0.056,1.002
2026/05/14 10:29:46.507,0.034,0.053,1.004
2026/05/14 10:29:46.525,0.036,0.051,1.003
2026/05/14 10:29:46.544,0.032,0.058,1.002
2026/05/14 10:29:46.563,0.04,0.054,0.996
2026/05/14 10:29:46.582,0.038,0.056,1.005
2026/05/14 10:29:46.601,0.035,0.055,1.006
2026/05/14 10:29:46.620,0.033,0.059,1.008
2026/05/14 10:29:46.639,0.035,0.057,1.002
2026/05/14 10:29:46.658,0.035,0.057,1.003
2026/05/14 10:29:46.677,0.03,0.057,1.004
2026/05/14 10:29:46.696,0.037,0.053,1.001
2026/05/14 10:29:46.715,0.035,0.055,1.012
2026/05/14 10:29:46.734,0.032,0.058,1.003
2026/05/14 10:29:46.753,0.034,0.052,0.994
2026/05/14 10:29:46.771,0.037,0.055,1.01
2026/05/14 10:29:46.790,0.034,0.055,0.999
2026/05/14 10:29:46.809,0.036,0.057,1.004
2026/05/14 10:29:46.828,0.036,0.056,1.005
2026/05/14 10:29:46.847,0.036,0.059,1.003
2026/05/14 10:29:46.866,0.034,0.057,1.004
2026/05/14 10:29:46.885,0.036,0.056,1.004
2026/05/14 10:29:46.904,0.037,0.054,1.003
2026/05/14 10:29:46.923,0.037,0.055,1.002
2026/05/14 10:29:46.942,0.037,0.059,1.003
2026/05/14 10:29:46.961,0.033,0.062,1.008
2026/05/14 10:29:46.980,0.034,0.058,0.998
2026/05/14 10:29:46.998,0.033,0.057,1.003
2026/05/14 10:29:47.017,0.036,0.057,1.005
2026/05/14 10:29:47.036,0.034,0.057,1.001
2026/05/14 10:29:47.055,0.035,0.056,1.003
2026/05/14 10:29:47.074,0.033,0.057,1.005
2026/05/14 10:29:47.093,0.036,0.054,1.003
2026/05/14 10:29:47.112,0.033,0.057,1.003
2026/05/14 10:29:47.131,0.033,0.06,1.004
2026/05/14 10:29:47.150,0.037,0.056,0.998
2026/05/14 10:29:47.169,0.031,0.056,1.003
2026/05/14 10:29:47.188,0.035,0.054,1.002
2026/05/14 10:29:47.207,0.036,0.056,1.004
2026/05/14 10:29:47.225,0.036,0.054,1.005
2026/05/14 10:29:47.244,0.035,0.056,1.003
2026/05/14 10:29:47.263,0.031,0.058,1.005
2026/05/14 10:29:47.282,0.032,0.054,1.004
2026/05/14 10:29:47.301,0.033,0.055,1.003
2026/05/14 10:29:47.320,0.033,0.054,1.005
2026/05/14 10:29:47.339,0.035,0.055,1.001
2026/05/14 10:29:47.358,0.036,0.056,1.005
2026/05/14 10:29:47.377,0.038,0.055,1.01
2026/05/14 10:29:47.396,0.033,0.06,1.003
2026/05/14 10:29:47.415,0.033,0.057,1.011
2026/05/14 10:29:47.434,0.035,0.058,1.009
2026/05/14 10:29:47.452,0.036,0.055,1.005
2026/05/14 10:29:47.471,0.038,0.054,1.004
2026/05/14 10:29:47.490,0.038,0.054,1.001
2026/05/14 10:29:47.509,0.035,0.055,1.005
2026/05/14 10:29:47.528,0.039,0.053,1.002
2026/05/14 10:29:47.547,0.034,0.055,1.001
2026/05/14 10:29:47.566,0.036,0.053,1.006
2026/05/14 10:29:47.585,0.037,0.062,1.013
2026/05/14 10:29:47.604,0.032,0.06,1.008
2026/05/14 10:29:47.623,0.034,0.055,1.001
2026/05/14 10:29:47.642,0.034,0.054,1.004
2026/05/14 10:29:47.661,0.035,0.058,1.003
2026/05/14 10:29:47.679,0.037,0.06,1.0
2026/05/14 10:29:47.698,0.034,0.056,1.003
2026/05/14 10:29:47.717,0.033,0.053,1.003
2026/05/14 10:29:47.736,0.033,0.058,1.005
2026/05/14 10:29:47.755,0.035,0.053,1.008
2026/05/14 10:29:47.774,0.031,0.054,1.0
2026/05/14 10:29:47.793,0.035,0.057,1.004
2026/05/14 10:29:47.812,0.032,0.057,1.004
2026/05/14 10:29:47.831,0.036,0.058,1.004
2026/05/14 10:29:47.850,0.032,0.058,1.005
2026/05/14 10:29:47.869,0.033,0.058,1.004
2026/05/14 10:29:47.888,0.036,0.057,1.003
2026/05/14 10:29:47.906,0.037,0.059,1.007
2026/05/14 10:29:47.925,0.036,0.057,1.0
2026/05/14 10:29:47.944,0.034,0.057,1.0
2026/05/14 10:29:47.963,0.036,0.056,1.002
2026/05/14 10:29:47.982,0.035,0.056,1.003
2026/05/14 10:29:48.001,0.03,0.059,1.007
2026/05/14 10:29:48.020,0.034,0.055,0.998
2026/05/14 10:29:48.039,0.036,0.055,1.012
2026/05/14 10:29:48.058,0.038,0.055,0.997
2026/05/14 10:29:48.077,0.035,0.06,1.006
2026/05/14 10:29:48.096,0.033,0.058,1.001
2026/05/14 10:29:48.115,0.035,0.056,1.005
2026/05/14 10:29:48.133,0.034,0.055,1.004
2026/05/14 10:29:48.152,0.034,0.057,1.0
2026/05/14 10:29:48.171,0.037,0.057,0.998
2026/05/14 10:29:48.190,0.036,0.055,1.0
2026/05/14 10:29:48.209,0.036,0.057,1.002
2026/05/14 10:29:48.228,0.033,0.055,1.002
2026/05/14 10:29:48.247,0.036,0.054,1.002
2026/05/14 10:29:48.266,0.036,0.059,0.997
2026/05/14 10:29:48.285,0.032,0.055,1.004
2026/05/14 10:29:48.304,0.039,0.054,1.004
2026/05/14 10:29:48.323,0.037,0.056,1.007
2026/05/14 10:29:48.341,0.036,0.057,1.001
2026/05/14 10:29:48.360,0.033,0.055,1.0
2026/05/14 10:29:48.379,0.036,0.055,1.001
2026/05/14 10:29:48.398,0.035,0.057,1.003
2026/05/14 10:29:48.417,0.033,0.057,1.003
2026/05/14 10:29:48.436,0.04,0.055,1.001
2026/05/14 10:29:48.455,0.034,0.057,1.002
2026/05/14 10:29:48.474,0.036,0.057,0.998
2026/05/14 10:29:48.493,0.039,0.059,0.997
2026/05/14 10:29:48.512,0.036,0.057,0.999
2026/05/14 10:29:48.531,0.032,0.052,1.002
2026/05/14 10:29:48.550,0.034,0.055,1.002
2026/05/14 10:29:48.568,0.035,0.058,1.0
2026/05/14 10:29:48.587,0.035,0.055,1.001
2026/05/14 10:29:48.606,0.036,0.055,0.999
2026/05/14 10:29:48.625,0.034,0.06,1.004
2026/05/14 10:29:48.644,0.034,0.054,1.003
2026/05/14 10:29:48.663,0.036,0.055,0.999
2026/05/14 10:29:48.682,0.035,0.056,0.999
2026/05/14 10:29:48.701,0.033,0.053,1.005
2026/05/14 10:29:48.720,0.036,0.054,1.004
2026/05/14 10:29:48.739,0.036,0.057,1.005
2026/05/14 10:29:48.758,0.036,0.054,1.001
2026/05/14 10:29:48.777,0.038,0.056,1.004
2026/05/14 10:29:48.795,0.034,0.055,1.004
2026/05/14 10:29:48.814,0.037,0.058,0.999
2026/05/14 10:29:48.833,0.035,0.052,1.005
2026/05/14 10:29:48.852,0.039,0.056,1.003
2026/05/14 10:29:48.871,0.036,0.059,1.007
2026/05/14 10:29:48.890,0.037,0.057,1.003
2026/05/14 10:29:48.909,0.033,0.052,1.007
2026/05/14 10:29:48.928,0.035,0.058,1.006
2026/05/14 10:29:48.947,0.033,0.058,1.002
2026/05/14 10:29:48.966,0.035,0.057,1.004
2026/05/14 10:29:48.985,0.033,0.053,1.007
2026/05/14 10:29:49.004,0.036,0.052,1.004
2026/05/14 10:29:49.022,0.033,0.056,1.001
2026/05/14 10:29:49.041,0.036,0.057,1.003
2026/05/14 10:29:49.060,0.032,0.053,1.003
2026/05/14 10:29:49.079,0.034,0.056,1.006
2026/05/14 10:29:49.098,0.038,0.053,1.005
2026/05/14 10:29:49.117,0.035,0.057,1.003
2026/05/14 10:29:49.136,0.034,0.056,1.001
2026/05/14 10:29:49.155,0.035,0.057,1.0
2026/05/14 10:29:49.174,0.035,0.058,1.002
2026/05/14 10:29:49.193,0.035,0.055,1.003
2026/05/14 10:29:49.212,0.034,0.056,1.006
2026/05/14 10:29:49.231,0.035,0.058,1.003
2026/05/14 10:29:49.249,0.037,0.053,1.003
2026/05/14 10:29:49.268,0.035,0.054,1.003
2026/05/14 10:29:49.287,0.036,0.058,1.002
2026/05/14 10:29:49.306,0.036,0.058,0.999
2026/05/14 10:29:49.325,0.032,0.059,1.004
2026/05/14 10:29:49.344,0.037,0.055,1.004
2026/05/14 10:29:49.363,0.036,0.058,1.003
2026/05/14 10:29:49.382,0.033,0.056,1.003
2026/05/14 10:29:49.401,0.038,0.058,1.003
2026/05/14 10:29:49.420,0.035,0.058,1.006
2026/05/14 10:29:49.439,0.034,0.055,1.0
2026/05/14 10:29:49.458,0.034,0.056,1.003
2026/05/14 10:29:49.476,0.039,0.058,0.998
2026/05/14 10:29:49.495,0.034,0.053,1.006
2026/05/14 10:29:49.514,0.036,0.053,1.005
2026/05/14 10:29:49.533,0.034,0.058,1.006
2026/05/14 10:29:49.552,0.038,0.059,1.005
2026/05/14 10:29:49.571,0.037,0.054,1.008
2026/05/14 10:29:49.590,0.038,0.055,1.004
2026/05/14 10:29:49.609,0.035,0.06,1.004
2026/05/14 10:29:49.628,0.034,0.053,1.001
2026/05/14 10:29:49.647,0.035,0.056,1.003
2026/05/14 10:29:49.666,0.032,0.058,1.002
2026/05/14 10:29:49.685,0.035,0.06,0.998
2026/05/14 10:29:49.703,0.039,0.056,1.004
2026/05/14 10:29:49.722,0.037,0.056,0.999
2026/05/14 10:29:49.741,0.034,0.057,1.003
