Timestamp,ACC X,ACC Y,ACC Z
2026/05/14 10:30:47.152,0.016,-0.006,0.997
2026/05/14 10:30:47.171,0.018,-0.004,0.995
2026/05/14 10:30:47.191,0.014,0.0,0.994
2026/05/14 10:30:47.210,0.015,-0.005,0.996
2026/05/14 10:30:47.229,0.013,-0.005,0.998
2026/05/14 10:30:47.248,0.015,-0.002,0.995
2026/05/14 10:30:47.268,0.012,-0.006,0.995
2026/05/14 10:30:47.287,0.017,-0.01,0.997
2026/05/14 10:30:47.306,0.019,-0.001,0.996
2026/05/14 10:30:47.325,0.019,0.002,0.999
2026/05/14 10:30:47.345,0.019,0.0,0.998
2026/05/14 10:30:47.364,0.017,-0.001,0.998
2026/05/14 10:30:47.383,0.017,-0.003,0.994
2026/05/14 10:30:47.402,0.019,-0.002,0.994
2026/05/14 10:30:47.421,0.014,-0.001,0.998
2026/05/14 10:30:47.441,0.013,-0.002,0.996
2026/05/14 10:30:47.460,0.012,-0.005,0.999
2026/05/14 10:30:47.479,0.016,-0.004,1.0
2026/05/14 10:30:47.498,0.015,-0.007,1.002
2026/05/14 10:30:47.518,0.017,-0.003,0.998
2026/05/14 10:30:47.537,0.018,-0.002,0.999
2026/05/14 10:30:47.556,0.016,-0.003,1.001
2026/05/14 10:30:47.575,0.02,-0.003,1.001
2026/05/14 10:30:47.595,0.017,0.001,1.0
2026/05/14 10:30:47.614,0.015,0.002,0.998
2026/05/14 10:30:47.633,0.018,-0.004,0.998
2026/05/14 10:30:47.652,0.014,0.003,1.0
2026/05/14 10:30:47.671,0.014,-0.003,0.997
2026/05/14 10:30:47.691,0.018,-0.001,0.994
2026/05/14 10:30:47.710,0.015,-0.003,0.998
2026/05/14 10:30:47.729,0.014,-0.005,0.998
2026/05/14 10:30:47.748,0.015,-0.003,0.999
2026/05/14 10:30:47.768,0.016,-0.005,1.001
2026/05/14 10:30:47.787,0.016,-0.005,1.0
2026/05/14 10:30:47.806,0.014,-0.003,0.999
2026/05/14 10:30:47.825,0.016,-0.003,1.001
2026/05/14 10:30:47.845,0.019,-0.004,0.995
2026/05/14 10:30:47.864,0.012,-0.004,1.002
2026/05/14 10:30:47.883,0.012,-0.002,0.998
2026/05/14 10:30:47.902,0.015,-0.005,0.999
2026/05/14 10:30:47.921,0.015,-0.005,1.0
2026/05/14 10:30:47.941,0.016,-0.005,0.998
2026/05/14 10:30:47.960,0.017,-0.003,0.999
2026/05/14 10:30:47.979,0.017,-0.004,0.997
2026/05/14 10:30:47.998,0.013,-0.008,1.001
2026/05/14 10:30:48.018,0.012,-0.005,0.996
2026/05/14 10:30:48.037,0.018,-0.001,0.998
2026/05/14 10:30:48.056,0.018,-0.006,0.999
2026/05/14 10:30:48.075,0.014,-0.008,1.0
2026/05/14 10:30:48.095,0.013,-0.002,0.996
2026/05/14 10:30:48.114,0.013,-0.003,1.0
2026/05/14 10:30:48.133,0.014,-0.002,0.999
2026/05/14 10:30:48.152,0.015,-0.002,1.001
2026/05/14 10:30:48.171,0.016,-0.004,0.998
2026/05/14 10:30:48.191,0.013,-0.004,0.999
2026/05/14 10:30:48.210,0.013,-0.006,0.996
2026/05/14 10:30:48.229,0.015,-0.004,1.0
2026/05/14 10:30:48.248,0.013,-0.006,0.998
2026/05/14 10:30:48.268,0.013,-0.006,0.997
2026/05/14 10:30:48.287,0.014,-0.007,0.999
2026/05/14 10:30:48.306,0.013,-0.001,0.997
2026/05/14 10:30:48.325,0.014,-0.001,1.001
2026/05/14 10:30:48.345,0.015,-0.001,0.996
2026/05/14 10:30:48.364,0.016,-0.001,0.999
2026/05/14 10:30:48.383,0.014,-0.007,1.0
2026/05/14 10:30:48.402,0.017,-0.004,0.998
2026/05/14 10:30:48.421,0.018,-0.006,0.999
2026/05/14 10:30:48.441,0.015,-0.004,0.999
2026/05/14 10:30:48.460,0.014,-0.004,0.997
2026/05/14 10:30:48.479,0.016,-0.005,1.003
2026/05/14 10:30:48.498,0.017,-0.004,0.998
2026/05/14 10:30:48.518,0.013,-0.007,0.997
2026/05/14 10:30:48.537,0.014,-0.003,0.998
2026/05/14 10:30:48.556,0.015,-0.004,0.997
2026/05/14 10:30:48.575,0.014,-0.001,0.999
2026/05/14 10:30:48.595,0.016,-0.001,0.998
2026/05/14 10:30:48.614,0.014,-0.002,0.999
2026/05/14 10:30:48.633,0.014,-0.002,0.999
2026/05/14 10:30:48.652,0.017,-0.003,1.0
2026/05/14 10:30:48.671,0.016,-0.006,0.999
2026/05/14 10:30:48.691,0.015,-0.004,1.0
2026/05/14 10:30:48.710,0.016,-0.004,0.998
2026/05/14 10:30:48.729,0.013,-0.004,0.999
2026/05/14 10:30:48.748,0.016,-0.005,0.997
2026/05/14 10:30:48.768,0.016,-0.008,1.001
2026/05/14 10:30:48.787,0.019,-0.005,1.0
2026/05/14 10:30:48.806,0.015,0.002,0.996
2026/05/14 10:30:48.825,0.018,-0.005,1.005
2026/05/14 10:30:48.845,0.016,-0.002,0.997
2026/05/14 10:30:48.864,0.017,-0.007,0.995
2026/05/14 10:30:48.883,0.013,-0.004,0.999
2026/05/14 10:30:48.902,0.01,-0.003,0.996
2026/05/14 10:30:48.921,0.015,-0.003,1.0
2026/05/14 10:30:48.941,0.016,-0.005,1.001
2026/05/14 10:30:48.960,0.015,-0.006,1.001
2026/05/14 10:30:48.979,0.017,-0.005,1.001
2026/05/14 10:30:48.998,0.018,-0.001,0.999
2026/05/14 10:30:49.018,-0.014,-0.172,0.803
2026/05/14 10:30:49.037,0.001,0.055,0.733
2026/05/14 10:30:49.056,0.09,0.092,1.119
2026/05/14 10:30:49.075,0.127,0.067,1.164
2026/05/14 10:30:49.095,0.246,0.092,0.922
2026/05/14 10:30:49.114,0.109,0.0,0.833
2026/05/14 10:30:49.133,0.022,-0.017,1.012
2026/05/14 10:30:49.152,0.034,-0.075,0.922
2026/05/14 10:30:49.171,-0.014,-0.032,0.956
2026/05/14 10:30:49.191,-0.05,-0.047,0.956
2026/05/14 10:30:49.210,-0.028,-0.031,0.997
2026/05/14 10:30:49.229,-0.002,-0.027,0.979
2026/05/14 10:30:49.248,0.003,0.011,0.956
2026/05/14 10:30:49.268,0.012,0.01,1.0
2026/05/14 10:30:49.287,0.024,0.006,0.993
2026/05/14 10:30:49.306,0.04,0.003,1.015
2026/05/14 10:30:49.325,0.045,0.009,1.001
2026/05/14 10:30:49.345,0.036,0.019,0.96
2026/05/14 10:30:49.364,0.025,0.037,1.003
2026/05/14 10:30:49.384,0.015,0.027,1.014
2026/05/14 10:30:49.403,0.004,0.007,1.0
2026/05/14 10:30:49.423,0.005,-0.018,1.022
2026/05/14 10:30:49.443,0.007,-0.026,0.995
2026/05/14 10:30:49.463,0.014,-0.034,1.01
2026/05/14 10:30:49.482,0.017,-0.037,1.008
2026/05/14 10:30:49.502,0.013,-0.032,0.995
2026/05/14 10:30:49.522,0.006,-0.019,1.004
2026/05/14 10:30:49.542,0.004,-0.005,1.001
2026/05/14 10:30:49.561,0.01,0.003,1.004
2026/05/14 10:30:49.581,0.018,0.016,0.998
2026/05/14 10:30:49.601,0.025,0.023,0.992
2026/05/14 10:30:49.621,0.03,0.017,1.002
2026/05/14 10:30:49.640,0.025,0.012,1.004
2026/05/14 10:30:49.660,0.022,0.007,0.995
2026/05/14 10:30:49.680,0.016,0.003,0.998
2026/05/14 10:30:49.700,0.01,-0.001,0.996
2026/05/14 10:30:49.719,0.009,-0.008,0.998
2026/05/14 10:30:49.739,0.007,-0.014,0.998
2026/05/14 10:30:49.759,0.008,-0.021,0.99
2026/05/14 10:30:49.779,0.005,-0.024,0.999
2026/05/14 10:30:49.798,0.012,-0.023,0.998
2026/05/14 10:30:49.818,0.016,-0.007,0.994
2026/05/14 10:30:49.838,0.019,0.006,0.997
2026/05/14 10:30:49.858,0.025,0.017,1.0
2026/05/14 10:30:49.877,0.027,0.015,1.001
2026/05/14 10:30:49.897,0.022,0.007,0.996
2026/05/14 10:30:49.917,0.019,0.007,0.991
2026/05/14 10:30:49.937,0.016,0.007,0.997
2026/05/14 10:30:49.956,0.014,0.004,0.999
2026/05/14 10:30:49.976,0.015,-0.006,0.997
2026/05/14 10:30:49.996,0.015,-0.015,0.999
2026/05/14 10:30:50.016,0.012,-0.023,1.0
2026/05/14 10:30:50.036,0.008,-0.024,0.998
2026/05/14 10:30:50.055,0.01,-0.016,1.001
2026/05/14 10:30:50.075,0.009,-0.006,0.997
2026/05/14 10:30:50.095,0.013,0.002,0.999
2026/05/14 10:30:50.115,0.02,0.007,1.0
2026/05/14 10:30:50.134,0.024,0.003,1.001
2026/05/14 10:30:50.154,0.022,0.007,0.996
2026/05/14 10:30:50.174,0.025,0.005,0.997
2026/05/14 10:30:50.194,0.022,0.001,0.997
2026/05/14 10:30:50.213,0.017,0.002,1.001
2026/05/14 10:30:50.233,0.007,-0.002,0.997
2026/05/14 10:30:50.253,0.008,-0.012,0.999
2026/05/14 10:30:50.273,0.008,-0.014,1.002
2026/05/14 10:30:50.292,0.011,-0.022,0.997
2026/05/14 10:30:50.312,0.012,-0.013,0.998
2026/05/14 10:30:50.332,0.017,-0.007,1.002
2026/05/14 10:30:50.352,0.016,-0.001,0.998
2026/05/14 10:30:50.371,0.016,0.002,0.995
2026/05/14 10:30:50.391,0.022,0.005,0.997
2026/05/14 10:30:50.411,0.02,0.006,0.994
2026/05/14 10:30:50.431,0.021,0.004,0.996
2026/05/14 10:30:50.450,0.018,0.001,0.998
2026/05/14 10:30:50.470,0.014,-0.003,0.997
2026/05/14 10:30:50.490,0.013,-0.007,0.999
2026/05/14 10:30:50.510,0.008,-0.012,1.0
2026/05/14 10:30:50.529,0.009,-0.015,1.0
2026/05/14 10:30:50.549,0.01,-0.01,0.995
2026/05/14 10:30:50.569,-0.072,0.042,0.853
2026/05/14 10:30:50.589,0.079,-0.042,0.768
2026/05/14 10:30:50.608,0.018,-0.001,1.0
2026/05/14 10:30:50.628,0.035,-0.006,1.019
2026/05/14 10:30:50.648,0.034,0.003,1.031
2026/05/14 10:30:50.668,0.02,0.003,0.992
2026/05/14 10:30:50.687,0.017,-0.001,1.016
2026/05/14 10:30:50.707,-0.003,0.001,0.991
2026/05/14 10:30:50.727,0.005,-0.001,1.0
2026/05/14 10:30:50.747,0.003,0.001,0.958
2026/05/14 10:30:50.767,0.016,-0.028,1.1
2026/05/14 10:30:50.786,0.049,-0.005,1.079
2026/05/14 10:30:50.806,0.024,-0.018,1.022
2026/05/14 10:30:50.826,-0.018,-0.015,0.747
2026/05/14 10:30:50.846,-0.134,0.083,1.103
2026/05/14 10:30:50.865,0.016,-0.007,0.968
2026/05/14 10:30:50.885,0.017,0.027,1.017
2026/05/14 10:30:50.905,0.028,-0.002,1.012
2026/05/14 10:30:50.925,0.023,-0.004,0.999
2026/05/14 10:30:50.944,0.016,-0.004,0.979
2026/05/14 10:30:50.964,0.013,-0.009,0.994
2026/05/14 10:30:50.984,0.015,-0.005,0.999
2026/05/14 10:30:51.004,0.014,-0.011,0.992
2026/05/14 10:30:51.023,0.007,-0.013,0.994
2026/05/14 10:30:51.043,0.01,-0.015,0.999
2026/05/14 10:30:51.063,0.01,-0.01,1.006
2026/05/14 10:30:51.083,0.002,0.003,0.98
2026/05/14 10:30:51.102,0.027,0.005,0.996
2026/05/14 10:30:51.122,0.021,0.007,1.005
2026/05/14 10:30:51.142,0.032,0.011,1.008
2026/05/14 10:30:51.162,0.008,0.001,0.98
2026/05/14 10:30:51.181,0.012,0.001,1.002
2026/05/14 10:30:51.201,0.03,0.01,0.979
2026/05/14 10:30:51.221,0.006,0.0,0.995
2026/05/14 10:30:51.241,0.016,-0.009,0.996
2026/05/14 10:30:51.260,0.012,-0.009,0.991
2026/05/14 10:30:51.280,0.015,-0.012,0.998
2026/05/14 10:30:51.300,0.013,-0.007,0.994
2026/05/14 10:30:51.320,0.012,-0.008,0.954
2026/05/14 10:30:51.339,0.011,0.002,0.996
2026/05/14 10:30:51.359,0.015,-0.005,1.002
2026/05/14 10:30:51.379,0.016,-0.002,0.998
2026/05/14 10:30:51.399,0.018,0.002,0.992
2026/05/14 10:30:51.418,0.02,0.001,0.999
2026/05/14 10:30:51.438,0.019,-0.001,0.995
2026/05/14 10:30:51.458,0.018,0.003,0.997
2026/05/14 10:30:51.478,0.014,0.001,1.0
2026/05/14 10:30:51.498,0.01,-0.006,1.001
2026/05/14 10:30:51.517,0.008,-0.008,1.002
2026/05/14 10:30:51.537,0.014,-0.008,1.001
2026/05/14 10:30:51.557,0.015,-0.008,1.002
2026/05/14 10:30:51.577,0.017,-0.007,1.005
2026/05/14 10:30:51.596,0.016,-0.005,1.0
2026/05/14 10:30:51.616,0.016,-0.002,1.0
2026/05/14 10:30:51.636,0.016,0.001,0.999
2026/05/14 10:30:51.656,0.013,0.001,0.997
2026/05/14 10:30:51.675,0.016,0.005,1.001
2026/05/14 10:30:51.695,0.022,-0.002,0.989
2026/05/14 10:30:51.715,0.008,0.003,0.982
2026/05/14 10:30:51.735,0.019,-0.012,0.985
2026/05/14 10:30:51.754,0.014,-0.011,0.994
2026/05/14 10:30:51.774,0.016,-0.008,0.999
2026/05/14 10:30:51.794,0.013,-0.009,0.996
2026/05/14 10:30:51.814,-0.004,0.031,0.968
2026/05/14 10:30:51.833,0.04,-0.005,1.02
2026/05/14 10:30:51.853,0.001,0.002,0.986
2026/05/14 10:30:51.873,-0.009,0.014,0.997
2026/05/14 10:30:51.893,0.027,-0.007,1.018
2026/05/14 10:30:51.912,0.017,-0.005,0.979
2026/05/14 10:30:51.932,0.013,0.013,1.003
2026/05/14 10:30:51.952,0.012,0.001,1.017
2026/05/14 10:30:51.972,-0.002,-0.009,1.014
2026/05/14 10:30:51.991,-0.005,0.002,0.985
2026/05/14 10:30:52.011,0.037,-0.013,0.986
2026/05/14 10:30:52.031,-0.007,0.033,0.969
2026/05/14 10:30:52.051,0.02,0.008,0.984
2026/05/14 10:30:52.070,0.009,0.004,0.986
2026/05/14 10:30:52.090,0.016,0.002,1.004
2026/05/14 10:30:52.110,0.017,-0.001,0.996
2026/05/14 10:30:52.130,0.018,0.0,0.997
2026/05/14 10:30:52.149,0.017,-0.001,1.01
2026/05/14 10:30:52.169,0.022,0.005,0.99
2026/05/14 10:30:52.189,0.053,-0.036,1.097
2026/05/14 10:30:52.209,0.003,-0.037,0.948
2026/05/14 10:30:52.229,0.012,0.022,1.024
2026/05/14 10:30:52.248,0.031,-0.027,1.019
2026/05/14 10:30:52.268,0.031,-0.038,1.01
2026/05/14 10:30:52.288,0.002,0.012,0.975
2026/05/14 10:30:52.308,-0.024,-0.224,0.918
2026/05/14 10:30:52.327,0.034,0.002,1.02
2026/05/14 10:30:52.347,0.012,-0.002,1.016
2026/05/14 10:30:52.367,0.017,0.004,1.007
2026/05/14 10:30:52.387,0.012,0.006,1.022
2026/05/14 10:30:52.406,0.044,-0.038,1.07
2026/05/14 10:30:52.426,0.005,-0.06,1.214
2026/05/14 10:30:52.446,0.008,0.027,1.021
2026/05/14 10:30:52.466,0.008,0.0,0.975
2026/05/14 10:30:52.485,-0.006,0.001,0.977
2026/05/14 10:30:52.505,0.01,-0.007,0.975
2026/05/14 10:30:52.525,0.02,-0.011,0.967
2026/05/14 10:30:52.545,-0.33,0.288,1.271
2026/05/14 10:30:52.564,0.028,-0.035,1.054
2026/05/14 10:30:52.584,0.004,0.003,0.989
2026/05/14 10:30:52.604,0.023,-0.003,0.993
2026/05/14 10:30:52.624,0.017,0.007,0.997
2026/05/14 10:30:52.643,0.019,0.008,0.99
2026/05/14 10:30:52.663,0.019,0.006,0.999
2026/05/14 10:30:52.683,0.021,0.008,0.994
2026/05/14 10:30:52.703,0.023,0.0,1.004
2026/05/14 10:30:52.722,0.019,-0.009,0.994
2026/05/14 10:30:52.742,0.013,-0.017,0.997
2026/05/14 10:30:52.762,0.006,-0.017,0.998
2026/05/14 10:30:52.782,0.009,-0.019,1.0
2026/05/14 10:30:52.801,0.01,-0.01,1.004
2026/05/14 10:30:52.821,0.012,-0.006,0.996
2026/05/14 10:30:52.841,0.019,-0.004,0.996
2026/05/14 10:30:52.861,0.021,0.005,1.0
2026/05/14 10:30:52.880,0.024,0.005,0.999
2026/05/14 10:30:52.900,0.025,0.003,1.001
2026/05/14 10:30:52.920,0.019,0.007,1.003
2026/05/14 10:30:52.940,0.016,0.001,1.0
2026/05/14 10:30:52.960,0.011,0.001,0.998
2026/05/14 10:30:52.979,0.014,-0.008,0.992
2026/05/14 10:30:52.999,0.008,-0.014,1.003
2026/05/14 10:30:53.019,0.018,-0.018,0.969
2026/05/14 10:30:53.039,0.005,-0.003,0.997
2026/05/14 10:30:53.058,0.127,-0.051,0.998
2026/05/14 10:30:53.078,0.015,0.009,1.004
2026/05/14 10:30:53.098,0.012,0.002,0.998
2026/05/14 10:30:53.118,0.032,0.003,0.993
2026/05/14 10:30:53.137,0.012,0.006,0.998
2026/05/14 10:30:53.157,0.028,0.003,0.998
2026/05/14 10:30:53.177,0.022,0.0,0.992
2026/05/14 10:30:53.197,0.007,0.037,1.059
2026/05/14 10:30:53.216,0.004,-0.004,1.018
2026/05/14 10:30:53.236,-0.005,-0.007,1.041
2026/05/14 10:30:53.256,-0.036,0.024,1.039
2026/05/14 10:30:53.276,0.389,0.06,1.223
2026/05/14 10:30:53.295,-0.169,-0.027,0.634
2026/05/14 10:30:53.315,-0.08,-0.013,0.481
2026/05/14 10:30:53.335,0.039,0.013,0.905
2026/05/14 10:30:53.355,0.026,0.001,1.002
2026/05/14 10:30:53.374,0.014,0.005,1.088
2026/05/14 10:30:53.394,0.036,0.004,1.012
2026/05/14 10:30:53.414,0.03,-0.015,1.046
2026/05/14 10:30:53.434,0.038,0.009,1.053
2026/05/14 10:30:53.453,0.02,-0.033,1.028
2026/05/14 10:30:53.473,0.019,0.02,1.048
2026/05/14 10:30:53.493,0.055,-0.034,1.037
2026/05/14 10:30:53.513,0.008,0.0,1.022
2026/05/14 10:30:53.532,-0.057,-0.031,1.054
2026/05/14 10:30:53.552,0.054,0.016,1.111
2026/05/14 10:30:53.572,0.016,-0.024,1.003
2026/05/14 10:30:53.592,0.042,0.023,0.977
2026/05/14 10:30:53.612,0.047,-0.038,1.028
2026/05/14 10:30:53.631,0.013,0.016,1.007
2026/05/14 10:30:53.651,0.015,-0.007,1.0
2026/05/14 10:30:53.671,0.017,0.0,1.003
2026/05/14 10:30:53.691,0.02,-0.003,0.994
2026/05/14 10:30:53.710,0.015,-0.003,1.0
2026/05/14 10:30:53.730,0.015,-0.004,1.001
2026/05/14 10:30:53.750,0.011,-0.006,0.999
2026/05/14 10:30:53.770,0.015,-0.008,0.993
2026/05/14 10:30:53.789,0.015,-0.003,1.0
2026/05/14 10:30:53.809,0.016,-0.001,0.997
2026/05/14 10:30:53.829,0.02,0.001,0.994
2026/05/14 10:30:53.849,0.017,-0.001,0.997
2026/05/14 10:30:53.868,0.019,0.002,1.001
2026/05/14 10:30:53.888,0.017,-0.001,1.003
2026/05/14 10:30:53.908,0.018,-0.004,0.996
2026/05/14 10:30:53.928,0.014,-0.004,0.995
2026/05/14 10:30:53.947,0.015,-0.006,0.999
2026/05/14 10:30:53.967,0.012,-0.004,0.998
2026/05/14 10:30:53.987,0.012,-0.003,0.985
2026/05/14 10:30:54.007,0.009,-0.004,1.001
2026/05/14 10:30:54.026,-0.054,0.118,0.897
2026/05/14 10:30:54.046,0.043,-0.003,1.157
2026/05/14 10:30:54.066,0.031,-0.024,0.99
2026/05/14 10:30:54.086,0.033,-0.027,0.977
2026/05/14 10:30:54.105,0.015,0.0,0.986
2026/05/14 10:30:54.125,0.004,-0.002,0.997
2026/05/14 10:30:54.145,-0.001,0.006,0.981
2026/05/14 10:30:54.165,-0.005,0.006,0.989
2026/05/14 10:30:54.184,0.007,0.002,1.002
2026/05/14 10:30:54.204,0.019,-0.002,1.001
2026/05/14 10:30:54.224,0.033,-0.006,0.994
2026/05/14 10:30:54.244,0.031,-0.01,0.993
2026/05/14 10:30:54.264,0.026,-0.003,0.994
2026/05/14 10:30:54.283,0.015,-0.007,0.995
2026/05/14 10:30:54.303,0.024,-0.02,1.183
2026/05/14 10:30:54.323,0.016,-0.037,0.986
2026/05/14 10:30:54.343,0.002,0.009,0.994
2026/05/14 10:30:54.362,0.015,-0.004,0.993
2026/05/14 10:30:54.382,0.02,-0.008,1.007
2026/05/14 10:30:54.402,0.026,-0.01,0.999
2026/05/14 10:30:54.422,0.025,-0.006,1.003
2026/05/14 10:30:54.441,0.022,0.001,1.003
2026/05/14 10:30:54.461,0.014,0.006,0.997
2026/05/14 10:30:54.481,0.01,0.007,0.991
2026/05/14 10:30:54.501,0.01,0.004,0.993
2026/05/14 10:30:54.520,-0.007,0.016,1.146
2026/05/14 10:30:54.540,0.03,-0.035,1.036
2026/05/14 10:30:54.560,0.04,-0.026,0.988
2026/05/14 10:30:54.580,0.007,-0.008,1.018
2026/05/14 10:30:54.599,0.009,-0.013,1.018
2026/05/14 10:30:54.619,0.014,-0.004,0.996
2026/05/14 10:30:54.639,0.009,-0.004,0.99
2026/05/14 10:30:54.659,0.011,-0.001,1.023
2026/05/14 10:30:54.678,0.013,-0.001,1.014
2026/05/14 10:30:54.698,0.026,0.003,0.997
2026/05/14 10:30:54.718,0.026,0.0,0.993
2026/05/14 10:30:54.738,0.025,-0.015,0.762
2026/05/14 10:30:54.757,0.0,-0.023,0.947
2026/05/14 10:30:54.777,-0.011,0.012,1.035
2026/05/14 10:30:54.797,0.007,-0.015,1.065
2026/05/14 10:30:54.817,0.038,-0.004,1.011
2026/05/14 10:30:54.836,0.024,-0.026,1.028
2026/05/14 10:30:54.856,0.141,-0.111,1.135
2026/05/14 10:30:54.876,0.29,-0.038,0.631
2026/05/14 10:30:54.896,0.046,-0.053,1.101
2026/05/14 10:30:54.915,-0.01,-0.017,1.029
2026/05/14 10:30:54.935,-0.048,0.033,1.121
2026/05/14 10:30:54.955,0.013,0.008,1.131
2026/05/14 10:30:54.975,0.101,0.054,1.097
2026/05/14 10:30:54.995,0.15,0.012,0.977
2026/05/14 10:30:55.014,0.122,-0.054,0.955
2026/05/14 10:30:55.034,0.05,0.077,0.909
2026/05/14 10:30:55.054,-0.026,0.037,0.89
2026/05/14 10:30:55.074,-0.042,0.04,0.838
2026/05/14 10:30:55.093,0.023,-0.066,0.838
2026/05/14 10:30:55.113,0.082,0.019,0.955
2026/05/14 10:30:55.133,0.043,0.116,1.026
2026/05/14 10:30:55.153,-0.077,0.103,1.061
2026/05/14 10:30:55.172,0.018,0.11,0.954
2026/05/14 10:30:55.192,-0.132,-0.207,0.619
2026/05/14 10:30:55.212,-0.05,-0.005,0.359
2026/05/14 10:30:55.232,0.311,-0.07,1.343
2026/05/14 10:30:55.251,-0.008,-0.027,1.017
2026/05/14 10:30:55.271,0.03,-0.049,1.211
2026/05/14 10:30:55.291,0.074,-0.007,1.064
2026/05/14 10:30:55.311,0.014,0.012,1.224
2026/05/14 10:30:55.330,0.0,-0.007,1.125
2026/05/14 10:30:55.350,0.021,0.011,1.007
2026/05/14 10:30:55.370,0.072,0.071,0.896
2026/05/14 10:30:55.390,0.094,0.103,0.706
2026/05/14 10:30:55.409,0.052,0.025,0.675
2026/05/14 10:30:55.429,0.05,0.072,0.736
2026/05/14 10:30:55.449,0.07,0.066,0.86
2026/05/14 10:30:55.469,0.104,0.005,1.024
2026/05/14 10:30:55.488,0.005,0.122,0.96
2026/05/14 10:30:55.508,-0.002,-0.01,0.028
2026/05/14 10:30:55.528,-0.12,-0.06,0.577
2026/05/14 10:30:55.548,0.965,-0.772,3.827
2026/05/14 10:30:55.567,0.217,0.239,1.264
2026/05/14 10:30:55.587,-0.135,-0.17,1.254
2026/05/14 10:30:55.607,-0.086,0.137,1.056
2026/05/14 10:30:55.627,0.081,-0.041,1.206
2026/05/14 10:30:55.646,0.16,0.014,0.594
2026/05/14 10:30:55.666,-0.004,0.012,0.795
2026/05/14 10:30:55.686,0.086,0.133,0.767
2026/05/14 10:30:55.706,0.014,0.23,0.863
2026/05/14 10:30:55.726,0.177,0.102,0.724
2026/05/14 10:30:55.745,0.138,0.005,0.668
2026/05/14 10:30:55.765,0.057,0.035,0.887
2026/05/14 10:30:55.785,-0.008,-0.011,-0.015
2026/05/14 10:30:55.805,-1.274,0.583,2.561
2026/05/14 10:30:55.824,-0.164,0.155,1.025
2026/05/14 10:30:55.844,0.13,-0.312,1.228
2026/05/14 10:30:55.864,0.114,-0.06,1.225
2026/05/14 10:30:55.884,0.133,0.011,0.84
2026/05/14 10:30:55.903,0.078,-0.151,1.504
2026/05/14 10:30:55.923,-0.139,-0.064,1.052
2026/05/14 10:30:55.943,0.001,-0.062,0.955
2026/05/14 10:30:55.963,0.027,0.101,0.705
2026/05/14 10:30:55.982,0.096,0.05,0.526
2026/05/14 10:30:56.002,0.067,0.056,0.608
2026/05/14 10:30:56.022,0.157,0.079,0.663
2026/05/14 10:30:56.042,0.125,0.026,0.985
2026/05/14 10:30:56.061,0.143,0.054,0.914
2026/05/14 10:30:56.081,-4.125,2.684,0.218
2026/05/14 10:30:56.101,-0.01,-0.032,0.014
2026/05/14 10:30:56.121,0.02,-0.148,0.057
2026/05/14 10:30:56.140,-0.491,-1.713,7.367
2026/05/14 10:30:56.160,-0.091,-0.03,0.23
2026/05/14 10:30:56.180,-0.006,-0.088,0.22
2026/05/14 10:30:56.200,0.386,0.268,1.047
2026/05/14 10:30:56.219,0.047,-0.136,1.144
2026/05/14 10:30:56.239,0.095,-0.065,0.917
2026/05/14 10:30:56.259,0.077,-0.012,0.667
2026/05/14 10:30:56.279,0.073,0.039,0.756
2026/05/14 10:30:56.298,0.14,0.116,0.706
2026/05/14 10:30:56.318,0.165,0.037,0.741
2026/05/14 10:30:56.338,0.07,0.025,0.758
2026/05/14 10:30:56.358,-1.814,0.281,7.41
2026/05/14 10:30:56.377,-0.009,-0.017,0.01
2026/05/14 10:30:56.397,0.001,-0.067,0.018
2026/05/14 10:30:56.417,-0.41,-0.527,2.719
2026/05/14 10:30:56.437,0.091,-0.163,0.743
2026/05/14 10:30:56.456,0.03,-0.024,0.772
2026/05/14 10:30:56.476,0.189,-0.349,1.622
2026/05/14 10:30:56.496,-0.067,-0.234,1.055
2026/05/14 10:30:56.516,0.285,0.025,0.753
2026/05/14 10:30:56.535,0.114,0.157,0.675
2026/05/14 10:30:56.555,-0.005,-0.013,0.835
2026/05/14 10:30:56.575,0.082,0.029,0.833
2026/05/14 10:30:56.595,0.111,0.17,0.548
2026/05/14 10:30:56.614,0.085,0.017,0.967
2026/05/14 10:30:56.634,-0.031,-0.036,0.009
2026/05/14 10:30:56.654,-0.129,0.299,0.382
2026/05/14 10:30:56.674,-0.006,-0.021,0.029
2026/05/14 10:30:56.694,-0.279,-0.252,0.318
2026/05/14 10:30:56.713,-0.1,0.474,0.844
2026/05/14 10:30:56.733,-0.249,0.246,0.451
2026/05/14 10:30:56.753,-0.023,-0.021,1.107
2026/05/14 10:30:56.773,0.086,-0.068,1.084
2026/05/14 10:30:56.792,-0.001,-0.024,1.048
2026/05/14 10:30:56.812,-0.036,0.07,0.828
2026/05/14 10:30:56.832,0.048,0.075,0.919
2026/05/14 10:30:56.852,0.025,0.007,1.03
2026/05/14 10:30:56.871,0.04,0.002,0.995
2026/05/14 10:30:56.891,0.031,-0.006,0.976
2026/05/14 10:30:56.911,0.011,-0.002,1.01
2026/05/14 10:30:56.931,-0.006,0.012,0.983
2026/05/14 10:30:56.950,-0.013,0.028,0.992
2026/05/14 10:30:56.970,-0.005,-0.021,1.026
2026/05/14 10:30:56.990,-0.01,-0.042,1.021
2026/05/14 10:30:57.010,-0.021,-0.071,1.016
2026/05/14 10:30:57.029,-0.014,-0.045,0.981
2026/05/14 10:30:57.049,-0.002,-0.044,1.017
2026/05/14 10:30:57.069,0.002,-0.026,1.012
2026/05/14 10:30:57.089,0.006,-0.007,1.01
2026/05/14 10:30:57.108,0.027,0.019,0.987
2026/05/14 10:30:57.128,0.011,0.004,0.995
2026/05/14 10:30:57.148,-0.002,0.001,0.994
2026/05/14 10:30:57.168,0.007,0.002,0.986
2026/05/14 10:30:57.187,0.02,0.015,0.983
2026/05/14 10:30:57.207,0.009,0.005,1.004
2026/05/14 10:30:57.227,0.012,-0.004,0.995
2026/05/14 10:30:57.247,0.005,-0.011,0.969
2026/05/14 10:30:57.266,-0.004,-0.04,1.004
2026/05/14 10:30:57.286,-0.006,-0.039,0.991
2026/05/14 10:30:57.306,-0.02,-0.046,1.004
2026/05/14 10:30:57.326,-0.009,-0.028,1.0
2026/05/14 10:30:57.345,-0.006,-0.013,0.991
2026/05/14 10:30:57.365,-0.003,-0.009,1.0
2026/05/14 10:30:57.385,0.009,-0.006,0.999
2026/05/14 10:30:57.405,0.022,0.0,0.987
2026/05/14 10:30:57.424,0.021,0.002,0.995
2026/05/14 10:30:57.444,0.015,0.004,0.999
2026/05/14 10:30:57.464,0.017,0.003,0.988
2026/05/14 10:30:57.484,0.002,0.001,0.992
2026/05/14 10:30:57.503,-0.003,-0.014,0.993
2026/05/14 10:30:57.523,-0.007,-0.024,0.997
2026/05/14 10:30:57.543,-0.004,-0.025,0.996
2026/05/14 10:30:57.563,-0.012,-0.041,1.006
2026/05/14 10:30:57.582,-0.006,-0.034,1.001
2026/05/14 10:30:57.602,-0.004,-0.026,0.995
2026/05/14 10:30:57.622,-0.002,-0.016,0.997
2026/05/14 10:30:57.642,-0.002,-0.013,0.998
2026/05/14 10:30:57.661,0.001,-0.002,0.999
2026/05/14 10:30:57.681,0.027,0.009,0.988
2026/05/14 10:30:57.701,0.012,0.0,1.005
2026/05/14 10:30:57.721,0.008,-0.005,1.001
2026/05/14 10:30:57.740,0.01,-0.002,0.993
2026/05/14 10:30:57.760,0.009,-0.01,0.996
2026/05/14 10:30:57.780,-0.001,-0.014,1.001
2026/05/14 10:30:57.800,-0.007,-0.026,1.001
2026/05/14 10:30:57.819,-0.002,-0.026,0.993
2026/05/14 10:30:57.839,-0.016,-0.032,1.005
2026/05/14 10:30:57.859,-0.007,-0.027,1.001
2026/05/14 10:30:57.879,-0.001,-0.021,1.0
2026/05/14 10:30:57.899,0.001,-0.015,0.999
2026/05/14 10:30:57.918,0.001,-0.006,1.0
2026/05/14 10:30:57.938,0.021,0.001,0.989
2026/05/14 10:30:57.958,0.01,-0.004,0.995
2026/05/14 10:30:57.978,0.003,-0.005,1.001
2026/05/14 10:30:57.997,0.006,-0.006,0.995
2026/05/14 10:30:58.017,0.012,-0.004,0.992
2026/05/14 10:30:58.037,-0.001,-0.01,0.996
2026/05/14 10:30:58.057,-0.001,-0.019,0.998
2026/05/14 10:30:58.076,-0.01,-0.033,1.004
2026/05/14 10:30:58.096,-0.004,-0.029,1.0
2026/05/14 10:30:58.116,-0.008,-0.03,1.001
2026/05/14 10:30:58.136,-0.001,-0.022,0.997
2026/05/14 10:30:58.155,0.0,-0.014,0.999
2026/05/14 10:30:58.175,0.001,-0.008,0.998
2026/05/14 10:30:58.195,0.009,-0.001,0.994
2026/05/14 10:30:58.215,0.01,-0.005,1.0
2026/05/14 10:30:58.234,0.005,-0.011,0.999
2026/05/14 10:30:58.254,0.007,-0.008,1.003
2026/05/14 10:30:58.274,0.011,-0.005,0.996
2026/05/14 10:30:58.294,0.007,-0.012,1.0
2026/05/14 10:30:58.313,0.0,-0.017,1.002
2026/05/14 10:30:58.333,-0.016,-0.031,1.012
2026/05/14 10:30:58.353,-0.001,-0.023,0.997
2026/05/14 10:30:58.373,-0.003,-0.022,0.999
2026/05/14 10:30:58.392,-0.003,-0.019,0.999
2026/05/14 10:30:58.412,-0.001,-0.014,1.003
2026/05/14 10:30:58.432,0.001,-0.011,1.0
2026/05/14 10:30:58.452,0.01,-0.008,0.996
2026/05/14 10:30:58.471,0.009,-0.007,0.998
2026/05/14 10:30:58.491,0.007,-0.007,1.001
2026/05/14 10:30:58.511,0.007,-0.007,0.999
2026/05/14 10:30:58.531,0.009,-0.01,0.995
2026/05/14 10:30:58.550,0.002,-0.015,0.998
2026/05/14 10:30:58.570,0.002,-0.02,0.997
2026/05/14 10:30:58.590,-0.005,-0.023,1.0
2026/05/14 10:30:58.610,-0.005,-0.025,0.998
2026/05/14 10:30:58.629,-0.003,-0.02,0.999
2026/05/14 10:30:58.649,0.001,-0.017,0.999
2026/05/14 10:30:58.669,0.001,-0.013,0.999
2026/05/14 10:30:58.689,0.005,-0.012,0.999
2026/05/14 10:30:58.708,0.009,-0.008,0.998
2026/05/14 10:30:58.728,0.011,-0.005,0.997
2026/05/14 10:30:58.748,0.01,-0.007,0.997
2026/05/14 10:30:58.768,0.005,-0.01,0.998
2026/05/14 10:30:58.787,0.005,-0.011,1.002
2026/05/14 10:30:58.807,0.005,-0.016,0.998
2026/05/14 10:30:58.827,-0.002,-0.016,0.998
2026/05/14 10:30:58.847,-0.004,-0.023,0.999
2026/05/14 10:30:58.866,-0.004,-0.02,1.001
2026/05/14 10:30:58.886,-0.001,-0.019,1.0
2026/05/14 10:30:58.906,0.0,-0.015,0.997
2026/05/14 10:30:58.926,0.001,-0.013,1.002
2026/05/14 10:30:58.946,0.002,-0.011,0.999
2026/05/14 10:30:58.965,0.009,-0.013,1.0
2026/05/14 10:30:58.985,0.009,-0.008,0.997
2026/05/14 10:30:59.005,0.005,-0.012,1.002
2026/05/14 10:30:59.025,0.005,-0.01,0.997
2026/05/14 10:30:59.044,0.003,-0.014,0.996
2026/05/14 10:30:59.064,0.0,-0.013,1.0
2026/05/14 10:30:59.084,-0.002,-0.018,0.993
2026/05/14 10:30:59.104,-0.002,-0.012,0.999
2026/05/14 10:30:59.123,-0.003,-0.02,1.004
2026/05/14 10:30:59.143,-0.004,-0.017,1.004
2026/05/14 10:30:59.163,-0.005,-0.013,0.995
2026/05/14 10:30:59.183,-0.004,-0.014,0.989
2026/05/14 10:30:59.202,0.021,-0.011,0.997
2026/05/14 10:30:59.222,0.043,-0.01,0.992
2026/05/14 10:30:59.242,0.01,-0.034,0.994
2026/05/14 10:30:59.262,-0.007,-0.032,0.991
2026/05/14 10:30:59.281,-0.031,-0.045,1.029
2026/05/14 10:30:59.301,-0.01,-0.005,0.985
2026/05/14 10:30:59.321,-0.021,0.011,0.993
2026/05/14 10:30:59.341,-0.005,0.02,1.025
2026/05/14 10:30:59.360,0.043,0.026,0.972
2026/05/14 10:30:59.380,0.018,-0.012,1.001
2026/05/14 10:30:59.400,0.021,-0.022,1.009
2026/05/14 10:30:59.420,0.027,-0.023,0.993
2026/05/14 10:30:59.439,0.007,-0.012,0.996
2026/05/14 10:30:59.459,-0.012,-0.012,0.996
2026/05/14 10:30:59.479,-0.016,-0.008,0.993
2026/05/14 10:30:59.499,-0.017,-0.014,0.994
2026/05/14 10:30:59.518,-0.007,-0.028,0.994
2026/05/14 10:30:59.538,0.005,-0.04,0.999
2026/05/14 10:30:59.558,0.006,-0.033,0.995
2026/05/14 10:30:59.578,0.006,-0.022,1.003
2026/05/14 10:30:59.597,0.016,-0.005,1.007
2026/05/14 10:30:59.617,0.022,0.013,0.982
2026/05/14 10:30:59.637,0.002,-0.004,1.0
2026/05/14 10:30:59.657,-0.005,-0.004,1.002
2026/05/14 10:30:59.676,0.0,-0.012,1.005
2026/05/14 10:30:59.696,0.0,-0.002,0.99
2026/05/14 10:30:59.716,0.002,0.004,0.995
2026/05/14 10:30:59.736,0.012,-0.006,1.003
2026/05/14 10:30:59.755,0.016,-0.02,1.005
2026/05/14 10:30:59.775,0.012,-0.025,0.994
2026/05/14 10:30:59.795,0.002,-0.031,0.997
2026/05/14 10:30:59.815,0.002,-0.039,0.993
2026/05/14 10:30:59.834,-0.009,-0.021,0.994
2026/05/14 10:30:59.854,-0.007,-0.014,0.996
2026/05/14 10:30:59.874,-0.012,-0.01,0.994
2026/05/14 10:30:59.894,-0.001,-0.014,0.998
2026/05/14 10:30:59.914,0.011,-0.018,1.003
2026/05/14 10:30:59.933,0.018,-0.009,0.994
2026/05/14 10:30:59.953,0.016,-0.007,0.996
2026/05/14 10:30:59.973,0.009,-0.007,1.003
2026/05/14 10:30:59.993,0.002,-0.003,0.995
2026/05/14 10:31:00.012,0.0,0.001,0.989
2026/05/14 10:31:00.032,-0.002,-0.013,0.995
2026/05/14 10:31:00.052,-0.007,-0.027,1.011
2026/05/14 10:31:00.072,0.0,-0.017,0.999
2026/05/14 10:31:00.091,0.005,-0.015,0.989
2026/05/14 10:31:00.111,0.004,-0.02,1.004
2026/05/14 10:31:00.131,0.005,-0.027,0.999
2026/05/14 10:31:00.151,0.0,-0.02,0.997
2026/05/14 10:31:00.170,-0.006,-0.014,1.002
2026/05/14 10:31:00.190,-0.004,-0.018,1.001
2026/05/14 10:31:00.210,-0.003,-0.009,0.997
2026/05/14 10:31:00.230,0.006,-0.002,1.003
2026/05/14 10:31:00.249,0.012,-0.005,0.986
2026/05/14 10:31:00.269,0.011,-0.011,0.999
2026/05/14 10:31:00.289,0.006,-0.013,0.998
2026/05/14 10:31:00.309,0.006,-0.008,0.998
2026/05/14 10:31:00.328,0.006,-0.011,0.993
2026/05/14 10:31:00.348,0.002,-0.009,0.995
2026/05/14 10:31:00.368,-0.006,-0.016,0.999
2026/05/14 10:31:00.388,-0.015,-0.029,1.003
2026/05/14 10:31:00.407,-0.002,-0.025,0.998
2026/05/14 10:31:00.427,0.001,-0.024,0.999
2026/05/14 10:31:00.447,0.003,-0.017,0.997
2026/05/14 10:31:00.467,0.004,-0.015,1.004
2026/05/14 10:31:00.486,0.004,-0.009,0.996
2026/05/14 10:31:00.506,0.005,-0.006,0.998
2026/05/14 10:31:00.526,0.009,-0.008,0.996
2026/05/14 10:31:00.546,0.004,-0.011,0.996
2026/05/14 10:31:00.565,0.002,-0.011,0.999
2026/05/14 10:31:00.585,0.001,-0.006,1.001
2026/05/14 10:31:00.605,0.009,-0.007,0.995
2026/05/14 10:31:00.625,0.007,-0.011,0.996
2026/05/14 10:31:00.644,0.007,-0.014,0.996
2026/05/14 10:31:00.664,-0.001,-0.023,1.005
2026/05/14 10:31:00.684,0.001,-0.022,0.999
2026/05/14 10:31:00.704,0.0,-0.025,1.001
2026/05/14 10:31:00.723,-0.005,-0.018,0.998
2026/05/14 10:31:00.743,0.003,-0.016,0.998
2026/05/14 10:31:00.763,0.002,-0.012,0.999
2026/05/14 10:31:00.783,0.004,-0.015,0.997
2026/05/14 10:31:00.802,0.004,-0.011,1.001
2026/05/14 10:31:00.822,0.006,-0.009,0.996
2026/05/14 10:31:00.842,0.009,-0.006,0.991
2026/05/14 10:31:00.862,0.003,-0.01,1.0
2026/05/14 10:31:00.882,-0.004,-0.008,1.0
2026/05/14 10:31:00.901,-0.001,-0.014,0.997
2026/05/14 10:31:00.921,-0.001,-0.014,0.997
2026/05/14 10:31:00.941,0.003,-0.017,1.0
2026/05/14 10:31:00.961,0.0,-0.015,1.001
2026/05/14 10:31:00.980,0.004,-0.02,0.996
2026/05/14 10:31:01.000,0.005,-0.02,0.997
2026/05/14 10:31:01.020,-0.002,-0.016,0.999
2026/05/14 10:31:01.040,0.0,-0.016,0.998
2026/05/14 10:31:01.059,-0.003,-0.013,0.999
2026/05/14 10:31:01.079,0.001,-0.011,0.999
2026/05/14 10:31:01.099,0.002,-0.012,1.0
2026/05/14 10:31:01.119,0.007,-0.006,0.998
2026/05/14 10:31:01.138,0.008,-0.009,0.998
2026/05/14 10:31:01.158,0.01,-0.011,0.999
2026/05/14 10:31:01.178,0.001,-0.01,0.999
2026/05/14 10:31:01.198,0.004,-0.014,1.0
2026/05/14 10:31:01.217,0.002,-0.014,0.996
2026/05/14 10:31:01.237,0.0,-0.017,0.996
2026/05/14 10:31:01.257,0.002,-0.015,0.996
2026/05/14 10:31:01.277,0.0,-0.019,0.997
2026/05/14 10:31:01.296,0.0,-0.019,0.994
2026/05/14 10:31:01.316,0.003,-0.018,0.998
2026/05/14 10:31:01.336,-0.001,-0.014,1.001
2026/05/14 10:31:01.356,0.0,-0.016,0.996
2026/05/14 10:31:01.375,0.001,-0.012,0.997
2026/05/14 10:31:01.395,0.002,-0.009,0.999
2026/05/14 10:31:01.415,0.003,-0.01,0.993
2026/05/14 10:31:01.435,0.003,-0.016,1.0
2026/05/14 10:31:01.454,0.005,-0.013,0.998
2026/05/14 10:31:01.474,0.004,-0.011,0.998
2026/05/14 10:31:01.494,0.002,-0.013,0.998
2026/05/14 10:31:01.514,-0.001,-0.015,1.001
2026/05/14 10:31:01.533,0.002,-0.011,1.002
2026/05/14 10:31:01.553,0.003,-0.017,0.999
2026/05/14 10:31:01.573,-0.003,-0.016,1.001
2026/05/14 10:31:01.593,-0.001,-0.016,0.996
2026/05/14 10:31:01.612,0.002,-0.015,0.998
2026/05/14 10:31:01.632,0.002,-0.016,0.995
2026/05/14 10:31:01.652,0.003,-0.015,0.998
2026/05/14 10:31:01.672,0.002,-0.009,0.999
2026/05/14 10:31:01.691,0.002,-0.007,0.997
2026/05/14 10:31:01.711,0.002,-0.011,1.002
2026/05/14 10:31:01.731,0.001,-0.013,0.994
2026/05/14 10:31:01.751,0.001,-0.007,0.995
2026/05/14 10:31:01.771,0.003,-0.015,1.0
2026/05/14 10:31:01.790,0.002,-0.015,1.0
2026/05/14 10:31:01.810,0.002,-0.008,0.997
2026/05/14 10:31:01.830,0.004,-0.016,0.998
2026/05/14 10:31:01.850,0.0,-0.018,0.997
2026/05/14 10:31:01.869,0.001,-0.019,1.002
2026/05/14 10:31:01.889,0.0,-0.012,0.996
2026/05/14 10:31:01.909,0.001,-0.017,0.999
2026/05/14 10:31:01.929,0.001,-0.017,0.999
2026/05/14 10:31:01.948,0.003,-0.015,0.999
2026/05/14 10:31:01.968,0.004,-0.015,0.995
2026/05/14 10:31:01.988,0.001,-0.013,0.996
2026/05/14 10:31:02.008,0.002,-0.015,0.999
2026/05/14 10:31:02.027,0.007,-0.012,0.998
2026/05/14 10:31:02.047,0.001,-0.014,0.996
2026/05/14 10:31:02.067,0.001,-0.012,0.995
2026/05/14 10:31:02.087,-0.001,-0.017,0.998
2026/05/14 10:31:02.106,0.001,-0.017,0.999
2026/05/14 10:31:02.126,-0.003,-0.014,0.997
2026/05/14 10:31:02.146,0.002,-0.017,1.0
2026/05/14 10:31:02.166,0.0,-0.014,1.0
2026/05/14 10:31:02.185,0.0,-0.016,1.0
2026/05/14 10:31:02.205,0.005,-0.014,0.999
2026/05/14 10:31:02.225,0.001,-0.015,1.0
2026/05/14 10:31:02.245,0.006,-0.01,0.999
2026/05/14 10:31:02.264,0.001,-0.015,0.998
2026/05/14 10:31:02.284,0.005,-0.012,0.998
2026/05/14 10:31:02.304,0.004,-0.013,1.0
2026/05/14 10:31:02.324,0.002,-0.012,0.998
2026/05/14 10:31:02.343,0.007,-0.014,0.995
2026/05/14 10:31:02.363,-0.001,-0.015,0.999
2026/05/14 10:31:02.383,-0.002,-0.016,1.0
2026/05/14 10:31:02.403,0.0,-0.012,0.996
2026/05/14 10:31:02.422,0.002,-0.011,0.997
2026/05/14 10:31:02.442,0.005,-0.015,0.999
2026/05/14 10:31:02.462,0.003,-0.012,1.002
2026/05/14 10:31:02.482,0.001,-0.014,1.002
2026/05/14 10:31:02.501,-0.001,-0.015,1.004
2026/05/14 10:31:02.521,0.003,-0.018,0.998
2026/05/14 10:31:02.541,0.002,-0.015,0.999
2026/05/14 10:31:02.561,0.005,-0.014,1.0
2026/05/14 10:31:02.580,0.002,-0.01,0.995
2026/05/14 10:31:02.600,0.005,-0.015,0.997
2026/05/14 10:31:02.620,-0.001,-0.012,1.001
2026/05/14 10:31:02.640,0.0,-0.017,0.996
2026/05/14 10:31:02.660,0.0,-0.014,0.997
2026/05/14 10:31:02.679,-0.002,-0.017,0.999
2026/05/14 10:31:02.699,0.002,-0.012,0.997
2026/05/14 10:31:02.719,0.003,-0.017,1.0
2026/05/14 10:31:02.739,0.003,-0.015,0.999
2026/05/14 10:31:02.758,0.005,-0.016,0.997
2026/05/14 10:31:02.778,0.003,-0.018,0.999
2026/05/14 10:31:02.798,0.003,-0.011,0.997
2026/05/14 10:31:02.818,-0.003,-0.017,0.995
2026/05/14 10:31:02.837,0.001,-0.011,0.996
2026/05/14 10:31:02.857,0.002,-0.012,0.998
2026/05/14 10:31:02.877,0.001,-0.012,1.003
2026/05/14 10:31:02.897,0.004,-0.016,0.998
2026/05/14 10:31:02.916,0.006,-0.017,0.999
2026/05/14 10:31:02.936,0.0,-0.014,0.997
2026/05/14 10:31:02.956,0.002,-0.014,0.998
2026/05/14 10:31:02.976,0.005,-0.016,0.997
2026/05/14 10:31:02.995,0.005,-0.014,0.997
2026/05/14 10:31:03.015,0.003,-0.015,0.998
2026/05/14 10:31:03.035,0.004,-0.016,0.997
2026/05/14 10:31:03.055,-0.001,-0.014,0.999
2026/05/14 10:31:03.074,0.004,-0.012,0.999
2026/05/14 10:31:03.094,-0.001,-0.013,0.999
2026/05/14 10:31:03.114,0.004,-0.015,0.998
2026/05/14 10:31:03.134,0.003,-0.015,0.997
2026/05/14 10:31:03.153,0.001,-0.016,1.0
2026/05/14 10:31:03.173,0.005,-0.012,0.998
2026/05/14 10:31:03.193,0.0,-0.016,0.997
2026/05/14 10:31:03.213,-0.001,-0.014,0.997
2026/05/14 10:31:03.232,0.002,-0.013,0.999
2026/05/14 10:31:03.252,0.0,-0.02,0.997
2026/05/14 10:31:03.272,0.002,-0.014,0.999
2026/05/14 10:31:03.292,-0.002,-0.019,1.001
2026/05/14 10:31:03.311,0.004,-0.019,1.0
2026/05/14 10:31:03.331,0.006,-0.013,1.002
2026/05/14 10:31:03.351,0.003,-0.014,0.998
2026/05/14 10:31:03.371,0.001,-0.015,0.995
2026/05/14 10:31:03.390,0.003,-0.015,0.996
2026/05/14 10:31:03.410,0.003,-0.013,0.999
2026/05/14 10:31:03.430,0.002,-0.011,0.999
2026/05/14 10:31:03.450,0.006,-0.016,0.998
2026/05/14 10:31:03.469,-0.001,-0.016,0.997
2026/05/14 10:31:03.489,0.0,-0.012,0.998
2026/05/14 10:31:03.509,0.002,-0.015,1.0
2026/05/14 10:31:03.529,0.003,-0.014,0.995
2026/05/14 10:31:03.549,0.0,-0.014,0.997
2026/05/14 10:31:03.568,0.003,-0.016,1.0
2026/05/14 10:31:03.588,0.002,-0.015,0.997
2026/05/14 10:31:03.608,0.003,-0.015,1.0
2026/05/14 10:31:03.628,-0.001,-0.016,0.995
2026/05/14 10:31:03.647,0.006,-0.014,0.997
2026/05/14 10:31:03.667,0.002,-0.015,1.001
2026/05/14 10:31:03.687,0.0,-0.015,0.997
2026/05/14 10:31:03.707,-0.001,-0.012,0.999
2026/05/14 10:31:03.726,0.005,-0.013,0.998
2026/05/14 10:31:03.746,0.004,-0.016,1.005
2026/05/14 10:31:03.766,-0.001,-0.016,0.996
2026/05/14 10:31:03.786,0.004,-0.016,1.002
2026/05/14 10:31:03.805,0.001,-0.015,0.996
2026/05/14 10:31:03.825,-0.002,-0.015,0.998
2026/05/14 10:31:03.845,-0.001,-0.015,0.995
2026/05/14 10:31:03.865,0.002,-0.013,0.998
2026/05/14 10:31:03.884,0.004,-0.015,0.998
2026/05/14 10:31:03.904,0.0,-0.011,1.002
2026/05/14 10:31:03.924,0.006,-0.012,0.997
2026/05/14 10:31:03.944,0.003,-0.015,1.0
2026/05/14 10:31:03.963,0.007,-0.018,0.996
2026/05/14 10:31:03.983,-0.001,-0.015,0.998
2026/05/14 10:31:04.003,0.003,-0.013,0.998
2026/05/14 10:31:04.023,0.001,-0.013,0.996
2026/05/14 10:31:04.042,0.001,-0.014,0.996
2026/05/14 10:31:04.062,0.004,-0.016,0.997
2026/05/14 10:31:04.082,-0.002,-0.014,0.998
2026/05/14 10:31:04.102,0.002,-0.013,0.999
2026/05/14 10:31:04.121,0.003,-0.011,0.996
2026/05/14 10:31:04.141,0.005,-0.016,0.998
2026/05/14 10:31:04.161,0.003,-0.015,1.0
2026/05/14 10:31:04.181,0.004,-0.012,0.998
2026/05/14 10:31:04.200,0.002,-0.019,0.999
2026/05/14 10:31:04.220,0.0,-0.009,0.998
2026/05/14 10:31:04.240,0.002,-0.014,1.003
2026/05/14 10:31:04.260,0.005,-0.015,0.996
2026/05/14 10:31:04.279,0.002,-0.015,0.998
2026/05/14 10:31:04.299,0.003,-0.013,0.997
2026/05/14 10:31:04.319,0.002,-0.014,1.0
2026/05/14 10:31:04.339,0.001,-0.016,1.001
2026/05/14 10:31:04.358,0.001,-0.014,0.996
2026/05/14 10:31:04.378,-0.001,-0.014,0.998
2026/05/14 10:31:04.398,0.002,-0.015,0.999
2026/05/14 10:31:04.418,0.0,-0.014,0.999
2026/05/14 10:31:04.438,0.006,-0.011,0.997
2026/05/14 10:31:04.457,0.002,-0.011,1.001
2026/05/14 10:31:04.477,0.004,-0.013,0.999
2026/05/14 10:31:04.497,0.0,-0.013,0.998
2026/05/14 10:31:04.517,0.002,-0.011,1.0
2026/05/14 10:31:04.536,0.003,-0.011,0.999
2026/05/14 10:31:04.556,0.003,-0.015,1.0
2026/05/14 10:31:04.576,0.002,-0.015,1.0
2026/05/14 10:31:04.596,0.003,-0.018,0.999
2026/05/14 10:31:04.615,0.005,-0.014,0.996
2026/05/14 10:31:04.635,0.001,-0.017,0.996
2026/05/14 10:31:04.655,-0.001,-0.013,0.997
2026/05/14 10:31:04.675,0.003,-0.013,1.0
2026/05/14 10:31:04.694,0.002,-0.013,0.996
2026/05/14 10:31:04.714,0.002,-0.014,0.999
2026/05/14 10:31:04.734,0.005,-0.014,0.998
2026/05/14 10:31:04.754,0.004,-0.014,0.998
2026/05/14 10:31:04.773,0.003,-0.013,1.0
2026/05/14 10:31:04.793,0.0,-0.014,0.999
2026/05/14 10:31:04.813,0.0,-0.013,0.997
2026/05/14 10:31:04.833,0.005,-0.013,1.001
2026/05/14 10:31:04.852,0.001,-0.017,0.998
2026/05/14 10:31:04.872,0.003,-0.011,0.997
2026/05/14 10:31:04.892,0.004,-0.011,0.997
2026/05/14 10:31:04.912,0.002,-0.018,1.003
2026/05/14 10:31:04.931,-0.002,-0.011,0.999
2026/05/14 10:31:04.951,0.002,-0.013,1.002
2026/05/14 10:31:04.971,0.005,-0.011,0.995
2026/05/14 10:31:04.991,0.0,-0.014,1.001
2026/05/14 10:31:05.010,0.004,-0.015,1.001
2026/05/14 10:31:05.030,-0.001,-0.015,0.999
2026/05/14 10:31:05.050,0.002,-0.017,0.997
2026/05/14 10:31:05.070,0.002,-0.015,0.995
2026/05/14 10:31:05.089,0.0,-0.01,1.0
2026/05/14 10:31:05.109,0.004,-0.013,0.994
2026/05/14 10:31:05.129,0.003,-0.01,0.993
2026/05/14 10:31:05.149,0.006,-0.011,0.998
2026/05/14 10:31:05.168,0.002,-0.011,1.0
2026/05/14 10:31:05.188,0.003,-0.016,0.999
2026/05/14 10:31:05.208,0.002,-0.018,1.001
2026/05/14 10:31:05.228,-0.001,-0.015,0.999
2026/05/14 10:31:05.247,-0.001,-0.014,1.0
2026/05/14 10:31:05.267,0.004,-0.014,1.0
2026/05/14 10:31:05.287,0.004,-0.017,0.997
2026/05/14 10:31:05.307,-0.001,-0.015,0.999
2026/05/14 10:31:05.327,0.001,-0.015,0.995
2026/05/14 10:31:05.346,0.0,-0.014,0.997
2026/05/14 10:31:05.366,0.001,-0.016,1.002
2026/05/14 10:31:05.386,-0.001,-0.014,0.996
2026/05/14 10:31:05.406,-0.001,-0.013,1.0
2026/05/14 10:31:05.425,0.001,-0.012,0.997
2026/05/14 10:31:05.445,0.002,-0.016,1.0
2026/05/14 10:31:05.465,0.001,-0.015,0.996
2026/05/14 10:31:05.485,0.008,-0.019,1.003
2026/05/14 10:31:05.504,-0.001,-0.014,0.993
2026/05/14 10:31:05.524,0.004,-0.013,0.994
2026/05/14 10:31:05.544,0.001,-0.015,1.001
2026/05/14 10:31:05.564,0.003,-0.018,0.997
2026/05/14 10:31:05.583,0.006,-0.013,1.001
2026/05/14 10:31:05.603,0.002,-0.014,0.997
2026/05/14 10:31:05.623,0.002,-0.011,0.999
2026/05/14 10:31:05.643,0.002,-0.011,0.997
2026/05/14 10:31:05.662,0.003,-0.015,0.996
2026/05/14 10:31:05.682,-0.001,-0.014,1.001
2026/05/14 10:31:05.702,0.007,-0.011,0.998
2026/05/14 10:31:05.722,0.006,-0.018,0.998
2026/05/14 10:31:05.741,0.002,-0.016,0.998
2026/05/14 10:31:05.761,0.006,-0.014,0.996
2026/05/14 10:31:05.781,0.001,-0.015,0.998
2026/05/14 10:31:05.801,0.002,-0.017,0.997
2026/05/14 10:31:05.820,-0.001,-0.013,1.002
2026/05/14 10:31:05.840,0.002,-0.015,0.998
2026/05/14 10:31:05.860,0.001,-0.017,0.999
2026/05/14 10:31:05.880,0.003,-0.014,0.997
2026/05/14 10:31:05.899,0.003,-0.011,0.997
2026/05/14 10:31:05.919,0.004,-0.014,0.997
2026/05/14 10:31:05.939,0.003,-0.014,0.999
2026/05/14 10:31:05.959,-0.001,-0.018,0.995
2026/05/14 10:31:05.978,0.001,-0.011,0.999
2026/05/14 10:31:05.998,0.001,-0.015,0.997
2026/05/14 10:31:06.018,0.002,-0.014,0.998
2026/05/14 10:31:06.038,0.002,-0.012,0.997
2026/05/14 10:31:06.057,0.004,-0.015,0.999
2026/05/14 10:31:06.077,0.004,-0.013,0.999
2026/05/14 10:31:06.097,0.002,-0.017,1.002
2026/05/14 10:31:06.117,0.005,-0.01,0.999
2026/05/14 10:31:06.137,0.004,-0.016,0.998
2026/05/14 10:31:06.156,0.001,-0.013,1.0
2026/05/14 10:31:06.176,-0.001,-0.013,0.999
2026/05/14 10:31:06.196,-0.001,-0.018,0.996
2026/05/14 10:31:06.216,-0.001,-0.012,1.0
2026/05/14 10:31:06.235,0.003,-0.015,0.996
2026/05/14 10:31:06.255,-0.001,-0.013,0.998
2026/05/14 10:31:06.275,0.002,-0.012,0.998
2026/05/14 10:31:06.295,0.002,-0.014,0.997
2026/05/14 10:31:06.314,0.004,-0.013,0.997
2026/05/14 10:31:06.334,0.001,-0.014,1.0
2026/05/14 10:31:06.354,-0.002,-0.017,0.998
2026/05/14 10:31:06.374,0.0,-0.016,0.997
2026/05/14 10:31:06.393,0.003,-0.015,1.0
2026/05/14 10:31:06.413,0.005,-0.021,0.997
2026/05/14 10:31:06.433,0.004,-0.015,0.998
2026/05/14 10:31:06.453,0.001,-0.011,0.995
2026/05/14 10:31:06.472,-0.001,-0.018,0.995
2026/05/14 10:31:06.492,0.002,-0.011,0.999
2026/05/14 10:31:06.512,0.004,-0.014,0.997
2026/05/14 10:31:06.532,0.001,-0.013,1.002
2026/05/14 10:31:06.551,0.0,-0.011,0.996
2026/05/14 10:31:06.571,-0.001,-0.013,0.997
2026/05/14 10:31:06.591,0.0,-0.016,0.997
2026/05/14 10:31:06.611,0.003,-0.012,0.998
2026/05/14 10:31:06.630,0.002,-0.014,0.998
2026/05/14 10:31:06.650,0.007,-0.009,0.996
2026/05/14 10:31:06.670,0.001,-0.014,0.995
2026/05/14 10:31:06.690,0.001,-0.013,0.998
2026/05/14 10:31:06.709,0.003,-0.014,1.0
2026/05/14 10:31:06.729,0.002,-0.016,0.999
2026/05/14 10:31:06.749,0.004,-0.012,0.999
2026/05/14 10:31:06.769,0.002,-0.015,1.0
2026/05/14 10:31:06.788,0.006,-0.014,0.999
2026/05/14 10:31:06.808,0.002,-0.015,0.997
2026/05/14 10:31:06.828,0.001,-0.014,0.999
2026/05/14 10:31:06.848,0.003,-0.01,1.0
2026/05/14 10:31:06.867,0.001,-0.012,1.0
2026/05/14 10:31:06.887,0.005,-0.014,0.997
2026/05/14 10:31:06.907,0.003,-0.011,0.998
2026/05/14 10:31:06.927,0.002,-0.018,1.001
2026/05/14 10:31:06.947,0.003,-0.014,0.997
2026/05/14 10:31:06.966,0.002,-0.01,1.002
2026/05/14 10:31:06.986,0.004,-0.013,0.994
2026/05/14 10:31:07.006,0.002,-0.016,0.999
2026/05/14 10:31:07.026,0.002,-0.017,1.001
2026/05/14 10:31:07.045,0.001,-0.012,0.996
2026/05/14 10:31:07.065,0.0,-0.015,0.998
2026/05/14 10:31:07.085,0.003,-0.017,0.998
2026/05/14 10:31:07.105,0.001,-0.014,0.999
2026/05/14 10:31:07.124,0.003,-0.013,0.994
2026/05/14 10:31:07.144,-0.003,-0.016,0.997
2026/05/14 10:31:07.164,0.002,-0.014,0.994
2026/05/14 10:31:07.184,0.005,-0.014,0.998
2026/05/14 10:31:07.203,0.003,-0.014,0.998
2026/05/14 10:31:07.223,0.007,-0.019,0.997
2026/05/14 10:31:07.243,0.0,-0.015,0.997
2026/05/14 10:31:07.263,0.001,-0.015,0.996
2026/05/14 10:31:07.282,-0.001,-0.013,1.002
2026/05/14 10:31:07.302,0.004,-0.011,0.997
2026/05/14 10:31:07.322,0.0,-0.013,0.997
2026/05/14 10:31:07.342,0.003,-0.01,1.0
2026/05/14 10:31:07.361,-0.001,-0.009,0.998
2026/05/14 10:31:07.381,0.004,-0.013,1.002
2026/05/14 10:31:07.401,0.0,-0.009,0.999
2026/05/14 10:31:07.421,0.002,-0.015,0.999
2026/05/14 10:31:07.440,-0.002,-0.014,0.997
2026/05/14 10:31:07.460,-0.001,-0.013,0.996
2026/05/14 10:31:07.480,0.004,-0.016,0.998
2026/05/14 10:31:07.500,0.003,-0.017,0.999
2026/05/14 10:31:07.519,0.003,-0.011,1.0
2026/05/14 10:31:07.539,0.0,-0.014,0.997
2026/05/14 10:31:07.559,0.004,-0.014,1.001
2026/05/14 10:31:07.579,0.003,-0.015,1.002
2026/05/14 10:31:07.598,0.0,-0.018,0.998
2026/05/14 10:31:07.618,-0.001,-0.014,0.995
2026/05/14 10:31:07.638,0.004,-0.014,1.001
2026/05/14 10:31:07.658,0.002,-0.012,0.998
2026/05/14 10:31:07.678,0.006,-0.015,0.996
2026/05/14 10:31:07.697,0.001,-0.014,1.001
2026/05/14 10:31:07.717,0.005,-0.015,0.995
2026/05/14 10:31:07.737,0.004,-0.016,0.997
2026/05/14 10:31:07.757,0.002,-0.011,0.998
2026/05/14 10:31:07.776,-0.001,-0.016,1.0
2026/05/14 10:31:07.796,0.002,-0.012,0.997
2026/05/14 10:31:07.816,0.0,-0.016,0.999
2026/05/14 10:31:07.836,0.004,-0.011,0.998
2026/05/14 10:31:07.855,0.005,-0.02,0.998
2026/05/14 10:31:07.875,0.003,-0.015,0.999
2026/05/14 10:31:07.895,0.0,-0.014,0.997
2026/05/14 10:31:07.915,0.003,-0.012,0.999
2026/05/14 10:31:07.934,0.002,-0.018,0.996
2026/05/14 10:31:07.954,0.001,-0.012,0.995
2026/05/14 10:31:07.974,0.001,-0.017,0.994
2026/05/14 10:31:07.994,0.001,-0.011,0.996
2026/05/14 10:31:08.013,0.002,-0.013,0.992
2026/05/14 10:31:08.033,0.003,-0.013,1.001
2026/05/14 10:31:08.053,0.003,-0.015,0.993
2026/05/14 10:31:08.073,0.003,-0.016,1.003
2026/05/14 10:31:08.092,0.002,-0.017,1.003
2026/05/14 10:31:08.112,0.005,-0.009,1.0
2026/05/14 10:31:08.132,0.003,-0.017,1.002
2026/05/14 10:31:08.152,0.007,-0.018,0.998
2026/05/14 10:31:08.171,0.003,-0.013,0.997
2026/05/14 10:31:08.191,0.0,-0.013,1.001
2026/05/14 10:31:08.211,0.002,-0.014,0.998
2026/05/14 10:31:08.231,-0.001,-0.015,0.997
2026/05/14 10:31:08.250,0.002,-0.014,1.0
2026/05/14 10:31:08.270,0.002,-0.017,0.998
2026/05/14 10:31:08.290,0.006,-0.014,0.994
2026/05/14 10:31:08.310,0.001,-0.009,1.001
2026/05/14 10:31:08.329,0.004,-0.016,1.0
2026/05/14 10:31:08.349,-0.001,-0.014,1.0
2026/05/14 10:31:08.369,0.003,-0.008,0.996
2026/05/14 10:31:08.389,0.002,-0.014,0.997
2026/05/14 10:31:08.408,0.006,-0.018,0.997
2026/05/14 10:31:08.428,0.004,-0.012,0.998
2026/05/14 10:31:08.448,0.0,-0.015,0.997
2026/05/14 10:31:08.468,0.001,-0.015,0.998
2026/05/14 10:31:08.488,0.001,-0.016,0.997
2026/05/14 10:31:08.507,0.002,-0.015,0.998
2026/05/14 10:31:08.527,0.002,-0.014,0.999
2026/05/14 10:31:08.547,0.002,-0.011,1.001
2026/05/14 10:31:08.567,0.006,-0.012,0.999
2026/05/14 10:31:08.586,0.003,-0.014,0.995
2026/05/14 10:31:08.606,0.001,-0.01,0.998
2026/05/14 10:31:08.626,0.003,-0.012,0.998
2026/05/14 10:31:08.646,0.005,-0.008,0.999
2026/05/14 10:31:08.665,0.005,-0.014,0.999
2026/05/14 10:31:08.685,0.002,-0.014,0.997
2026/05/14 10:31:08.705,0.001,-0.015,0.998
2026/05/14 10:31:08.725,0.005,-0.012,1.001
2026/05/14 10:31:08.744,0.003,-0.018,0.994
2026/05/14 10:31:08.764,0.003,-0.019,0.998
2026/05/14 10:31:08.784,0.003,-0.014,0.998
2026/05/14 10:31:08.804,0.003,-0.016,0.997
2026/05/14 10:31:08.823,0.003,-0.018,0.997
2026/05/14 10:31:08.843,-0.001,-0.011,0.997
2026/05/14 10:31:08.863,0.003,-0.012,0.998
2026/05/14 10:31:08.883,0.003,-0.015,1.0
2026/05/14 10:31:08.902,0.005,-0.015,0.996
2026/05/14 10:31:08.922,0.003,-0.014,0.998
2026/05/14 10:31:08.942,0.003,-0.015,0.998
2026/05/14 10:31:08.962,0.003,-0.013,0.997
2026/05/14 10:31:08.981,0.0,-0.012,0.999
2026/05/14 10:31:09.001,0.003,-0.012,1.002
2026/05/14 10:31:09.021,0.005,-0.014,1.001
2026/05/14 10:31:09.041,0.004,-0.012,0.997
2026/05/14 10:31:09.060,0.002,-0.015,0.998
2026/05/14 10:31:09.080,0.003,-0.013,0.996
2026/05/14 10:31:09.100,0.006,-0.014,1.0
2026/05/14 10:31:09.120,-0.002,-0.013,1.0
2026/05/14 10:31:09.139,-0.001,-0.015,0.997
2026/05/14 10:31:09.159,0.001,-0.013,0.997
2026/05/14 10:31:09.179,0.005,-0.01,1.001
2026/05/14 10:31:09.199,0.002,-0.011,0.997
2026/05/14 10:31:09.219,0.001,-0.015,0.994
2026/05/14 10:31:09.238,0.002,-0.013,1.0
2026/05/14 10:31:09.258,0.004,-0.014,0.999
2026/05/14 10:31:09.278,0.0,-0.017,0.999
2026/05/14 10:31:09.298,0.0,-0.015,0.997
2026/05/14 10:31:09.317,0.002,-0.014,0.997
2026/05/14 10:31:09.337,0.003,-0.013,1.001
2026/05/14 10:31:09.357,0.001,-0.014,1.0
2026/05/14 10:31:09.377,0.001,0.004,0.948
2026/05/14 10:31:09.396,0.0,0.0,1.018
2026/05/14 10:31:09.416,0.007,-0.006,1.008
2026/05/14 10:31:09.436,0.008,-0.025,1.008
2026/05/14 10:31:09.456,-0.002,-0.022,0.994
2026/05/14 10:31:09.475,0.001,-0.016,1.002
2026/05/14 10:31:09.495,-0.004,-0.015,1.009
2026/05/14 10:31:09.515,0.003,-0.014,1.009
2026/05/14 10:31:09.535,0.009,-0.014,0.998
2026/05/14 10:31:09.554,0.008,-0.016,1.004
2026/05/14 10:31:09.574,0.008,-0.015,1.011
2026/05/14 10:31:09.594,0.007,-0.01,0.995
2026/05/14 10:31:09.614,0.001,-0.004,0.996
2026/05/14 10:31:09.633,0.001,-0.013,0.997
2026/05/14 10:31:09.653,0.006,-0.014,0.998
2026/05/14 10:31:09.673,0.003,-0.011,0.999
2026/05/14 10:31:09.693,0.003,-0.016,0.996
2026/05/14 10:31:09.712,0.004,-0.019,0.997
2026/05/14 10:31:09.732,0.004,-0.015,0.999
2026/05/14 10:31:09.752,0.001,-0.016,0.998
2026/05/14 10:31:09.772,0.0,-0.014,0.998
2026/05/14 10:31:09.791,-0.001,-0.017,0.999
2026/05/14 10:31:09.811,-0.003,-0.016,0.999
2026/05/14 10:31:09.831,0.002,-0.012,0.996
2026/05/14 10:31:09.851,0.004,-0.011,0.997
2026/05/14 10:31:09.870,0.006,-0.014,0.998
2026/05/14 10:31:09.890,0.003,-0.01,0.997
2026/05/14 10:31:09.910,0.006,-0.011,1.002
2026/05/14 10:31:09.930,0.006,-0.012,0.999
2026/05/14 10:31:09.949,-0.001,-0.009,1.002
2026/05/14 10:31:09.969,0.0,-0.013,1.002
2026/05/14 10:31:09.989,-0.002,-0.011,0.998
2026/05/14 10:31:10.009,-0.001,-0.013,0.998
2026/05/14 10:31:10.029,0.004,-0.017,0.996
2026/05/14 10:31:10.048,0.002,-0.019,1.002
2026/05/14 10:31:10.068,0.002,-0.015,1.002
2026/05/14 10:31:10.088,-0.002,-0.014,1.001
2026/05/14 10:31:10.108,0.002,-0.017,0.997
2026/05/14 10:31:10.127,0.0,-0.015,1.001
2026/05/14 10:31:10.147,0.002,-0.009,1.001
2026/05/14 10:31:10.167,0.002,-0.012,0.996
2026/05/14 10:31:10.187,0.004,-0.012,0.997
2026/05/14 10:31:10.206,0.003,-0.011,1.0
2026/05/14 10:31:10.226,0.003,-0.013,0.999
2026/05/14 10:31:10.246,0.001,-0.014,0.997
2026/05/14 10:31:10.266,0.001,-0.016,1.002
2026/05/14 10:31:10.285,0.004,-0.014,0.998
2026/05/14 10:31:10.305,0.002,-0.018,0.996
2026/05/14 10:31:10.325,-0.003,-0.017,1.001
2026/05/14 10:31:10.345,0.003,-0.017,0.998
2026/05/14 10:31:10.364,0.002,-0.015,0.999
2026/05/14 10:31:10.384,0.003,-0.015,0.997
2026/05/14 10:31:10.404,0.004,-0.012,0.999
2026/05/14 10:31:10.424,0.003,-0.011,0.998
2026/05/14 10:31:10.443,0.004,-0.017,0.996
2026/05/14 10:31:10.463,-0.001,-0.013,0.999
2026/05/14 10:31:10.483,0.004,-0.013,0.996
2026/05/14 10:31:10.503,0.002,-0.014,0.998
2026/05/14 10:31:10.522,0.002,-0.013,0.997
2026/05/14 10:31:10.542,0.004,-0.015,0.998
2026/05/14 10:31:10.562,0.003,-0.014,0.998
2026/05/14 10:31:10.582,0.001,-0.019,1.0
2026/05/14 10:31:10.601,0.002,-0.016,0.997
2026/05/14 10:31:10.621,0.001,-0.014,0.998
2026/05/14 10:31:10.641,0.003,-0.016,0.998
2026/05/14 10:31:10.661,-0.002,-0.014,0.997
2026/05/14 10:31:10.680,-0.001,-0.011,1.001
2026/05/14 10:31:10.700,0.004,-0.013,0.997
2026/05/14 10:31:10.720,0.005,-0.015,0.998
2026/05/14 10:31:10.740,0.005,-0.014,0.997
2026/05/14 10:31:10.760,0.002,-0.014,0.998
2026/05/14 10:31:10.779,0.005,-0.011,0.998
2026/05/14 10:31:10.799,0.003,-0.013,1.0
2026/05/14 10:31:10.819,0.003,-0.014,0.997
2026/05/14 10:31:10.839,0.0,-0.016,0.996
2026/05/14 10:31:10.858,0.001,-0.016,1.002
2026/05/14 10:31:10.878,0.003,-0.016,0.993
2026/05/14 10:31:10.898,0.006,-0.015,0.998
2026/05/14 10:31:10.918,-0.001,-0.017,1.001
2026/05/14 10:31:10.937,0.003,-0.014,0.996
2026/05/14 10:31:10.957,0.003,-0.012,0.998
2026/05/14 10:31:10.977,0.006,-0.015,1.0
2026/05/14 10:31:10.997,0.003,-0.013,0.999
2026/05/14 10:31:11.016,0.003,-0.012,0.996
2026/05/14 10:31:11.036,0.006,-0.015,0.997
2026/05/14 10:31:11.056,0.0,-0.013,0.998
2026/05/14 10:31:11.076,0.003,-0.011,1.0
2026/05/14 10:31:11.095,0.002,-0.013,0.997
2026/05/14 10:31:11.115,0.002,-0.014,0.994
2026/05/14 10:31:11.135,0.001,-0.015,0.998
2026/05/14 10:31:11.155,0.002,-0.011,1.0
2026/05/14 10:31:11.174,0.005,-0.014,0.998
2026/05/14 10:31:11.194,0.002,-0.012,1.0
2026/05/14 10:31:11.214,0.002,-0.014,0.998
2026/05/14 10:31:11.234,0.002,-0.016,0.999
2026/05/14 10:31:11.253,0.005,-0.014,0.998
2026/05/14 10:31:11.273,0.001,-0.013,1.001
2026/05/14 10:31:11.293,-0.001,-0.014,1.0
2026/05/14 10:31:11.313,0.003,-0.015,1.001
2026/05/14 10:31:11.332,0.002,-0.017,0.998
2026/05/14 10:31:11.352,0.003,-0.013,1.0
2026/05/14 10:31:11.372,0.005,-0.014,1.002
2026/05/14 10:31:11.392,0.002,-0.012,1.002
2026/05/14 10:31:11.411,0.003,-0.01,0.996
2026/05/14 10:31:11.431,0.003,-0.014,0.996
2026/05/14 10:31:11.451,0.0,-0.01,0.997
2026/05/14 10:31:11.471,0.002,-0.012,1.0
2026/05/14 10:31:11.490,0.004,-0.013,0.997
2026/05/14 10:31:11.510,0.009,-0.015,0.999
2026/05/14 10:31:11.530,0.007,-0.012,1.001
2026/05/14 10:31:11.550,0.004,-0.018,1.001
2026/05/14 10:31:11.569,0.0,-0.021,1.004
2026/05/14 10:31:11.589,-0.004,-0.025,0.995
2026/05/14 10:31:11.609,-0.007,-0.011,0.994
2026/05/14 10:31:11.629,-0.001,-0.017,1.002
2026/05/14 10:31:11.649,-0.005,-0.037,1.034
2026/05/14 10:31:11.668,-0.001,-0.016,0.984
2026/05/14 10:31:11.688,0.015,-0.011,0.997
2026/05/14 10:31:11.708,0.009,-0.019,1.018
2026/05/14 10:31:11.728,0.011,-0.019,1.009
2026/05/14 10:31:11.747,-0.008,-0.014,1.009
2026/05/14 10:31:11.767,-0.001,-0.013,0.994
2026/05/14 10:31:11.787,-0.001,-0.012,0.991
2026/05/14 10:31:11.807,-0.002,-0.015,0.999
2026/05/14 10:31:11.826,0.002,-0.016,0.998
2026/05/14 10:31:11.846,0.005,-0.017,1.001
2026/05/14 10:31:11.866,0.007,-0.015,0.998
2026/05/14 10:31:11.886,0.012,-0.013,0.997
2026/05/14 10:31:11.905,0.003,-0.017,0.993
2026/05/14 10:31:11.925,-0.002,-0.016,1.002
2026/05/14 10:31:11.945,0.167,0.015,1.39
2026/05/14 10:31:11.965,-0.06,-0.276,1.003
2026/05/14 10:31:11.984,0.006,-0.068,0.946
2026/05/14 10:31:12.004,-0.021,-0.022,1.17
2026/05/14 10:31:12.024,-0.042,-0.001,0.981
2026/05/14 10:31:12.044,0.021,-0.03,0.989
2026/05/14 10:31:12.063,0.002,-0.01,1.023
2026/05/14 10:31:12.083,0.008,-0.03,0.992
2026/05/14 10:31:12.103,0.008,-0.007,0.998
2026/05/14 10:31:12.123,0.015,-0.003,0.991
2026/05/14 10:31:12.142,0.016,0.0,1.001
2026/05/14 10:31:12.162,0.014,-0.004,1.015
2026/05/14 10:31:12.182,0.008,-0.001,0.987
2026/05/14 10:31:12.202,0.002,0.009,0.982
2026/05/14 10:31:12.221,-0.004,-0.003,0.994
2026/05/14 10:31:12.241,-0.001,-0.011,1.003
2026/05/14 10:31:12.261,-0.002,-0.032,1.005
2026/05/14 10:31:12.281,0.006,-0.033,0.987
2026/05/14 10:31:12.300,0.007,-0.035,1.018
2026/05/14 10:31:12.320,-0.005,-0.031,0.99
2026/05/14 10:31:12.340,0.0,-0.039,0.98
2026/05/14 10:31:12.360,0.005,-0.022,0.993
2026/05/14 10:31:12.379,-0.016,-0.001,1.005
2026/05/14 10:31:12.399,-0.003,-0.006,0.984
2026/05/14 10:31:12.419,0.008,-0.011,0.994
2026/05/14 10:31:12.439,0.023,-0.004,0.991
2026/05/14 10:31:12.459,0.017,-0.002,0.989
2026/05/14 10:31:12.478,0.005,-0.006,0.989
2026/05/14 10:31:12.498,0.008,-0.004,0.998
2026/05/14 10:31:12.518,0.002,-0.004,0.992
2026/05/14 10:31:12.538,-0.002,-0.01,0.999
2026/05/14 10:31:12.557,-0.008,-0.021,0.994
2026/05/14 10:31:12.577,0.001,-0.025,0.99
2026/05/14 10:31:12.597,-0.01,-0.03,1.004
2026/05/14 10:31:12.617,0.004,-0.031,1.004
2026/05/14 10:31:12.636,-0.005,-0.026,0.994
2026/05/14 10:31:12.656,-0.005,-0.013,0.995
2026/05/14 10:31:12.676,-0.004,-0.014,0.999
2026/05/14 10:31:12.696,0.003,-0.008,1.001
2026/05/14 10:31:12.715,0.007,-0.003,0.992
2026/05/14 10:31:12.735,0.011,0.003,0.998
2026/05/14 10:31:12.755,0.015,-0.006,1.003
2026/05/14 10:31:12.775,0.007,-0.006,0.999
2026/05/14 10:31:12.794,0.003,-0.007,0.998
2026/05/14 10:31:12.814,0.002,-0.011,0.998
2026/05/14 10:31:12.834,-0.001,-0.013,1.0
2026/05/14 10:31:12.854,-0.003,-0.025,1.011
2026/05/14 10:31:12.873,-0.004,-0.024,0.992
2026/05/14 10:31:12.893,-0.002,-0.027,1.001
2026/05/14 10:31:12.913,0.0,-0.022,1.0
2026/05/14 10:31:12.933,-0.006,-0.019,1.001
2026/05/14 10:31:12.952,-0.001,-0.012,1.0
2026/05/14 10:31:12.972,-0.001,-0.016,0.996
2026/05/14 10:31:12.992,0.01,-0.009,1.002
2026/05/14 10:31:13.012,0.015,-0.007,0.997
2026/05/14 10:31:13.031,0.011,-0.004,0.998
2026/05/14 10:31:13.051,0.008,-0.005,0.996
2026/05/14 10:31:13.071,0.004,-0.009,0.999
2026/05/14 10:31:13.091,0.004,-0.01,1.0
2026/05/14 10:31:13.110,0.001,-0.014,0.994
2026/05/14 10:31:13.130,-0.002,-0.019,1.002
2026/05/14 10:31:13.150,-0.004,-0.021,1.005
2026/05/14 10:31:13.170,0.004,-0.022,0.997
2026/05/14 10:31:13.189,-0.001,-0.025,1.0
2026/05/14 10:31:13.209,-0.005,-0.02,0.993
2026/05/14 10:31:13.229,-0.003,-0.015,1.0
2026/05/14 10:31:13.249,-0.003,-0.017,1.002
2026/05/14 10:31:13.269,0.005,-0.015,0.999
2026/05/14 10:31:13.288,0.005,-0.01,0.995
2026/05/14 10:31:13.308,0.009,-0.004,0.996
2026/05/14 10:31:13.328,0.013,-0.005,0.998
2026/05/14 10:31:13.348,0.007,-0.006,1.0
2026/05/14 10:31:13.367,0.001,-0.012,1.002
2026/05/14 10:31:13.387,0.002,-0.01,0.998
2026/05/14 10:31:13.407,0.0,-0.016,0.998
2026/05/14 10:31:13.427,-0.004,-0.021,1.002
2026/05/14 10:31:13.446,-0.003,-0.026,0.999
2026/05/14 10:31:13.466,-0.003,-0.023,1.002
2026/05/14 10:31:13.486,-0.002,-0.022,0.999
2026/05/14 10:31:13.506,0.002,-0.014,0.998
2026/05/14 10:31:13.525,0.0,-0.019,1.0
2026/05/14 10:31:13.545,0.0,-0.016,0.999
2026/05/14 10:31:13.565,0.004,-0.011,0.998
2026/05/14 10:31:13.585,0.006,-0.009,0.999
2026/05/14 10:31:13.604,0.009,-0.006,0.998
2026/05/14 10:31:13.624,0.007,-0.008,0.999
2026/05/14 10:31:13.644,0.001,-0.01,0.999
2026/05/14 10:31:13.664,0.0,-0.014,0.998
2026/05/14 10:31:13.683,0.001,-0.017,1.002
2026/05/14 10:31:13.703,0.0,-0.014,1.0
2026/05/14 10:31:13.723,-0.001,-0.022,0.997
2026/05/14 10:31:13.743,0.0,-0.018,1.0
2026/05/14 10:31:13.762,-0.001,-0.02,1.004
2026/05/14 10:31:13.782,0.001,-0.021,0.998
2026/05/14 10:31:13.802,-0.001,-0.014,1.001
2026/05/14 10:31:13.822,0.0,-0.015,1.002
2026/05/14 10:31:13.841,0.002,-0.011,0.995
2026/05/14 10:31:13.861,0.005,-0.014,0.994
2026/05/14 10:31:13.881,0.007,-0.012,0.996
2026/05/14 10:31:13.901,0.006,-0.006,1.003
2026/05/14 10:31:13.920,0.009,-0.008,0.998
2026/05/14 10:31:13.940,0.0,-0.01,1.0
2026/05/14 10:31:13.960,-0.001,-0.013,1.001
2026/05/14 10:31:13.980,-0.002,-0.016,1.0
2026/05/14 10:31:13.999,-0.001,-0.015,1.0
2026/05/14 10:31:14.019,-0.001,-0.018,0.995
2026/05/14 10:31:14.039,0.001,-0.018,1.004
2026/05/14 10:31:14.059,0.001,-0.02,0.999
2026/05/14 10:31:14.079,-0.001,-0.011,0.999
2026/05/14 10:31:14.098,0.0,-0.013,1.0
2026/05/14 10:31:14.118,0.0,-0.016,0.996
2026/05/14 10:31:14.138,0.002,-0.012,0.997
2026/05/14 10:31:14.158,0.006,-0.01,0.996
2026/05/14 10:31:14.177,0.002,-0.015,1.001
2026/05/14 10:31:14.197,0.002,-0.012,0.996
2026/05/14 10:31:14.217,0.0,-0.01,0.996
2026/05/14 10:31:14.237,-0.005,-0.013,0.997
2026/05/14 10:31:14.256,-0.001,-0.014,0.998
2026/05/14 10:31:14.276,-0.001,-0.018,0.999
2026/05/14 10:31:14.296,0.0,-0.019,0.995
2026/05/14 10:31:14.316,0.0,-0.015,0.998
2026/05/14 10:31:14.335,0.001,-0.014,0.995
2026/05/14 10:31:14.355,-0.002,-0.017,1.0
2026/05/14 10:31:14.375,0.0,-0.015,1.0
2026/05/14 10:31:14.395,0.003,-0.015,0.993
2026/05/14 10:31:14.414,0.001,-0.01,0.999
2026/05/14 10:31:14.434,0.004,-0.01,1.0
2026/05/14 10:31:14.454,0.005,-0.009,0.998
2026/05/14 10:31:14.474,0.002,-0.012,0.997
2026/05/14 10:31:14.493,0.003,-0.013,0.999
2026/05/14 10:31:14.513,0.002,-0.014,0.999
2026/05/14 10:31:14.533,-0.001,-0.018,0.997
2026/05/14 10:31:14.553,-0.002,-0.014,0.996
2026/05/14 10:31:14.572,0.002,-0.02,0.996
2026/05/14 10:31:14.592,-0.004,-0.018,1.0
2026/05/14 10:31:14.612,0.001,-0.02,0.999
2026/05/14 10:31:14.632,-0.003,-0.016,0.998
2026/05/14 10:31:14.651,0.003,-0.011,0.999
2026/05/14 10:31:14.671,0.003,-0.014,0.999
2026/05/14 10:31:14.691,0.001,-0.013,0.999
2026/05/14 10:31:14.711,0.007,-0.011,0.999
2026/05/14 10:31:14.730,0.005,-0.013,0.996
2026/05/14 10:31:14.750,0.005,-0.011,1.002
2026/05/14 10:31:14.770,-0.003,-0.011,0.998
2026/05/14 10:31:14.790,-0.001,-0.013,0.998
2026/05/14 10:31:14.809,0.003,-0.013,0.998
2026/05/14 10:31:14.829,0.0,-0.014,0.998
2026/05/14 10:31:14.849,0.003,-0.019,1.0
2026/05/14 10:31:14.869,0.004,-0.018,1.0
2026/05/14 10:31:14.888,0.002,-0.02,0.999
2026/05/14 10:31:14.908,-0.001,-0.017,0.995
2026/05/14 10:31:14.928,-0.001,-0.016,1.002
2026/05/14 10:31:14.948,-0.001,-0.015,1.002
2026/05/14 10:31:14.968,0.0,-0.01,1.001
2026/05/14 10:31:14.987,-0.001,-0.015,1.003
2026/05/14 10:31:15.007,-0.001,-0.012,0.998
2026/05/14 10:31:15.027,0.005,-0.018,1.0
2026/05/14 10:31:15.047,0.004,-0.016,1.0
2026/05/14 10:31:15.066,0.002,-0.015,0.996
2026/05/14 10:31:15.086,0.001,-0.014,0.999
2026/05/14 10:31:15.106,-0.002,-0.021,0.998
2026/05/14 10:31:15.126,0.001,-0.016,1.002
2026/05/14 10:31:15.145,0.0,-0.018,0.998
2026/05/14 10:31:15.165,0.004,-0.016,0.999
2026/05/14 10:31:15.185,0.003,-0.015,1.0
2026/05/14 10:31:15.205,-0.003,-0.017,0.997
2026/05/14 10:31:15.224,0.0,-0.012,1.0
2026/05/14 10:31:15.244,0.003,-0.012,0.997
2026/05/14 10:31:15.264,0.002,-0.014,0.998
2026/05/14 10:31:15.284,0.004,-0.012,1.0
2026/05/14 10:31:15.303,-0.002,-0.012,0.994
2026/05/14 10:31:15.323,0.002,-0.013,0.998
2026/05/14 10:31:15.343,0.001,-0.014,0.999
2026/05/14 10:31:15.363,0.003,-0.015,1.0
2026/05/14 10:31:15.382,0.0,-0.015,0.999
2026/05/14 10:31:15.402,0.003,-0.02,1.001
2026/05/14 10:31:15.422,0.001,-0.019,0.999
2026/05/14 10:31:15.442,0.003,-0.017,0.994
2026/05/14 10:31:15.461,-0.001,-0.016,0.997
2026/05/14 10:31:15.481,0.003,-0.018,1.0
2026/05/14 10:31:15.501,0.0,-0.013,0.997
2026/05/14 10:31:15.521,0.004,-0.012,0.999
2026/05/14 10:31:15.540,0.0,-0.015,0.999
2026/05/14 10:31:15.560,0.002,-0.013,0.997
2026/05/14 10:31:15.580,0.004,-0.016,0.999
2026/05/14 10:31:15.600,0.001,-0.014,0.995
2026/05/14 10:31:15.619,0.003,-0.016,0.996
2026/05/14 10:31:15.639,0.001,-0.016,0.998
2026/05/14 10:31:15.659,0.0,-0.016,0.997
2026/05/14 10:31:15.679,0.001,-0.015,1.005
2026/05/14 10:31:15.698,0.005,-0.015,1.0
2026/05/14 10:31:15.718,0.002,-0.019,0.997
2026/05/14 10:31:15.738,-0.001,-0.013,0.998
2026/05/14 10:31:15.758,0.001,-0.018,0.997
2026/05/14 10:31:15.778,0.004,-0.015,0.999
2026/05/14 10:31:15.797,0.003,-0.014,0.998
2026/05/14 10:31:15.817,0.004,-0.014,0.999
2026/05/14 10:31:15.837,0.003,-0.012,1.0
2026/05/14 10:31:15.857,0.001,-0.01,0.997
2026/05/14 10:31:15.876,0.004,-0.01,0.995
2026/05/14 10:31:15.896,0.002,-0.012,1.002
2026/05/14 10:31:15.916,0.001,-0.014,0.997
2026/05/14 10:31:15.936,0.001,-0.014,0.999
2026/05/14 10:31:15.955,0.001,-0.017,0.996
2026/05/14 10:31:15.975,0.001,-0.014,0.998
2026/05/14 10:31:15.995,-0.002,-0.014,1.002
2026/05/14 10:31:16.015,0.001,-0.015,0.997
2026/05/14 10:31:16.034,0.0,-0.013,0.997
2026/05/14 10:31:16.054,0.001,-0.016,0.996
2026/05/14 10:31:16.074,0.001,-0.014,0.999
2026/05/14 10:31:16.094,0.003,-0.015,0.999
2026/05/14 10:31:16.113,0.001,-0.017,1.002
2026/05/14 10:31:16.133,0.005,-0.015,1.002
2026/05/14 10:31:16.153,-0.001,-0.013,0.998
2026/05/14 10:31:16.173,0.001,-0.013,1.001
2026/05/14 10:31:16.192,0.003,-0.016,1.001
2026/05/14 10:31:16.212,0.002,-0.014,0.996
2026/05/14 10:31:16.232,0.003,-0.016,0.998
2026/05/14 10:31:16.252,0.0,-0.014,0.997
2026/05/14 10:31:16.271,-0.001,-0.012,0.996
2026/05/14 10:31:16.291,0.001,-0.013,0.998
2026/05/14 10:31:16.311,0.003,-0.01,0.998
2026/05/14 10:31:16.331,0.0,-0.015,0.997
2026/05/14 10:31:16.350,0.002,-0.013,0.994
2026/05/14 10:31:16.370,0.0,-0.015,0.992
2026/05/14 10:31:16.390,0.003,-0.012,1.0
2026/05/14 10:31:16.410,0.0,-0.015,0.998
2026/05/14 10:31:16.429,0.003,-0.011,0.999
2026/05/14 10:31:16.449,-0.001,-0.015,0.998
2026/05/14 10:31:16.469,-0.001,-0.016,0.997
2026/05/14 10:31:16.489,0.002,-0.015,1.0
2026/05/14 10:31:16.509,0.003,-0.013,1.001
2026/05/14 10:31:16.528,-0.001,-0.014,0.993
2026/05/14 10:31:16.548,0.0,-0.015,0.999
2026/05/14 10:31:16.568,0.004,-0.016,0.998
2026/05/14 10:31:16.588,0.006,-0.011,0.995
2026/05/14 10:31:16.607,0.004,-0.019,1.001
2026/05/14 10:31:16.627,0.001,-0.017,0.998
2026/05/14 10:31:16.647,0.003,-0.018,0.998
2026/05/14 10:31:16.667,0.003,-0.017,0.998
2026/05/14 10:31:16.686,0.003,-0.014,1.002
2026/05/14 10:31:16.706,0.001,-0.013,0.999
2026/05/14 10:31:16.726,-0.001,-0.013,1.0
2026/05/14 10:31:16.746,-0.005,-0.014,1.001
2026/05/14 10:31:16.765,0.001,-0.018,0.996
2026/05/14 10:31:16.785,0.0,-0.016,0.995
2026/05/14 10:31:16.805,0.003,-0.015,0.997
2026/05/14 10:31:16.825,0.001,-0.016,0.998
2026/05/14 10:31:16.844,0.004,-0.017,1.003
2026/05/14 10:31:16.864,0.0,-0.014,1.0
2026/05/14 10:31:16.884,0.005,-0.015,0.999
2026/05/14 10:31:16.904,0.004,-0.013,0.999
2026/05/14 10:31:16.923,0.001,-0.009,1.0
2026/05/14 10:31:16.943,0.002,-0.013,0.996
2026/05/14 10:31:16.963,-0.001,-0.018,0.998
2026/05/14 10:31:16.983,0.001,-0.012,0.998
2026/05/14 10:31:17.002,0.001,-0.016,0.998
2026/05/14 10:31:17.022,0.002,-0.014,1.001
2026/05/14 10:31:17.042,0.003,-0.016,0.996
2026/05/14 10:31:17.062,0.001,-0.012,1.0
2026/05/14 10:31:17.081,0.002,-0.017,0.998
2026/05/14 10:31:17.101,0.003,-0.014,0.996
2026/05/14 10:31:17.121,-0.002,-0.016,0.998
2026/05/14 10:31:17.141,-0.001,-0.016,0.997
2026/05/14 10:31:17.160,0.0,-0.015,0.998
2026/05/14 10:31:17.180,0.001,-0.017,0.998
2026/05/14 10:31:17.200,-0.001,-0.012,0.999
2026/05/14 10:31:17.220,0.004,-0.017,1.0
2026/05/14 10:31:17.239,-0.002,-0.015,0.999
2026/05/14 10:31:17.259,0.001,-0.016,0.997
2026/05/14 10:31:17.279,0.002,-0.015,0.999
2026/05/14 10:31:17.299,0.001,-0.015,1.002
2026/05/14 10:31:17.319,0.004,-0.017,0.999
2026/05/14 10:31:17.338,0.003,-0.018,0.995
2026/05/14 10:31:17.358,0.005,-0.015,1.0
2026/05/14 10:31:17.378,-0.001,-0.015,0.995
2026/05/14 10:31:17.398,-0.003,-0.011,0.998
2026/05/14 10:31:17.417,0.006,-0.011,0.996
2026/05/14 10:31:17.437,0.004,-0.015,0.998
2026/05/14 10:31:17.457,0.001,-0.016,0.998
2026/05/14 10:31:17.477,0.0,-0.013,0.999
2026/05/14 10:31:17.496,-0.002,-0.013,0.999
2026/05/14 10:31:17.516,0.0,-0.015,0.999
2026/05/14 10:31:17.536,0.001,-0.015,0.998
2026/05/14 10:31:17.556,0.002,-0.016,0.995
2026/05/14 10:31:17.575,0.0,-0.012,0.999
2026/05/14 10:31:17.595,0.002,-0.014,1.001
2026/05/14 10:31:17.615,0.004,-0.015,0.997
2026/05/14 10:31:17.635,0.005,-0.011,0.995
2026/05/14 10:31:17.654,0.002,-0.014,0.997
2026/05/14 10:31:17.674,0.002,-0.015,0.998
2026/05/14 10:31:17.694,0.0,-0.014,0.998
2026/05/14 10:31:17.714,0.001,-0.012,0.998
2026/05/14 10:31:17.733,-0.001,-0.012,1.003
2026/05/14 10:31:17.753,0.0,-0.018,0.998
2026/05/14 10:31:17.773,-0.001,-0.015,0.998
2026/05/14 10:31:17.793,0.004,-0.013,0.997
2026/05/14 10:31:17.812,-0.001,-0.018,0.998
2026/05/14 10:31:17.832,0.003,-0.014,0.999
2026/05/14 10:31:17.852,0.001,-0.015,0.996
2026/05/14 10:31:17.872,0.003,-0.017,0.997
2026/05/14 10:31:17.891,-0.002,-0.014,0.998
2026/05/14 10:31:17.911,0.002,-0.013,0.998
2026/05/14 10:31:17.931,0.004,-0.011,0.998
2026/05/14 10:31:17.951,0.004,-0.017,1.001
2026/05/14 10:31:17.970,0.007,-0.011,0.997
2026/05/14 10:31:17.990,0.0,-0.017,1.0
2026/05/14 10:31:18.010,0.001,-0.018,1.002
2026/05/14 10:31:18.030,0.001,-0.012,0.996
2026/05/14 10:31:18.049,0.0,-0.015,0.998
2026/05/14 10:31:18.069,0.0,-0.016,0.995
2026/05/14 10:31:18.089,0.002,-0.014,0.997
2026/05/14 10:31:18.109,0.004,-0.014,0.998
2026/05/14 10:31:18.129,0.003,-0.013,0.998
2026/05/14 10:31:18.148,0.001,-0.019,0.995
2026/05/14 10:31:18.168,0.003,-0.017,1.0
2026/05/14 10:31:18.188,0.006,-0.014,0.999
2026/05/14 10:31:18.208,-0.001,-0.015,0.997
2026/05/14 10:31:18.227,0.0,-0.014,0.997
2026/05/14 10:31:18.247,0.002,-0.015,0.997
2026/05/14 10:31:18.267,0.004,-0.019,1.0
2026/05/14 10:31:18.287,0.001,-0.015,0.999
2026/05/14 10:31:18.306,0.0,-0.013,0.997
2026/05/14 10:31:18.326,0.002,-0.013,0.998
2026/05/14 10:31:18.346,-0.002,-0.015,0.998
2026/05/14 10:31:18.366,0.0,-0.015,0.996
2026/05/14 10:31:18.385,0.001,-0.013,1.0
2026/05/14 10:31:18.405,-0.002,-0.018,0.997
2026/05/14 10:31:18.425,0.0,-0.012,0.998
2026/05/14 10:31:18.445,0.003,-0.01,0.998
2026/05/14 10:31:18.464,0.001,-0.013,1.001
2026/05/14 10:31:18.484,0.001,-0.014,0.997
2026/05/14 10:31:18.504,0.001,-0.013,1.0
2026/05/14 10:31:18.524,0.004,-0.011,0.995
2026/05/14 10:31:18.543,0.003,-0.012,0.999
2026/05/14 10:31:18.563,0.004,-0.014,1.002
2026/05/14 10:31:18.583,0.002,-0.013,0.996
2026/05/14 10:31:18.603,0.001,-0.014,0.995
2026/05/14 10:31:18.622,0.001,-0.014,0.997
2026/05/14 10:31:18.642,-0.002,-0.014,0.999
2026/05/14 10:31:18.662,0.002,-0.019,0.999
2026/05/14 10:31:18.682,-0.001,-0.014,0.994
2026/05/14 10:31:18.701,0.008,-0.016,1.001
2026/05/14 10:31:18.721,-0.001,-0.015,1.0
2026/05/14 10:31:18.741,0.003,-0.012,0.997
2026/05/14 10:31:18.761,0.003,-0.013,0.998
2026/05/14 10:31:18.780,0.0,-0.012,0.997
2026/05/14 10:31:18.800,0.001,-0.014,0.997
2026/05/14 10:31:18.820,0.002,-0.013,0.996
2026/05/14 10:31:18.840,0.006,-0.013,0.998
2026/05/14 10:31:18.859,0.002,-0.014,1.003
2026/05/14 10:31:18.879,-0.001,-0.012,0.999
2026/05/14 10:31:18.899,0.003,-0.015,0.997
2026/05/14 10:31:18.919,0.003,-0.014,0.997
2026/05/14 10:31:18.939,0.006,-0.014,0.997
2026/05/14 10:31:18.958,-0.001,-0.016,1.001
2026/05/14 10:31:18.978,0.003,-0.013,0.998
2026/05/14 10:31:18.998,0.001,-0.016,1.0
2026/05/14 10:31:19.018,0.002,-0.011,0.997
2026/05/14 10:31:19.037,-0.002,-0.015,0.998
2026/05/14 10:31:19.057,0.001,-0.013,1.001
2026/05/14 10:31:19.077,0.0,-0.014,0.999
2026/05/14 10:31:19.097,0.002,-0.017,0.998
2026/05/14 10:31:19.116,0.004,-0.012,0.999
2026/05/14 10:31:19.136,-0.001,-0.015,0.997
2026/05/14 10:31:19.156,-0.001,-0.01,0.997
2026/05/14 10:31:19.176,0.002,-0.012,0.998
2026/05/14 10:31:19.195,0.002,-0.014,0.999
2026/05/14 10:31:19.215,0.0,-0.012,0.999
2026/05/14 10:31:19.235,0.002,-0.015,0.999
2026/05/14 10:31:19.255,-0.001,-0.017,1.006
2026/05/14 10:31:19.274,0.003,-0.011,0.998
2026/05/14 10:31:19.294,-0.001,-0.016,1.0
2026/05/14 10:31:19.314,0.001,-0.017,0.998
2026/05/14 10:31:19.334,0.001,-0.014,1.0
2026/05/14 10:31:19.353,0.0,-0.014,0.998
2026/05/14 10:31:19.373,0.006,-0.012,0.999
2026/05/14 10:31:19.393,0.001,-0.014,0.997
2026/05/14 10:31:19.413,0.002,-0.017,1.001
2026/05/14 10:31:19.432,0.001,-0.013,1.0
2026/05/14 10:31:19.452,-0.003,-0.014,1.0
2026/05/14 10:31:19.472,0.006,-0.015,1.002
2026/05/14 10:31:19.492,0.006,-0.015,0.996
2026/05/14 10:31:19.511,0.001,-0.014,0.999
2026/05/14 10:31:19.531,-0.001,-0.013,0.994
2026/05/14 10:31:19.551,0.0,-0.014,0.996
2026/05/14 10:31:19.571,0.003,-0.013,0.999
2026/05/14 10:31:19.590,-0.001,-0.01,1.0
2026/05/14 10:31:19.610,0.002,-0.016,0.999
2026/05/14 10:31:19.630,0.003,-0.014,0.996
2026/05/14 10:31:19.650,0.002,-0.012,0.998
2026/05/14 10:31:19.669,0.004,-0.014,0.999
2026/05/14 10:31:19.689,0.0,-0.017,0.999
2026/05/14 10:31:19.709,-0.001,-0.016,1.0
2026/05/14 10:31:19.729,0.001,-0.016,0.997
2026/05/14 10:31:19.749,0.001,-0.014,0.999
2026/05/14 10:31:19.768,0.005,-0.017,1.002
2026/05/14 10:31:19.788,0.001,-0.017,0.999
2026/05/14 10:31:19.808,0.003,-0.017,0.999
2026/05/14 10:31:19.828,0.0,-0.015,1.0
2026/05/14 10:31:19.847,0.001,-0.013,0.997
2026/05/14 10:31:19.867,0.006,-0.019,1.001
2026/05/14 10:31:19.887,0.0,-0.013,0.994
2026/05/14 10:31:19.907,-0.001,-0.014,0.998
2026/05/14 10:31:19.926,0.0,-0.01,0.998
2026/05/14 10:31:19.946,0.003,-0.018,0.999
2026/05/14 10:31:19.966,-0.001,-0.016,0.998
2026/05/14 10:31:19.986,0.0,-0.017,0.998
2026/05/14 10:31:20.005,0.0,-0.015,0.996
2026/05/14 10:31:20.025,0.002,-0.017,0.996
2026/05/14 10:31:20.045,0.001,-0.014,0.998
2026/05/14 10:31:20.065,0.002,-0.013,0.998
2026/05/14 10:31:20.084,0.002,-0.015,0.996
2026/05/14 10:31:20.104,-0.001,-0.017,0.999
2026/05/14 10:31:20.124,0.001,-0.014,0.999
2026/05/14 10:31:20.144,0.005,-0.015,0.998
2026/05/14 10:31:20.163,0.0,-0.012,0.999
2026/05/14 10:31:20.183,-0.001,-0.018,0.999
2026/05/14 10:31:20.203,0.001,-0.014,0.995
2026/05/14 10:31:20.223,0.002,-0.015,1.0
2026/05/14 10:31:20.242,0.004,-0.018,1.0
2026/05/14 10:31:20.262,0.0,-0.016,1.001
2026/05/14 10:31:20.282,0.002,-0.015,1.002
2026/05/14 10:31:20.302,0.0,-0.015,0.995
2026/05/14 10:31:20.321,0.005,-0.016,0.996
2026/05/14 10:31:20.341,0.002,-0.015,0.995
2026/05/14 10:31:20.361,0.001,-0.013,0.999
2026/05/14 10:31:20.381,-0.003,-0.011,0.997
2026/05/14 10:31:20.400,0.003,-0.013,0.996
2026/05/14 10:31:20.420,0.003,-0.012,0.998
2026/05/14 10:31:20.440,0.001,-0.016,0.999
2026/05/14 10:31:20.460,0.0,-0.015,0.996
2026/05/14 10:31:20.479,0.001,-0.016,0.999
2026/05/14 10:31:20.499,0.002,-0.014,0.995
2026/05/14 10:31:20.519,0.002,-0.012,1.004
2026/05/14 10:31:20.539,0.0,-0.014,1.001
2026/05/14 10:31:20.558,0.003,-0.014,0.998
2026/05/14 10:31:20.578,0.0,-0.017,0.998
2026/05/14 10:31:20.598,-0.001,-0.016,0.999
2026/05/14 10:31:20.618,0.004,-0.017,1.001
2026/05/14 10:31:20.638,-0.002,-0.01,1.0
2026/05/14 10:31:20.657,0.003,-0.013,0.999
2026/05/14 10:31:20.677,-0.001,-0.017,1.001
2026/05/14 10:31:20.697,0.001,-0.015,1.0
2026/05/14 10:31:20.717,0.003,-0.014,0.999
2026/05/14 10:31:20.736,0.005,-0.014,0.995
2026/05/14 10:31:20.756,0.003,-0.015,1.0
2026/05/14 10:31:20.776,0.0,-0.015,0.998
2026/05/14 10:31:20.796,0.0,-0.017,0.999
2026/05/14 10:31:20.815,0.004,-0.017,0.997
2026/05/14 10:31:20.835,0.002,-0.014,1.002
2026/05/14 10:31:20.855,0.004,-0.013,0.998
2026/05/14 10:31:20.875,0.002,-0.014,0.996
2026/05/14 10:31:20.894,0.004,-0.012,1.0
2026/05/14 10:31:20.914,-0.002,-0.013,0.999
2026/05/14 10:31:20.934,0.002,-0.016,0.998
2026/05/14 10:31:20.954,0.002,-0.016,0.999
2026/05/14 10:31:20.973,0.001,-0.015,1.0
2026/05/14 10:31:20.993,0.001,-0.014,0.996
2026/05/14 10:31:21.013,0.001,-0.012,0.997
2026/05/14 10:31:21.033,0.005,-0.011,0.999
2026/05/14 10:31:21.052,0.003,-0.014,0.998
2026/05/14 10:31:21.072,0.001,-0.014,0.996
2026/05/14 10:31:21.092,0.004,-0.014,1.0
2026/05/14 10:31:21.112,0.001,-0.017,0.997
2026/05/14 10:31:21.131,-0.001,-0.013,0.998
2026/05/14 10:31:21.151,0.002,-0.011,1.001
2026/05/14 10:31:21.171,0.002,-0.013,0.997
2026/05/14 10:31:21.191,0.0,-0.014,0.998
2026/05/14 10:31:21.210,0.0,-0.009,0.998
2026/05/14 10:31:21.230,-0.001,-0.012,0.999
2026/05/14 10:31:21.250,0.004,-0.016,1.001
2026/05/14 10:31:21.270,0.005,-0.012,0.998
2026/05/14 10:31:21.289,0.002,-0.018,0.998
2026/05/14 10:31:21.309,0.003,-0.016,0.997
2026/05/14 10:31:21.329,0.002,-0.016,0.995
2026/05/14 10:31:21.349,0.001,-0.012,0.994
2026/05/14 10:31:21.368,0.002,-0.016,1.001
2026/05/14 10:31:21.388,0.003,-0.017,0.996
2026/05/14 10:31:21.408,0.002,-0.014,0.998
2026/05/14 10:31:21.428,0.005,-0.015,0.997
2026/05/14 10:31:21.447,0.001,-0.013,1.002
2026/05/14 10:31:21.467,0.002,-0.016,0.996
2026/05/14 10:31:21.487,0.005,-0.019,1.001
2026/05/14 10:31:21.507,-0.001,-0.018,0.998
2026/05/14 10:31:21.527,0.001,-0.017,0.995
2026/05/14 10:31:21.546,0.0,-0.014,0.997
2026/05/14 10:31:21.566,0.0,-0.012,0.998
2026/05/14 10:31:21.586,0.002,-0.016,0.998
2026/05/14 10:31:21.606,0.001,-0.019,1.0
2026/05/14 10:31:21.625,-0.002,-0.014,0.996
2026/05/14 10:31:21.645,0.0,-0.014,0.996
2026/05/14 10:31:21.665,0.002,-0.016,0.996
2026/05/14 10:31:21.685,0.0,-0.013,1.001
2026/05/14 10:31:21.704,0.003,-0.015,1.0
2026/05/14 10:31:21.724,0.002,-0.011,0.999
2026/05/14 10:31:21.744,0.003,-0.014,0.998
2026/05/14 10:31:21.764,0.004,-0.014,0.999
2026/05/14 10:31:21.783,0.002,-0.013,1.001
2026/05/14 10:31:21.803,0.0,-0.012,0.998
2026/05/14 10:31:21.823,0.001,-0.011,0.998
2026/05/14 10:31:21.843,0.002,-0.015,0.998
2026/05/14 10:31:21.862,0.004,-0.014,0.998
2026/05/14 10:31:21.882,0.002,-0.013,1.001
2026/05/14 10:31:21.902,0.002,-0.016,1.001
2026/05/14 10:31:21.922,0.002,-0.014,0.998
2026/05/14 10:31:21.941,0.0,-0.012,1.0
2026/05/14 10:31:21.961,0.0,-0.015,0.999
2026/05/14 10:31:21.981,-0.001,-0.014,0.997
2026/05/14 10:31:22.001,-0.004,-0.018,0.995
2026/05/14 10:31:22.020,0.001,-0.014,1.0
2026/05/14 10:31:22.040,0.004,-0.014,0.998
2026/05/14 10:31:22.060,0.002,-0.014,0.998
2026/05/14 10:31:22.080,0.001,-0.016,1.0
2026/05/14 10:31:22.099,0.001,-0.016,0.999
2026/05/14 10:31:22.119,0.002,-0.014,0.995
2026/05/14 10:31:22.139,0.004,-0.012,1.002
2026/05/14 10:31:22.159,0.0,-0.018,1.001
2026/05/14 10:31:22.178,0.002,-0.015,0.998
2026/05/14 10:31:22.198,-0.001,-0.014,0.998
2026/05/14 10:31:22.218,-0.002,-0.014,0.997
2026/05/14 10:31:22.238,0.001,-0.012,0.999
2026/05/14 10:31:22.257,0.0,-0.017,1.003
2026/05/14 10:31:22.277,0.004,-0.015,0.998
2026/05/14 10:31:22.297,-0.001,-0.015,0.998
2026/05/14 10:31:22.317,0.003,-0.016,0.999
2026/05/14 10:31:22.336,0.003,-0.013,0.997
2026/05/14 10:31:22.356,0.001,-0.013,0.999
2026/05/14 10:31:22.376,-0.002,-0.021,1.001
2026/05/14 10:31:22.396,0.0,-0.012,0.998
2026/05/14 10:31:22.415,0.001,-0.016,0.997
2026/05/14 10:31:22.435,0.002,-0.009,0.993
2026/05/14 10:31:22.455,-0.001,-0.013,0.999
2026/05/14 10:31:22.475,0.002,-0.014,1.001
2026/05/14 10:31:22.495,0.002,-0.015,1.0
2026/05/14 10:31:22.514,0.004,-0.015,0.999
2026/05/14 10:31:22.534,0.001,-0.016,0.996
2026/05/14 10:31:22.554,0.001,-0.015,0.996
2026/05/14 10:31:22.574,0.004,-0.013,1.001
2026/05/14 10:31:22.593,0.0,-0.014,0.994
2026/05/14 10:31:22.613,-0.002,-0.016,0.999
2026/05/14 10:31:22.633,0.004,-0.016,0.998
2026/05/14 10:31:22.653,0.005,-0.014,1.0
2026/05/14 10:31:22.672,-0.002,-0.014,0.999
2026/05/14 10:31:22.692,0.0,-0.014,1.001
2026/05/14 10:31:22.712,0.0,-0.014,1.001
2026/05/14 10:31:22.732,0.001,-0.012,1.0
2026/05/14 10:31:22.751,0.001,-0.014,0.999
2026/05/14 10:31:22.771,-0.002,-0.019,0.998
2026/05/14 10:31:22.791,0.005,-0.011,1.001
2026/05/14 10:31:22.811,0.001,-0.017,1.0
2026/05/14 10:31:22.830,0.002,-0.013,1.0
2026/05/14 10:31:22.850,0.0,-0.014,1.0
2026/05/14 10:31:22.870,-0.003,-0.012,0.998
2026/05/14 10:31:22.890,0.0,-0.012,1.003
2026/05/14 10:31:22.909,0.0,-0.015,1.002
2026/05/14 10:31:22.929,-0.001,-0.013,0.995
2026/05/14 10:31:22.949,0.005,-0.012,0.998
2026/05/14 10:31:22.969,0.0,-0.013,0.998
2026/05/14 10:31:22.988,0.001,-0.015,1.001
2026/05/14 10:31:23.008,0.002,-0.017,0.995
2026/05/14 10:31:23.028,0.0,-0.013,0.999
2026/05/14 10:31:23.048,0.001,-0.018,0.997
2026/05/14 10:31:23.067,0.003,-0.015,1.0
2026/05/14 10:31:23.087,0.001,-0.017,0.999
2026/05/14 10:31:23.107,0.001,-0.011,0.997
2026/05/14 10:31:23.127,-0.001,-0.014,0.999
2026/05/14 10:31:23.146,0.003,-0.017,0.998
2026/05/14 10:31:23.166,0.001,-0.013,1.002
2026/05/14 10:31:23.186,0.003,-0.016,0.998
2026/05/14 10:31:23.206,0.001,-0.016,0.999
2026/05/14 10:31:23.225,0.003,-0.012,0.998
2026/05/14 10:31:23.245,0.002,-0.013,0.998
2026/05/14 10:31:23.265,0.001,-0.014,1.0
2026/05/14 10:31:23.285,0.0,-0.014,0.999
2026/05/14 10:31:23.304,0.004,-0.014,0.999
2026/05/14 10:31:23.324,0.001,-0.016,0.997
2026/05/14 10:31:23.344,-0.001,-0.016,1.002
2026/05/14 10:31:23.364,0.001,-0.015,0.997
2026/05/14 10:31:23.383,0.002,-0.014,0.998
2026/05/14 10:31:23.403,-0.001,-0.015,0.998
2026/05/14 10:31:23.423,0.002,-0.015,0.998
2026/05/14 10:31:23.443,0.002,-0.015,0.997
2026/05/14 10:31:23.463,0.001,-0.017,0.997
2026/05/14 10:31:23.482,0.003,-0.014,1.002
2026/05/14 10:31:23.502,0.0,-0.013,0.998
2026/05/14 10:31:23.522,0.004,-0.016,0.996
2026/05/14 10:31:23.542,0.0,-0.015,1.001
2026/05/14 10:31:23.561,-0.001,-0.016,0.998
2026/05/14 10:31:23.581,-0.001,-0.014,0.998
2026/05/14 10:31:23.601,-0.002,-0.014,0.998
2026/05/14 10:31:23.621,0.001,-0.015,0.997
2026/05/14 10:31:23.640,0.005,-0.013,1.001
2026/05/14 10:31:23.660,-0.001,-0.016,1.003
2026/05/14 10:31:23.680,0.003,-0.013,0.999
2026/05/14 10:31:23.700,0.004,-0.013,0.995
2026/05/14 10:31:23.719,-0.003,-0.016,0.997
2026/05/14 10:31:23.739,0.007,-0.015,1.0
2026/05/14 10:31:23.759,0.002,-0.019,1.001
2026/05/14 10:31:23.779,0.002,-0.013,0.998
2026/05/14 10:31:23.798,0.001,-0.014,1.001
2026/05/14 10:31:23.818,0.003,-0.011,0.997
2026/05/14 10:31:23.838,0.001,-0.014,0.999
2026/05/14 10:31:23.858,0.001,-0.013,0.997
2026/05/14 10:31:23.877,0.0,-0.013,1.0
2026/05/14 10:31:23.897,0.002,-0.014,0.998
2026/05/14 10:31:23.917,0.002,-0.012,0.999
2026/05/14 10:31:23.937,0.005,-0.019,0.999
2026/05/14 10:31:23.956,0.0,-0.013,1.0
2026/05/14 10:31:23.976,0.0,-0.014,0.995
2026/05/14 10:31:23.996,-0.002,-0.015,0.999
2026/05/14 10:31:24.016,0.001,-0.016,0.999
2026/05/14 10:31:24.035,-0.002,-0.011,1.0
2026/05/14 10:31:24.055,0.0,-0.016,0.997
2026/05/14 10:31:24.075,0.002,-0.014,0.996
2026/05/14 10:31:24.095,0.004,-0.012,0.996
2026/05/14 10:31:24.114,0.001,-0.016,1.002
2026/05/14 10:31:24.134,0.002,-0.018,0.998
2026/05/14 10:31:24.154,0.001,-0.018,0.998
2026/05/14 10:31:24.174,0.004,-0.019,0.999
2026/05/14 10:31:24.193,-0.001,-0.016,0.998
2026/05/14 10:31:24.213,0.0,-0.015,0.999
2026/05/14 10:31:24.233,0.001,-0.013,0.998
2026/05/14 10:31:24.253,0.001,-0.014,0.998
2026/05/14 10:31:24.272,0.002,-0.015,0.995
2026/05/14 10:31:24.292,0.0,-0.014,1.001
2026/05/14 10:31:24.312,0.004,-0.013,0.994
2026/05/14 10:31:24.332,-0.001,-0.009,0.994
2026/05/14 10:31:24.352,0.003,-0.013,1.0
2026/05/14 10:31:24.371,0.003,-0.014,0.994
2026/05/14 10:31:24.391,0.002,-0.012,0.997
2026/05/14 10:31:24.411,0.002,-0.014,0.998
2026/05/14 10:31:24.431,0.003,-0.011,1.0
2026/05/14 10:31:24.450,0.002,-0.015,0.994
2026/05/14 10:31:24.470,0.006,-0.015,0.997
2026/05/14 10:31:24.490,-0.001,-0.016,0.997
2026/05/14 10:31:24.510,0.001,-0.013,1.0
2026/05/14 10:31:24.529,0.002,-0.013,0.998
2026/05/14 10:31:24.549,0.0,-0.011,1.001
2026/05/14 10:31:24.569,0.003,-0.012,0.998
2026/05/14 10:31:24.589,0.001,-0.016,0.999
2026/05/14 10:31:24.608,0.0,-0.016,0.998
2026/05/14 10:31:24.628,0.0,-0.015,0.995
2026/05/14 10:31:24.648,0.001,-0.014,0.998
2026/05/14 10:31:24.668,0.001,-0.013,0.998
2026/05/14 10:31:24.687,0.002,-0.014,1.002
2026/05/14 10:31:24.707,0.002,-0.011,0.998
2026/05/14 10:31:24.727,0.003,-0.018,0.997
2026/05/14 10:31:24.747,0.001,-0.014,0.999
2026/05/14 10:31:24.766,0.0,-0.016,1.0
2026/05/14 10:31:24.786,0.0,-0.013,1.001
2026/05/14 10:31:24.806,-0.001,-0.015,0.996
2026/05/14 10:31:24.826,-0.001,-0.015,1.001
2026/05/14 10:31:24.845,0.0,-0.017,1.004
2026/05/14 10:31:24.865,-0.002,-0.013,1.001
2026/05/14 10:31:24.885,0.002,-0.014,1.0
2026/05/14 10:31:24.905,0.0,-0.016,1.001
2026/05/14 10:31:24.924,0.001,-0.018,0.996
2026/05/14 10:31:24.944,0.0,-0.015,1.003
2026/05/14 10:31:24.964,0.001,-0.016,0.998
2026/05/14 10:31:24.984,0.001,-0.016,0.998
2026/05/14 10:31:25.003,0.006,-0.013,0.999
2026/05/14 10:31:25.023,0.0,-0.016,0.998
2026/05/14 10:31:25.043,0.001,-0.015,0.999
2026/05/14 10:31:25.063,0.002,-0.011,1.001
2026/05/14 10:31:25.082,0.0,-0.012,0.995
2026/05/14 10:31:25.102,0.002,-0.015,0.997
2026/05/14 10:31:25.122,0.001,-0.014,0.998
2026/05/14 10:31:25.142,0.001,-0.009,0.999
2026/05/14 10:31:25.161,0.001,-0.015,0.999
2026/05/14 10:31:25.181,0.0,-0.014,0.996
2026/05/14 10:31:25.201,0.005,-0.015,0.999
2026/05/14 10:31:25.221,0.0,-0.013,0.999
2026/05/14 10:31:25.241,0.002,-0.013,0.999
2026/05/14 10:31:25.260,0.002,-0.013,0.999
2026/05/14 10:31:25.280,0.003,-0.016,0.992
2026/05/14 10:31:25.300,0.0,-0.014,0.995
2026/05/14 10:31:25.320,0.007,-0.014,0.997
2026/05/14 10:31:25.339,0.002,-0.017,0.996
2026/05/14 10:31:25.359,0.001,-0.014,1.0
2026/05/14 10:31:25.379,0.003,-0.015,0.999
2026/05/14 10:31:25.399,-0.001,-0.015,1.003
2026/05/14 10:31:25.418,0.002,-0.014,0.999
2026/05/14 10:31:25.438,0.001,-0.014,0.998
2026/05/14 10:31:25.458,-0.003,-0.014,1.003
2026/05/14 10:31:25.478,0.0,-0.015,0.998
2026/05/14 10:31:25.497,0.005,-0.016,0.996
2026/05/14 10:31:25.517,0.001,-0.016,0.998
2026/05/14 10:31:25.537,0.001,-0.017,1.0
2026/05/14 10:31:25.557,-0.001,-0.015,0.998
2026/05/14 10:31:25.576,0.003,-0.017,1.005
2026/05/14 10:31:25.596,0.003,-0.018,0.998
2026/05/14 10:31:25.616,-0.002,-0.013,0.996
2026/05/14 10:31:25.636,0.004,-0.016,0.999
2026/05/14 10:31:25.655,-0.003,-0.016,0.997
2026/05/14 10:31:25.675,0.0,-0.017,1.001
2026/05/14 10:31:25.695,0.002,-0.014,1.002
2026/05/14 10:31:25.715,0.001,-0.013,0.998
2026/05/14 10:31:25.734,0.003,-0.016,0.996
2026/05/14 10:31:25.754,0.002,-0.013,0.999
2026/05/14 10:31:25.774,0.001,-0.015,1.0
2026/05/14 10:31:25.794,0.004,-0.014,0.997
2026/05/14 10:31:25.813,-0.001,-0.013,0.998
2026/05/14 10:31:25.833,0.003,-0.013,0.999
2026/05/14 10:31:25.853,0.001,-0.015,0.998
2026/05/14 10:31:25.873,0.0,-0.012,0.996
2026/05/14 10:31:25.892,0.001,-0.015,0.996
2026/05/14 10:31:25.912,0.002,-0.018,0.995
2026/05/14 10:31:25.932,-0.001,-0.016,0.999
2026/05/14 10:31:25.952,0.001,-0.017,0.998
2026/05/14 10:31:25.971,0.004,-0.014,0.999
2026/05/14 10:31:25.991,-0.003,-0.015,1.0
2026/05/14 10:31:26.011,0.002,-0.015,0.998
2026/05/14 10:31:26.031,0.003,-0.015,0.996
2026/05/14 10:31:26.051,0.0,-0.016,0.998
2026/05/14 10:31:26.070,0.001,-0.014,0.997
2026/05/14 10:31:26.090,0.004,-0.014,0.995
2026/05/14 10:31:26.110,-0.001,-0.02,0.997
2026/05/14 10:31:26.130,0.002,-0.011,0.999
2026/05/14 10:31:26.149,0.002,-0.012,1.0
2026/05/14 10:31:26.169,0.002,-0.011,1.002
2026/05/14 10:31:26.189,0.0,-0.016,1.002
2026/05/14 10:31:26.209,0.001,-0.015,1.0
2026/05/14 10:31:26.228,0.001,-0.013,0.997
2026/05/14 10:31:26.248,0.0,-0.012,0.998
2026/05/14 10:31:26.268,0.002,-0.019,0.999
2026/05/14 10:31:26.288,0.002,-0.012,0.999
2026/05/14 10:31:26.307,0.0,-0.016,1.0
2026/05/14 10:31:26.327,0.002,-0.014,0.997
2026/05/14 10:31:26.347,-0.001,-0.015,0.997
2026/05/14 10:31:26.367,-0.003,-0.012,0.997
2026/05/14 10:31:26.386,0.005,-0.012,0.998
2026/05/14 10:31:26.406,-0.001,-0.009,0.999
2026/05/14 10:31:26.426,-0.002,-0.016,0.996
2026/05/14 10:31:26.446,0.004,-0.015,0.999
2026/05/14 10:31:26.465,-0.004,-0.015,0.997
2026/05/14 10:31:26.485,0.002,-0.014,0.997
2026/05/14 10:31:26.505,0.001,-0.012,0.999
2026/05/14 10:31:26.525,0.0,-0.017,0.998
2026/05/14 10:31:26.544,0.0,-0.01,0.996
2026/05/14 10:31:26.564,-0.001,-0.012,1.0
2026/05/14 10:31:26.584,0.001,-0.016,1.001
2026/05/14 10:31:26.604,0.001,-0.013,0.994
2026/05/14 10:31:26.623,-0.001,-0.014,0.999
2026/05/14 10:31:26.643,0.004,-0.013,1.0
2026/05/14 10:31:26.663,0.004,-0.014,1.0
2026/05/14 10:31:26.683,0.001,-0.014,0.998
2026/05/14 10:31:26.702,0.001,-0.014,0.998
2026/05/14 10:31:26.722,-0.004,-0.015,1.002
2026/05/14 10:31:26.742,0.0,-0.016,0.997
2026/05/14 10:31:26.762,-0.001,-0.014,0.999
2026/05/14 10:31:26.781,0.002,-0.01,0.998
2026/05/14 10:31:26.801,0.002,-0.012,1.0
2026/05/14 10:31:26.821,0.002,-0.016,0.998
2026/05/14 10:31:26.841,0.001,-0.017,0.999
2026/05/14 10:31:26.860,0.002,-0.016,1.001
2026/05/14 10:31:26.880,0.002,-0.013,0.997
2026/05/14 10:31:26.900,0.001,-0.013,0.996
2026/05/14 10:31:26.920,0.003,-0.018,0.996
2026/05/14 10:31:26.940,0.005,-0.013,1.001
2026/05/14 10:31:26.959,0.0,-0.013,0.998
2026/05/14 10:31:26.979,0.001,-0.014,0.996
2026/05/14 10:31:26.999,0.003,-0.017,0.995
2026/05/14 10:31:27.019,-0.001,-0.014,1.0
2026/05/14 10:31:27.038,-0.001,-0.016,0.997
2026/05/14 10:31:27.058,0.001,-0.015,1.002
2026/05/14 10:31:27.078,0.002,-0.014,0.998
2026/05/14 10:31:27.098,0.004,-0.017,0.997
2026/05/14 10:31:27.117,-0.003,-0.013,0.998
2026/05/14 10:31:27.137,0.002,-0.016,0.998
2026/05/14 10:31:27.157,-0.001,-0.014,0.998
2026/05/14 10:31:27.177,0.0,-0.015,0.996
2026/05/14 10:31:27.196,0.002,-0.014,1.0
2026/05/14 10:31:27.216,0.002,-0.013,1.0
2026/05/14 10:31:27.236,0.0,-0.014,0.996
2026/05/14 10:31:27.256,0.004,-0.013,1.002
2026/05/14 10:31:27.275,0.002,-0.013,0.996
2026/05/14 10:31:27.295,0.004,-0.016,0.999
2026/05/14 10:31:27.315,-0.001,-0.012,0.999
2026/05/14 10:31:27.335,0.003,-0.016,0.998
2026/05/14 10:31:27.354,0.001,-0.01,0.999
2026/05/14 10:31:27.374,0.0,-0.017,0.994
2026/05/14 10:31:27.394,0.003,-0.014,0.996
2026/05/14 10:31:27.414,0.001,-0.016,0.994
2026/05/14 10:31:27.433,0.0,-0.014,1.0
2026/05/14 10:31:27.453,0.003,-0.016,0.999
2026/05/14 10:31:27.473,0.0,-0.017,0.998
2026/05/14 10:31:27.493,-0.003,-0.016,0.998
2026/05/14 10:31:27.512,0.001,-0.014,1.0
2026/05/14 10:31:27.532,-0.001,-0.014,0.998
2026/05/14 10:31:27.552,0.003,-0.015,1.002
2026/05/14 10:31:27.572,0.001,-0.014,0.998
2026/05/14 10:31:27.591,-0.002,-0.016,0.999
2026/05/14 10:31:27.611,0.0,-0.012,0.999
2026/05/14 10:31:27.631,0.001,-0.015,0.998
2026/05/14 10:31:27.651,0.002,-0.017,0.996
2026/05/14 10:31:27.670,0.001,-0.014,1.001
2026/05/14 10:31:27.690,0.003,-0.016,0.998
2026/05/14 10:31:27.710,0.002,-0.015,1.0
2026/05/14 10:31:27.730,0.001,-0.016,0.996
2026/05/14 10:31:27.750,0.0,-0.012,0.998
2026/05/14 10:31:27.769,-0.001,-0.015,0.999
2026/05/14 10:31:27.789,0.002,-0.011,0.998
2026/05/14 10:31:27.809,0.003,-0.015,0.998
2026/05/14 10:31:27.829,0.001,-0.012,0.998
2026/05/14 10:31:27.848,-0.001,-0.016,1.0
2026/05/14 10:31:27.868,0.002,-0.013,0.996
2026/05/14 10:31:27.888,0.003,-0.014,0.999
2026/05/14 10:31:27.908,-0.001,-0.018,0.998
2026/05/14 10:31:27.927,0.001,-0.012,0.997
2026/05/14 10:31:27.947,0.002,-0.015,0.998
2026/05/14 10:31:27.967,0.002,-0.014,0.998
2026/05/14 10:31:27.987,-0.001,-0.015,1.001
2026/05/14 10:31:28.006,0.002,-0.015,0.998
2026/05/14 10:31:28.026,0.003,-0.015,0.999
2026/05/14 10:31:28.046,0.002,-0.012,1.0
2026/05/14 10:31:28.066,0.002,-0.014,0.997
2026/05/14 10:31:28.085,0.003,-0.017,0.997
2026/05/14 10:31:28.105,0.0,-0.011,0.997
2026/05/14 10:31:28.125,0.002,-0.013,0.998
2026/05/14 10:31:28.145,0.002,-0.013,0.999
2026/05/14 10:31:28.164,0.001,-0.017,0.997
2026/05/14 10:31:28.184,0.002,-0.018,0.998
2026/05/14 10:31:28.204,0.002,-0.014,0.999
2026/05/14 10:31:28.224,-0.002,-0.016,0.999
2026/05/14 10:31:28.243,0.001,-0.017,0.998
2026/05/14 10:31:28.263,0.0,-0.014,0.996
2026/05/14 10:31:28.283,0.001,-0.013,1.001
2026/05/14 10:31:28.303,0.002,-0.014,0.997
2026/05/14 10:31:28.322,0.004,-0.015,0.999
2026/05/14 10:31:28.342,0.005,-0.013,1.0
2026/05/14 10:31:28.362,0.002,-0.013,0.996
2026/05/14 10:31:28.382,0.002,-0.015,1.004
2026/05/14 10:31:28.401,0.002,-0.017,1.0
2026/05/14 10:31:28.421,0.0,-0.02,0.999
2026/05/14 10:31:28.441,0.0,-0.018,0.994
2026/05/14 10:31:28.461,-0.001,-0.016,1.004
2026/05/14 10:31:28.480,0.0,-0.017,0.996
2026/05/14 10:31:28.500,-0.003,-0.013,0.995
2026/05/14 10:31:28.520,0.002,-0.012,1.002
2026/05/14 10:31:28.540,-0.001,-0.015,0.994
2026/05/14 10:31:28.560,0.002,-0.016,1.0
2026/05/14 10:31:28.579,0.0,-0.016,0.996
2026/05/14 10:31:28.599,0.006,-0.015,0.998
2026/05/14 10:31:28.619,0.002,-0.017,0.998
2026/05/14 10:31:28.639,0.0,-0.012,0.998
2026/05/14 10:31:28.658,0.004,-0.012,0.999
2026/05/14 10:31:28.678,0.001,-0.013,0.998
2026/05/14 10:31:28.698,0.0,-0.012,0.998
2026/05/14 10:31:28.718,0.002,-0.014,1.002
2026/05/14 10:31:28.737,0.002,-0.016,0.998
2026/05/14 10:31:28.757,0.003,-0.014,1.0
2026/05/14 10:31:28.777,0.0,-0.016,1.001
2026/05/14 10:31:28.797,0.0,-0.015,0.996
2026/05/14 10:31:28.816,-0.001,-0.014,0.996
2026/05/14 10:31:28.836,0.001,-0.015,0.998
2026/05/14 10:31:28.856,0.0,-0.019,0.997
2026/05/14 10:31:28.876,0.001,-0.015,1.003
2026/05/14 10:31:28.895,-0.001,-0.018,0.996
2026/05/14 10:31:28.915,0.003,-0.014,0.998
2026/05/14 10:31:28.935,0.0,-0.012,0.999
2026/05/14 10:31:28.955,0.003,-0.013,0.995
2026/05/14 10:31:28.974,0.005,-0.011,0.999
2026/05/14 10:31:28.994,0.0,-0.015,0.998
2026/05/14 10:31:29.014,0.0,-0.016,1.002
2026/05/14 10:31:29.034,0.001,-0.012,0.999
2026/05/14 10:31:29.053,0.001,-0.013,0.997
2026/05/14 10:31:29.073,0.001,-0.016,0.999
2026/05/14 10:31:29.093,0.003,-0.014,1.002
2026/05/14 10:31:29.113,0.001,-0.015,1.001
2026/05/14 10:31:29.132,0.003,-0.016,0.996
2026/05/14 10:31:29.152,-0.002,-0.015,1.0
2026/05/14 10:31:29.172,0.003,-0.014,1.0
2026/05/14 10:31:29.192,0.006,-0.015,1.001
2026/05/14 10:31:29.211,-0.001,-0.014,0.996
2026/05/14 10:31:29.231,0.003,-0.017,0.997
2026/05/14 10:31:29.251,0.002,-0.009,1.0
2026/05/14 10:31:29.271,0.002,-0.009,1.002
2026/05/14 10:31:29.290,0.004,-0.015,0.995
2026/05/14 10:31:29.310,0.001,-0.015,0.998
2026/05/14 10:31:29.330,-0.001,-0.014,0.997
2026/05/14 10:31:29.350,-0.002,-0.011,0.998
2026/05/14 10:31:29.370,0.001,-0.013,0.995
2026/05/14 10:31:29.389,0.0,-0.013,0.999
2026/05/14 10:31:29.409,-0.001,-0.016,0.998
2026/05/14 10:31:29.429,-0.001,-0.013,0.998
2026/05/14 10:31:29.449,0.001,-0.019,0.998
2026/05/14 10:31:29.468,0.001,-0.015,0.999
2026/05/14 10:31:29.488,0.002,-0.016,0.997
2026/05/14 10:31:29.508,0.0,-0.016,0.999
2026/05/14 10:31:29.528,0.001,-0.013,0.997
2026/05/14 10:31:29.547,0.001,-0.018,1.001
2026/05/14 10:31:29.567,0.002,-0.019,0.994
2026/05/14 10:31:29.587,0.001,-0.017,0.997
2026/05/14 10:31:29.607,0.002,-0.016,1.003
2026/05/14 10:31:29.626,-0.001,-0.018,1.0
2026/05/14 10:31:29.646,0.004,-0.016,0.999
2026/05/14 10:31:29.666,0.002,-0.014,0.997
2026/05/14 10:31:29.686,-0.001,-0.017,1.0
2026/05/14 10:31:29.705,0.001,-0.013,0.998
2026/05/14 10:31:29.725,0.0,-0.016,0.999
2026/05/14 10:31:29.745,0.0,-0.014,1.002
2026/05/14 10:31:29.765,0.002,-0.015,0.996
2026/05/14 10:31:29.784,-0.003,-0.016,0.996
2026/05/14 10:31:29.804,0.004,-0.01,0.995
2026/05/14 10:31:29.824,0.004,-0.011,0.999
2026/05/14 10:31:29.844,0.0,-0.013,0.997
2026/05/14 10:31:29.863,0.002,-0.014,0.995
2026/05/14 10:31:29.883,0.001,-0.013,1.002
2026/05/14 10:31:29.903,0.005,-0.017,0.998
2026/05/14 10:31:29.923,0.002,-0.012,0.999
2026/05/14 10:31:29.942,0.002,-0.016,0.997
2026/05/14 10:31:29.962,0.0,-0.016,0.998
2026/05/14 10:31:29.982,-0.001,-0.013,1.001
2026/05/14 10:31:30.002,0.005,-0.019,0.996
2026/05/14 10:31:30.021,-0.001,-0.014,0.998
2026/05/14 10:31:30.041,0.003,-0.019,1.0
2026/05/14 10:31:30.061,0.002,-0.012,1.0
2026/05/14 10:31:30.081,0.002,-0.015,0.998
2026/05/14 10:31:30.100,0.002,-0.014,0.997
2026/05/14 10:31:30.120,0.002,-0.016,1.002
2026/05/14 10:31:30.140,0.005,-0.017,1.0
2026/05/14 10:31:30.160,0.003,-0.013,1.0
2026/05/14 10:31:30.179,0.004,-0.014,0.997
2026/05/14 10:31:30.199,0.002,-0.014,0.994
2026/05/14 10:31:30.219,0.001,-0.014,1.0
2026/05/14 10:31:30.239,0.003,-0.015,1.001
2026/05/14 10:31:30.259,0.006,-0.014,0.999
2026/05/14 10:31:30.278,-0.002,-0.016,0.999
2026/05/14 10:31:30.298,0.0,-0.013,1.001
2026/05/14 10:31:30.318,0.0,-0.014,0.996
2026/05/14 10:31:30.338,0.001,-0.014,1.0
2026/05/14 10:31:30.357,0.002,-0.012,0.996
2026/05/14 10:31:30.377,0.0,-0.016,0.997
2026/05/14 10:31:30.397,0.005,-0.018,1.0
2026/05/14 10:31:30.417,0.001,-0.014,0.999
2026/05/14 10:31:30.436,-0.002,-0.015,0.993
2026/05/14 10:31:30.456,0.001,-0.013,0.998
2026/05/14 10:31:30.476,0.001,-0.012,0.996
2026/05/14 10:31:30.496,0.0,-0.017,1.002
2026/05/14 10:31:30.515,0.005,-0.011,0.997
2026/05/14 10:31:30.535,0.0,-0.013,0.998
2026/05/14 10:31:30.555,0.001,-0.012,0.999
2026/05/14 10:31:30.575,-0.003,-0.016,0.994
2026/05/14 10:31:30.594,-0.001,-0.015,1.0
2026/05/14 10:31:30.614,0.001,-0.014,0.995
2026/05/14 10:31:30.634,0.001,-0.014,0.998
2026/05/14 10:31:30.654,-0.003,-0.014,1.003
2026/05/14 10:31:30.673,0.001,-0.017,0.995
2026/05/14 10:31:30.693,0.002,-0.014,0.999
2026/05/14 10:31:30.713,0.002,-0.016,0.997
2026/05/14 10:31:30.733,-0.002,-0.012,0.997
2026/05/14 10:31:30.752,0.002,-0.016,1.001
2026/05/14 10:31:30.772,0.003,-0.016,0.989
2026/05/14 10:31:30.792,-0.003,-0.014,1.0
2026/05/14 10:31:30.812,0.004,-0.016,0.995
2026/05/14 10:31:30.831,0.001,-0.01,0.998
2026/05/14 10:31:30.851,0.0,-0.015,0.997
2026/05/14 10:31:30.871,0.004,-0.011,0.997
2026/05/14 10:31:30.891,-0.001,-0.017,0.996
2026/05/14 10:31:30.910,-0.002,-0.016,0.995
2026/05/14 10:31:30.930,0.002,-0.015,0.999
2026/05/14 10:31:30.950,0.001,-0.014,0.999
2026/05/14 10:31:30.970,0.001,-0.018,1.005
2026/05/14 10:31:30.989,0.001,-0.016,1.003
2026/05/14 10:31:31.009,0.004,-0.015,0.996
2026/05/14 10:31:31.029,0.0,-0.011,0.999
2026/05/14 10:31:31.049,0.002,-0.013,0.997
2026/05/14 10:31:31.069,0.004,-0.015,0.998
2026/05/14 10:31:31.088,0.002,-0.015,1.002
2026/05/14 10:31:31.108,-0.001,-0.016,0.997
2026/05/14 10:31:31.128,0.005,-0.012,0.995
2026/05/14 10:31:31.148,0.007,-0.015,0.996
2026/05/14 10:31:31.167,0.0,-0.015,0.998
2026/05/14 10:31:31.187,0.001,-0.014,0.998
2026/05/14 10:31:31.207,0.001,-0.014,1.001
2026/05/14 10:31:31.227,-0.001,-0.016,0.999
2026/05/14 10:31:31.246,0.001,-0.012,0.996
2026/05/14 10:31:31.266,0.004,-0.019,0.996
2026/05/14 10:31:31.286,0.003,-0.008,1.001
2026/05/14 10:31:31.306,0.005,-0.014,0.998
2026/05/14 10:31:31.325,0.002,-0.015,0.998
2026/05/14 10:31:31.345,0.002,-0.016,0.999
2026/05/14 10:31:31.365,-0.001,-0.013,0.999
2026/05/14 10:31:31.385,0.004,-0.014,0.995
2026/05/14 10:31:31.404,0.001,-0.017,0.998
2026/05/14 10:31:31.424,0.001,-0.013,0.999
2026/05/14 10:31:31.444,0.002,-0.013,0.999
2026/05/14 10:31:31.464,0.006,-0.017,1.002
2026/05/14 10:31:31.483,-0.001,-0.017,0.993
2026/05/14 10:31:31.503,0.005,-0.014,0.995
2026/05/14 10:31:31.523,-0.003,-0.014,1.002
2026/05/14 10:31:31.543,0.002,-0.011,1.0
2026/05/14 10:31:31.562,0.001,-0.014,0.999
2026/05/14 10:31:31.582,0.004,-0.013,0.996
2026/05/14 10:31:31.602,0.001,-0.017,0.997
2026/05/14 10:31:31.622,0.0,-0.016,1.0
2026/05/14 10:31:31.641,-0.002,-0.015,1.002
2026/05/14 10:31:31.661,0.0,-0.013,0.999
2026/05/14 10:31:31.681,0.003,-0.016,0.997
2026/05/14 10:31:31.701,-0.001,-0.013,1.001
2026/05/14 10:31:31.720,-0.002,-0.014,0.998
2026/05/14 10:31:31.740,-0.001,-0.02,0.998
2026/05/14 10:31:31.760,0.001,-0.011,0.998
2026/05/14 10:31:31.780,0.002,-0.015,1.0
2026/05/14 10:31:31.799,0.003,-0.017,0.998
2026/05/14 10:31:31.819,0.003,-0.014,0.996
2026/05/14 10:31:31.839,-0.001,-0.015,1.001
2026/05/14 10:31:31.859,0.004,-0.017,0.999
2026/05/14 10:31:31.878,0.0,-0.013,0.999
2026/05/14 10:31:31.898,0.001,-0.017,0.999
2026/05/14 10:31:31.918,0.001,-0.013,1.0
2026/05/14 10:31:31.938,0.0,-0.014,0.999
2026/05/14 10:31:31.958,0.0,-0.014,0.995
2026/05/14 10:31:31.977,0.001,-0.014,1.0
2026/05/14 10:31:31.997,0.0,-0.01,0.997
2026/05/14 10:31:32.017,0.001,-0.017,0.998
2026/05/14 10:31:32.037,0.001,-0.014,0.998
2026/05/14 10:31:32.056,0.001,-0.011,1.003
2026/05/14 10:31:32.076,0.002,-0.016,0.997
2026/05/14 10:31:32.096,0.0,-0.015,0.999
2026/05/14 10:31:32.116,0.004,-0.017,0.997
2026/05/14 10:31:32.135,0.002,-0.013,0.999
2026/05/14 10:31:32.155,0.0,-0.014,0.999
2026/05/14 10:31:32.175,0.003,-0.015,0.997
2026/05/14 10:31:32.195,0.002,-0.011,0.999
2026/05/14 10:31:32.214,-0.001,-0.018,0.998
2026/05/14 10:31:32.234,-0.001,-0.015,0.998
2026/05/14 10:31:32.254,0.002,-0.014,0.999
2026/05/14 10:31:32.274,0.003,-0.014,0.996
2026/05/14 10:31:32.293,0.003,-0.015,1.0
2026/05/14 10:31:32.313,0.002,-0.014,0.998
2026/05/14 10:31:32.333,0.002,-0.019,0.998
2026/05/14 10:31:32.353,0.006,-0.015,1.002
2026/05/14 10:31:32.372,-0.003,-0.014,0.998
2026/05/14 10:31:32.392,0.001,-0.02,0.998
2026/05/14 10:31:32.412,0.004,-0.014,0.998
2026/05/14 10:31:32.432,0.001,-0.014,0.996
2026/05/14 10:31:32.451,-0.002,-0.019,0.998
2026/05/14 10:31:32.471,0.001,-0.016,0.995
2026/05/14 10:31:32.491,0.001,-0.015,1.001
2026/05/14 10:31:32.511,0.007,-0.013,1.003
2026/05/14 10:31:32.530,-0.001,-0.015,0.999
2026/05/14 10:31:32.550,0.006,-0.019,0.997
2026/05/14 10:31:32.570,-0.004,-0.014,1.0
2026/05/14 10:31:32.590,-0.001,-0.016,0.994
2026/05/14 10:31:32.609,0.003,-0.014,1.0
2026/05/14 10:31:32.629,0.0,-0.014,1.001
2026/05/14 10:31:32.649,0.004,-0.014,0.997
2026/05/14 10:31:32.669,0.003,-0.012,1.0
2026/05/14 10:31:32.688,0.001,-0.016,0.995
2026/05/14 10:31:32.708,-0.001,-0.014,0.996
2026/05/14 10:31:32.728,0.002,-0.016,1.001
2026/05/14 10:31:32.748,0.004,-0.016,0.999
2026/05/14 10:31:32.767,0.0,-0.012,1.0
2026/05/14 10:31:32.787,-0.001,-0.015,1.001
2026/05/14 10:31:32.807,0.0,-0.011,0.996
2026/05/14 10:31:32.827,0.0,-0.012,0.993
2026/05/14 10:31:32.846,0.004,-0.012,1.0
2026/05/14 10:31:32.866,-0.002,-0.015,1.001
2026/05/14 10:31:32.886,0.0,-0.016,1.001
2026/05/14 10:31:32.906,0.001,-0.015,0.998
2026/05/14 10:31:32.926,0.0,-0.012,1.001
2026/05/14 10:31:32.945,0.003,-0.015,1.001
2026/05/14 10:31:32.965,0.001,-0.01,0.994
2026/05/14 10:31:32.985,0.001,-0.017,0.997
2026/05/14 10:31:33.005,0.001,-0.013,0.999
2026/05/14 10:31:33.024,0.001,-0.015,0.998
2026/05/14 10:31:33.044,0.002,-0.018,0.998
2026/05/14 10:31:33.064,0.003,-0.014,0.997
2026/05/14 10:31:33.084,0.002,-0.015,1.002
2026/05/14 10:31:33.103,0.001,-0.018,0.998
2026/05/14 10:31:33.123,0.002,-0.015,0.998
2026/05/14 10:31:33.143,0.001,-0.017,0.999
2026/05/14 10:31:33.163,-0.001,-0.017,1.001
2026/05/14 10:31:33.182,-0.001,-0.018,0.999
2026/05/14 10:31:33.202,0.002,-0.012,0.996
2026/05/14 10:31:33.222,0.002,-0.017,0.994
2026/05/14 10:31:33.242,0.003,-0.012,0.997
2026/05/14 10:31:33.261,0.002,-0.016,1.0
2026/05/14 10:31:33.281,0.0,-0.006,1.001
2026/05/14 10:31:33.301,0.0,-0.014,0.996
2026/05/14 10:31:33.321,-0.001,-0.018,1.001
2026/05/14 10:31:33.340,0.001,-0.014,0.999
2026/05/14 10:31:33.360,0.003,-0.014,1.0
2026/05/14 10:31:33.380,0.001,-0.016,0.999
2026/05/14 10:31:33.400,0.003,-0.015,1.0
2026/05/14 10:31:33.419,0.003,-0.015,1.002
2026/05/14 10:31:33.439,0.0,-0.016,1.002
2026/05/14 10:31:33.459,0.004,-0.015,0.994
2026/05/14 10:31:33.479,0.002,-0.018,0.997
2026/05/14 10:31:33.498,-0.001,-0.013,0.996
2026/05/14 10:31:33.518,-0.003,-0.004,0.994
2026/05/14 10:31:33.538,0.003,-0.014,1.006
2026/05/14 10:31:33.558,0.0,-0.011,1.001
2026/05/14 10:31:33.577,-0.002,-0.014,0.996
2026/05/14 10:31:33.597,0.002,-0.015,0.997
2026/05/14 10:31:33.617,0.002,-0.016,0.998
2026/05/14 10:31:33.637,0.004,-0.018,0.994
2026/05/14 10:31:33.656,-0.001,-0.011,1.0
2026/05/14 10:31:33.676,0.004,-0.015,0.999
2026/05/14 10:31:33.696,0.0,-0.014,0.998
2026/05/14 10:31:33.716,0.003,-0.012,0.996
2026/05/14 10:31:33.735,-0.002,-0.015,1.001
2026/05/14 10:31:33.755,0.001,-0.014,1.0
2026/05/14 10:31:33.775,0.002,-0.017,1.001
2026/05/14 10:31:33.795,0.003,-0.014,1.0
2026/05/14 10:31:33.815,0.0,-0.018,0.998
2026/05/14 10:31:33.834,0.002,-0.016,0.996
2026/05/14 10:31:33.854,0.003,-0.015,0.998
2026/05/14 10:31:33.874,0.0,-0.016,0.996
2026/05/14 10:31:33.894,0.004,-0.013,0.999
2026/05/14 10:31:33.913,0.005,-0.013,0.999
2026/05/14 10:31:33.933,0.003,-0.015,0.999
2026/05/14 10:31:33.953,0.004,-0.017,1.001
2026/05/14 10:31:33.973,0.003,-0.015,0.996
2026/05/14 10:31:33.992,0.003,-0.016,1.0
2026/05/14 10:31:34.012,0.002,-0.016,1.0
2026/05/14 10:31:34.032,0.002,-0.017,0.999
2026/05/14 10:31:34.052,0.001,-0.015,0.995
2026/05/14 10:31:34.071,0.0,-0.014,0.998
2026/05/14 10:31:34.091,0.004,-0.017,0.998
2026/05/14 10:31:34.111,-0.001,-0.014,0.995
2026/05/14 10:31:34.131,0.001,-0.017,0.998
2026/05/14 10:31:34.150,0.005,-0.014,0.998
2026/05/14 10:31:34.170,0.001,-0.012,0.999
2026/05/14 10:31:34.190,0.003,-0.015,0.997
2026/05/14 10:31:34.210,0.001,-0.016,1.001
2026/05/14 10:31:34.229,0.0,-0.016,0.995
2026/05/14 10:31:34.249,0.001,-0.017,0.997
2026/05/14 10:31:34.269,0.002,-0.014,0.997
2026/05/14 10:31:34.289,0.002,-0.017,0.998
2026/05/14 10:31:34.308,0.002,-0.012,0.999
2026/05/14 10:31:34.328,-0.001,-0.013,0.996
2026/05/14 10:31:34.348,0.002,-0.013,0.998
2026/05/14 10:31:34.368,0.001,-0.012,0.998
2026/05/14 10:31:34.387,0.004,-0.021,1.002
2026/05/14 10:31:34.407,0.0,-0.015,1.004
2026/05/14 10:31:34.427,0.001,-0.014,0.996
2026/05/14 10:31:34.447,-0.002,-0.015,1.002
2026/05/14 10:31:34.466,0.001,-0.015,0.999
2026/05/14 10:31:34.486,0.001,-0.018,0.999
2026/05/14 10:31:34.506,0.001,-0.016,0.998
2026/05/14 10:31:34.526,0.001,-0.014,0.995
2026/05/14 10:31:34.545,0.002,-0.011,1.001
2026/05/14 10:31:34.565,0.005,-0.013,1.002
2026/05/14 10:31:34.585,0.003,-0.012,1.001
2026/05/14 10:31:34.605,0.0,-0.017,0.994
2026/05/14 10:31:34.624,0.002,-0.019,0.994
2026/05/14 10:31:34.644,0.0,-0.01,0.996
2026/05/14 10:31:34.664,-0.003,-0.013,1.0
2026/05/14 10:31:34.684,0.001,-0.012,1.0
2026/05/14 10:31:34.703,0.001,-0.011,1.0
2026/05/14 10:31:34.723,0.0,-0.013,0.994
2026/05/14 10:31:34.743,0.003,-0.017,0.999
2026/05/14 10:31:34.763,0.002,-0.012,1.001
2026/05/14 10:31:34.783,0.001,-0.013,0.995
2026/05/14 10:31:34.802,0.003,-0.017,1.0
2026/05/14 10:31:34.822,0.002,-0.012,0.994
2026/05/14 10:31:34.842,0.001,-0.013,0.993
2026/05/14 10:31:34.862,-0.003,-0.016,0.991
2026/05/14 10:31:34.881,-0.003,-0.015,1.004
2026/05/14 10:31:34.901,0.001,-0.014,1.0
2026/05/14 10:31:34.921,0.006,-0.012,0.999
2026/05/14 10:31:34.941,0.001,-0.013,0.994
2026/05/14 10:31:34.960,-0.001,-0.016,1.001
2026/05/14 10:31:34.980,0.001,-0.014,0.997
2026/05/14 10:31:35.000,0.0,-0.013,1.004
2026/05/14 10:31:35.020,-0.001,-0.015,1.004
2026/05/14 10:31:35.039,0.002,-0.013,0.999
2026/05/14 10:31:35.059,0.006,-0.014,0.996
2026/05/14 10:31:35.079,-0.001,-0.016,1.0
2026/05/14 10:31:35.099,0.001,-0.014,0.995
2026/05/14 10:31:35.118,0.003,-0.013,1.0
2026/05/14 10:31:35.138,0.002,-0.017,0.998
2026/05/14 10:31:35.158,0.0,-0.011,0.998
2026/05/14 10:31:35.178,0.003,-0.017,0.998
2026/05/14 10:31:35.197,-0.001,-0.014,1.0
2026/05/14 10:31:35.217,0.003,-0.015,1.003
2026/05/14 10:31:35.237,0.003,-0.013,0.995
2026/05/14 10:31:35.257,0.001,-0.017,0.999
2026/05/14 10:31:35.276,0.002,-0.018,1.0
2026/05/14 10:31:35.296,0.003,-0.012,0.999
2026/05/14 10:31:35.316,-0.001,-0.01,0.998
2026/05/14 10:31:35.336,0.0,-0.015,0.999
2026/05/14 10:31:35.355,0.001,-0.014,0.999
2026/05/14 10:31:35.375,0.003,-0.017,1.003
2026/05/14 10:31:35.395,0.004,-0.012,0.994
2026/05/14 10:31:35.415,0.004,-0.014,0.997
2026/05/14 10:31:35.434,0.003,-0.014,1.002
2026/05/14 10:31:35.454,0.002,-0.016,1.001
2026/05/14 10:31:35.474,0.001,-0.018,0.998
2026/05/14 10:31:35.494,0.002,-0.013,0.998
2026/05/14 10:31:35.513,0.001,-0.014,1.001
2026/05/14 10:31:35.533,0.001,-0.013,1.002
2026/05/14 10:31:35.553,0.005,-0.014,0.998
2026/05/14 10:31:35.573,0.002,-0.014,0.998
2026/05/14 10:31:35.592,0.002,-0.014,0.997
2026/05/14 10:31:35.612,-0.004,-0.014,0.996
2026/05/14 10:31:35.632,-0.001,-0.015,0.993
2026/05/14 10:31:35.652,-0.002,-0.013,0.998
2026/05/14 10:31:35.671,0.0,-0.014,0.997
2026/05/14 10:31:35.691,0.002,-0.016,1.0
2026/05/14 10:31:35.711,0.001,-0.013,0.999
2026/05/14 10:31:35.731,-0.001,-0.016,0.999
2026/05/14 10:31:35.751,-0.002,-0.017,0.999
2026/05/14 10:31:35.770,0.001,-0.013,0.994
2026/05/14 10:31:35.790,0.0,-0.015,1.0
2026/05/14 10:31:35.810,0.002,-0.015,0.997
2026/05/14 10:31:35.830,0.0,-0.014,0.995
2026/05/14 10:31:35.849,-0.001,-0.014,1.001
2026/05/14 10:31:35.869,0.001,-0.019,0.996
2026/05/14 10:31:35.889,0.001,-0.015,0.998
2026/05/14 10:31:35.909,0.0,-0.015,0.996
2026/05/14 10:31:35.928,0.0,-0.013,0.999
2026/05/14 10:31:35.948,-0.002,-0.017,1.0
2026/05/14 10:31:35.968,0.006,-0.014,0.997
2026/05/14 10:31:35.988,0.001,-0.015,0.998
2026/05/14 10:31:36.007,0.002,-0.016,0.998
2026/05/14 10:31:36.027,0.003,-0.013,0.997
2026/05/14 10:31:36.047,-0.001,-0.011,1.001
2026/05/14 10:31:36.067,0.0,-0.013,0.997
2026/05/14 10:31:36.086,0.003,-0.013,0.996
2026/05/14 10:31:36.106,0.001,-0.014,0.998
2026/05/14 10:31:36.126,0.0,-0.013,0.998
2026/05/14 10:31:36.146,0.0,-0.014,0.998
2026/05/14 10:31:36.165,0.002,-0.014,0.995
2026/05/14 10:31:36.185,0.003,-0.016,1.002
2026/05/14 10:31:36.205,0.004,-0.013,0.997
2026/05/14 10:31:36.225,-0.001,-0.014,0.999
2026/05/14 10:31:36.244,-0.001,-0.017,0.997
2026/05/14 10:31:36.264,0.003,-0.015,0.999
2026/05/14 10:31:36.284,0.001,-0.018,1.001
2026/05/14 10:31:36.304,0.002,-0.014,0.998
2026/05/14 10:31:36.323,-0.001,-0.017,0.997
2026/05/14 10:31:36.343,0.003,-0.016,0.998
2026/05/14 10:31:36.363,0.002,-0.013,1.0
2026/05/14 10:31:36.383,0.001,-0.014,1.0
2026/05/14 10:31:36.402,-0.001,-0.012,1.0
2026/05/14 10:31:36.422,0.003,-0.017,0.998
2026/05/14 10:31:36.442,0.005,-0.014,1.003
2026/05/14 10:31:36.462,0.004,-0.012,0.994
2026/05/14 10:31:36.481,0.001,-0.015,0.999
2026/05/14 10:31:36.501,-0.003,-0.015,0.995
2026/05/14 10:31:36.521,-0.002,-0.013,1.0
2026/05/14 10:31:36.541,0.003,-0.014,0.999
2026/05/14 10:31:36.560,0.001,-0.015,0.998
2026/05/14 10:31:36.580,0.004,-0.013,1.0
2026/05/14 10:31:36.600,-0.001,-0.018,0.999
2026/05/14 10:31:36.620,0.001,-0.017,0.998
2026/05/14 10:31:36.640,0.002,-0.017,0.997
2026/05/14 10:31:36.659,-0.002,-0.014,1.002
2026/05/14 10:31:36.679,0.0,-0.012,0.998
2026/05/14 10:31:36.699,0.002,-0.014,0.999
2026/05/14 10:31:36.719,-0.001,-0.014,0.997
2026/05/14 10:31:36.738,0.003,-0.013,0.999
2026/05/14 10:31:36.758,0.002,-0.015,0.999
2026/05/14 10:31:36.778,0.001,-0.013,0.997
2026/05/14 10:31:36.798,0.003,-0.014,1.001
2026/05/14 10:31:36.817,0.0,-0.014,1.0
2026/05/14 10:31:36.837,0.002,-0.018,0.998
2026/05/14 10:31:36.857,0.001,-0.014,1.0
2026/05/14 10:31:36.877,-0.002,-0.014,1.002
2026/05/14 10:31:36.896,0.002,-0.014,0.996
2026/05/14 10:31:36.916,-0.004,-0.012,1.0
2026/05/14 10:31:36.936,0.0,-0.018,0.999
2026/05/14 10:31:36.956,0.0,-0.015,1.002
2026/05/14 10:31:36.975,-0.002,-0.017,0.997
2026/05/14 10:31:36.995,0.004,-0.018,1.0
2026/05/14 10:31:37.015,0.002,-0.01,0.998
2026/05/14 10:31:37.035,0.0,-0.016,1.002
2026/05/14 10:31:37.054,0.002,-0.015,0.996
2026/05/14 10:31:37.074,0.001,-0.013,1.0
2026/05/14 10:31:37.094,0.002,-0.018,0.999
2026/05/14 10:31:37.114,-0.002,-0.017,1.0
2026/05/14 10:31:37.133,-0.001,-0.018,1.002
2026/05/14 10:31:37.153,0.003,-0.014,1.0
2026/05/14 10:31:37.173,0.001,-0.015,1.002
2026/05/14 10:31:37.193,-0.001,-0.015,0.997
2026/05/14 10:31:37.212,-0.001,-0.015,0.997
2026/05/14 10:31:37.232,0.004,-0.015,0.999
2026/05/14 10:31:37.252,0.004,-0.013,0.998
2026/05/14 10:31:37.272,0.001,-0.015,0.999
2026/05/14 10:31:37.291,0.003,-0.016,0.998
2026/05/14 10:31:37.311,0.003,-0.013,0.998
2026/05/14 10:31:37.331,0.006,-0.017,0.995
2026/05/14 10:31:37.351,-0.001,-0.017,1.0
2026/05/14 10:31:37.370,0.0,-0.009,0.999
2026/05/14 10:31:37.390,0.003,-0.014,1.0
2026/05/14 10:31:37.410,0.002,-0.013,0.997
2026/05/14 10:31:37.430,0.003,-0.016,0.998
2026/05/14 10:31:37.449,0.002,-0.015,0.998
2026/05/14 10:31:37.469,-0.001,-0.012,0.998
2026/05/14 10:31:37.489,0.003,-0.017,1.0
2026/05/14 10:31:37.509,0.001,-0.011,0.999
2026/05/14 10:31:37.529,0.001,-0.016,0.997
2026/05/14 10:31:37.548,0.003,-0.012,0.996
2026/05/14 10:31:37.568,0.004,-0.017,0.995
2026/05/14 10:31:37.588,0.0,-0.011,1.0
2026/05/14 10:31:37.608,-0.001,-0.014,0.997
2026/05/14 10:31:37.627,0.0,-0.018,0.997
2026/05/14 10:31:37.647,0.001,-0.009,0.996
2026/05/14 10:31:37.667,0.002,-0.02,0.999
2026/05/14 10:31:37.687,0.0,-0.015,0.997
2026/05/14 10:31:37.706,0.002,-0.014,0.999
2026/05/14 10:31:37.726,-0.001,-0.011,1.0
2026/05/14 10:31:37.746,0.003,-0.012,0.993
2026/05/14 10:31:37.766,0.0,-0.014,1.004
2026/05/14 10:31:37.785,-0.002,-0.014,1.002
2026/05/14 10:31:37.805,0.0,-0.017,1.001
2026/05/14 10:31:37.825,0.002,-0.016,0.997
2026/05/14 10:31:37.845,0.005,-0.014,0.997
2026/05/14 10:31:37.864,0.003,-0.017,0.997
2026/05/14 10:31:37.884,0.006,-0.016,1.0
2026/05/14 10:31:37.904,0.003,-0.013,0.994
2026/05/14 10:31:37.924,-0.001,-0.012,0.998
2026/05/14 10:31:37.943,0.003,-0.014,0.998
2026/05/14 10:31:37.963,0.001,-0.016,1.0
2026/05/14 10:31:37.983,0.0,-0.017,1.001
2026/05/14 10:31:38.003,0.0,-0.013,1.0
2026/05/14 10:31:38.022,-0.001,-0.012,0.998
2026/05/14 10:31:38.042,0.003,-0.019,0.999
2026/05/14 10:31:38.062,0.001,-0.013,0.996
2026/05/14 10:31:38.082,0.002,-0.021,0.997
2026/05/14 10:31:38.101,0.001,-0.014,0.998
2026/05/14 10:31:38.121,0.004,-0.014,0.999
2026/05/14 10:31:38.141,0.003,-0.013,0.997
2026/05/14 10:31:38.161,0.002,-0.016,0.997
2026/05/14 10:31:38.180,0.0,-0.018,0.997
2026/05/14 10:31:38.200,0.007,-0.019,0.997
2026/05/14 10:31:38.220,0.0,-0.014,0.998
2026/05/14 10:31:38.240,0.0,-0.014,0.999
2026/05/14 10:31:38.259,0.004,-0.014,0.998
2026/05/14 10:31:38.279,0.002,-0.013,0.996
2026/05/14 10:31:38.299,0.001,-0.014,0.998
2026/05/14 10:31:38.319,0.001,-0.015,1.0
2026/05/14 10:31:38.339,0.0,-0.014,0.999
2026/05/14 10:31:38.358,0.004,-0.016,0.997
2026/05/14 10:31:38.378,0.003,-0.017,1.001
2026/05/14 10:31:38.398,0.003,-0.015,0.996
2026/05/14 10:31:38.418,-0.001,-0.014,0.994
2026/05/14 10:31:38.437,0.0,-0.014,1.002
2026/05/14 10:31:38.457,0.001,-0.014,0.998
2026/05/14 10:31:38.477,-0.001,-0.014,1.002
2026/05/14 10:31:38.497,0.001,-0.021,1.0
2026/05/14 10:31:38.516,0.0,-0.014,0.998
2026/05/14 10:31:38.536,0.003,-0.011,0.998
2026/05/14 10:31:38.556,0.002,-0.015,1.002
2026/05/14 10:31:38.576,0.002,-0.014,0.998
2026/05/14 10:31:38.595,-0.002,-0.015,0.996
2026/05/14 10:31:38.615,0.0,-0.013,0.996
2026/05/14 10:31:38.635,0.0,-0.016,0.999
2026/05/14 10:31:38.655,0.001,-0.015,0.999
2026/05/14 10:31:38.674,0.005,-0.012,0.999
2026/05/14 10:31:38.694,0.0,-0.012,0.993
2026/05/14 10:31:38.714,-0.002,-0.014,0.993
2026/05/14 10:31:38.734,-0.001,-0.02,0.993
2026/05/14 10:31:38.753,0.001,-0.016,1.0
2026/05/14 10:31:38.773,0.0,-0.016,0.998
2026/05/14 10:31:38.793,0.005,-0.012,1.002
2026/05/14 10:31:38.813,0.003,-0.013,1.0
2026/05/14 10:31:38.832,-0.001,-0.014,0.993
2026/05/14 10:31:38.852,0.007,-0.014,1.003
2026/05/14 10:31:38.872,0.003,-0.009,1.001
2026/05/14 10:31:38.892,0.001,-0.017,1.0
2026/05/14 10:31:38.911,0.001,-0.011,0.998
2026/05/14 10:31:38.931,0.003,-0.011,1.002
2026/05/14 10:31:38.951,-0.001,-0.017,1.003
2026/05/14 10:31:38.971,0.002,-0.02,1.001
2026/05/14 10:31:38.990,0.0,-0.014,0.994
2026/05/14 10:31:39.010,-0.001,-0.012,0.993
2026/05/14 10:31:39.030,0.003,-0.018,0.998
2026/05/14 10:31:39.050,0.0,-0.014,0.997
2026/05/14 10:31:39.069,-0.003,-0.017,0.991
2026/05/14 10:31:39.089,-0.002,-0.018,0.99
2026/05/14 10:31:39.109,0.001,-0.013,0.996
2026/05/14 10:31:39.129,0.0,-0.014,0.998
2026/05/14 10:31:39.149,0.0,-0.011,1.003
2026/05/14 10:31:39.168,0.001,-0.015,1.002
2026/05/14 10:31:39.188,-0.001,-0.014,0.997
2026/05/14 10:31:39.208,0.003,-0.014,0.999
2026/05/14 10:31:39.228,0.001,-0.014,1.002
2026/05/14 10:31:39.247,-0.001,-0.014,0.999
2026/05/14 10:31:39.267,0.0,-0.012,1.002
2026/05/14 10:31:39.287,0.0,-0.018,0.997
2026/05/14 10:31:39.307,0.003,-0.011,0.998
2026/05/14 10:31:39.326,-0.002,-0.021,0.993
2026/05/14 10:31:39.346,0.0,-0.009,0.994
2026/05/14 10:31:39.366,-0.004,-0.015,1.0
2026/05/14 10:31:39.386,-0.001,-0.013,0.997
2026/05/14 10:31:39.405,0.001,-0.017,0.996
2026/05/14 10:31:39.425,0.001,-0.015,1.0
2026/05/14 10:31:39.445,-0.003,-0.015,0.998
2026/05/14 10:31:39.465,0.002,-0.018,0.997
2026/05/14 10:31:39.484,-0.001,-0.015,0.998
2026/05/14 10:31:39.504,0.002,-0.01,0.998
2026/05/14 10:31:39.524,0.002,-0.011,0.998
2026/05/14 10:31:39.544,0.001,-0.016,0.995
2026/05/14 10:31:39.563,-0.001,-0.017,0.999
2026/05/14 10:31:39.583,0.003,-0.014,1.003
2026/05/14 10:31:39.603,0.0,-0.012,0.998
2026/05/14 10:31:39.623,0.002,-0.015,0.999
2026/05/14 10:31:39.642,0.001,-0.014,0.999
2026/05/14 10:31:39.662,-0.001,-0.013,0.998
2026/05/14 10:31:39.682,0.001,-0.009,1.0
2026/05/14 10:31:39.702,0.004,-0.018,0.998
2026/05/14 10:31:39.721,0.002,-0.012,1.001
2026/05/14 10:31:39.741,-0.007,-0.014,0.998
2026/05/14 10:31:39.761,0.003,-0.015,1.0
2026/05/14 10:31:39.781,0.0,-0.016,1.002
2026/05/14 10:31:39.800,0.0,-0.016,1.003
2026/05/14 10:31:39.820,0.0,-0.014,0.998
2026/05/14 10:31:39.840,0.002,-0.016,1.0
2026/05/14 10:31:39.860,0.001,-0.014,0.998
2026/05/14 10:31:39.879,0.0,-0.018,1.001
2026/05/14 10:31:39.899,0.004,-0.019,0.996
2026/05/14 10:31:39.919,0.004,-0.014,0.999
2026/05/14 10:31:39.939,0.001,-0.009,0.997
2026/05/14 10:31:39.958,0.0,-0.016,0.996
2026/05/14 10:31:39.978,0.002,-0.014,1.002
2026/05/14 10:31:39.998,0.005,-0.019,0.998
2026/05/14 10:31:40.018,-0.001,-0.014,0.999
2026/05/14 10:31:40.038,0.001,-0.015,1.001
2026/05/14 10:31:40.057,-0.001,-0.015,1.001
2026/05/14 10:31:40.077,0.001,-0.013,0.999
2026/05/14 10:31:40.097,0.0,-0.013,1.004
2026/05/14 10:31:40.117,0.003,-0.014,1.001
2026/05/14 10:31:40.136,0.001,-0.013,0.998
2026/05/14 10:31:40.156,0.0,-0.016,0.997
2026/05/14 10:31:40.176,0.004,-0.019,1.003
2026/05/14 10:31:40.196,0.0,-0.012,0.997
2026/05/14 10:31:40.215,-0.001,-0.021,0.995
2026/05/14 10:31:40.235,0.0,-0.01,1.0
2026/05/14 10:31:40.255,-0.001,-0.016,0.998
2026/05/14 10:31:40.275,0.006,-0.012,1.0
2026/05/14 10:31:40.294,0.003,-0.014,1.002
2026/05/14 10:31:40.314,0.004,-0.019,0.999
2026/05/14 10:31:40.334,-0.001,-0.014,0.998
2026/05/14 10:31:40.354,0.002,-0.017,1.002
2026/05/14 10:31:40.373,0.001,-0.017,1.001
2026/05/14 10:31:40.393,-0.005,-0.019,0.99
2026/05/14 10:31:40.413,0.002,-0.015,0.999
2026/05/14 10:31:40.433,-0.001,-0.012,1.002
2026/05/14 10:31:40.452,-0.006,-0.011,0.997
2026/05/14 10:31:40.472,-0.007,-0.015,0.995
2026/05/14 10:31:40.492,0.003,-0.013,0.999
2026/05/14 10:31:40.512,0.001,-0.02,0.994
2026/05/14 10:31:40.531,0.001,-0.014,1.0
2026/05/14 10:31:40.551,0.002,-0.017,0.996
2026/05/14 10:31:40.571,0.005,-0.013,0.993
2026/05/14 10:31:40.591,0.003,-0.017,1.003
2026/05/14 10:31:40.610,-0.002,-0.015,0.994
2026/05/14 10:31:40.630,0.0,-0.016,0.996
2026/05/14 10:31:40.650,0.0,-0.012,1.001
2026/05/14 10:31:40.670,0.004,-0.014,1.001
2026/05/14 10:31:40.689,0.003,-0.016,0.989
2026/05/14 10:31:40.709,0.002,-0.016,0.996
2026/05/14 10:31:40.729,0.002,-0.014,1.0
2026/05/14 10:31:40.749,0.001,-0.017,0.995
2026/05/14 10:31:40.768,0.003,-0.014,0.999
2026/05/14 10:31:40.788,-0.001,-0.014,1.002
2026/05/14 10:31:40.808,0.002,-0.015,0.995
2026/05/14 10:31:40.828,0.0,-0.012,0.995
2026/05/14 10:31:40.848,-0.004,-0.018,0.997
2026/05/14 10:31:40.867,0.0,-0.01,1.001
2026/05/14 10:31:40.887,0.001,-0.013,1.002
2026/05/14 10:31:40.907,0.003,-0.018,1.0
2026/05/14 10:31:40.927,0.003,-0.014,0.995
2026/05/14 10:31:40.946,0.001,-0.014,0.999
2026/05/14 10:31:40.966,0.001,-0.012,1.0
2026/05/14 10:31:40.986,0.0,-0.016,0.995
2026/05/14 10:31:41.006,-0.001,-0.015,1.002
2026/05/14 10:31:41.025,0.002,-0.012,0.998
2026/05/14 10:31:41.045,-0.001,-0.017,0.999
2026/05/14 10:31:41.065,0.0,-0.013,0.999
2026/05/14 10:31:41.085,0.001,-0.019,0.999
2026/05/14 10:31:41.104,-0.002,-0.016,1.003
2026/05/14 10:31:41.124,-0.001,-0.017,1.0
2026/05/14 10:31:41.144,-0.004,-0.015,0.996
2026/05/14 10:31:41.164,0.001,-0.016,0.997
2026/05/14 10:31:41.183,0.002,-0.012,0.997
2026/05/14 10:31:41.203,0.001,-0.014,1.005
2026/05/14 10:31:41.223,-0.002,-0.015,0.99
2026/05/14 10:31:41.243,-0.003,-0.012,1.001
2026/05/14 10:31:41.262,0.001,-0.009,0.998
2026/05/14 10:31:41.282,0.0,-0.014,0.996
2026/05/14 10:31:41.302,0.0,-0.015,0.998
2026/05/14 10:31:41.322,0.002,-0.015,0.998
2026/05/14 10:31:41.341,-0.002,-0.015,0.997
2026/05/14 10:31:41.361,0.003,-0.012,1.001
2026/05/14 10:31:41.381,0.003,-0.016,0.999
2026/05/14 10:31:41.401,0.004,-0.015,1.004
2026/05/14 10:31:41.420,0.007,-0.015,1.003
2026/05/14 10:31:41.440,0.0,-0.017,1.0
2026/05/14 10:31:41.460,0.002,-0.014,0.993
2026/05/14 10:31:41.480,0.0,-0.017,0.989
2026/05/14 10:31:41.499,0.006,-0.015,1.001
2026/05/14 10:31:41.519,0.0,-0.009,0.999
2026/05/14 10:31:41.539,0.002,-0.011,1.003
2026/05/14 10:31:41.559,0.001,-0.015,0.997
2026/05/14 10:31:41.578,-0.001,-0.011,0.997
2026/05/14 10:31:41.598,0.001,-0.013,1.0
2026/05/14 10:31:41.618,0.002,-0.016,1.0
2026/05/14 10:31:41.638,0.002,-0.014,1.001
2026/05/14 10:31:41.658,0.0,-0.015,1.0
2026/05/14 10:31:41.677,0.004,-0.015,0.997
2026/05/14 10:31:41.697,-0.002,-0.016,1.002
2026/05/14 10:31:41.717,0.002,-0.015,1.003
2026/05/14 10:31:41.737,-0.001,-0.014,1.0
2026/05/14 10:31:41.756,0.001,-0.016,0.996
2026/05/14 10:31:41.776,0.003,-0.017,1.0
2026/05/14 10:31:41.796,-0.002,-0.014,1.002
2026/05/14 10:31:41.816,0.003,-0.018,0.997
2026/05/14 10:31:41.835,0.001,-0.018,1.002
2026/05/14 10:31:41.855,0.001,-0.014,0.997
2026/05/14 10:31:41.875,0.006,-0.013,0.995
2026/05/14 10:31:41.895,0.004,-0.014,0.999
2026/05/14 10:31:41.914,0.003,-0.012,0.999
2026/05/14 10:31:41.934,0.001,-0.017,0.999
2026/05/14 10:31:41.954,-0.001,-0.016,1.002
2026/05/14 10:31:41.974,0.001,-0.013,0.993
2026/05/14 10:31:41.993,-0.001,-0.015,1.0
2026/05/14 10:31:42.013,-0.001,-0.015,0.999
2026/05/14 10:31:42.033,0.0,-0.019,1.003
2026/05/14 10:31:42.053,0.0,-0.015,0.997
2026/05/14 10:31:42.072,0.001,-0.012,0.997
2026/05/14 10:31:42.092,0.002,-0.016,0.992
2026/05/14 10:31:42.112,-0.001,-0.014,0.998
2026/05/14 10:31:42.132,-0.001,-0.014,1.002
2026/05/14 10:31:42.151,0.002,-0.016,1.005
2026/05/14 10:31:42.171,-0.002,-0.017,0.994
2026/05/14 10:31:42.191,-0.003,-0.017,0.996
2026/05/14 10:31:42.211,0.002,-0.016,0.999
2026/05/14 10:31:42.230,0.0,-0.017,0.999
2026/05/14 10:31:42.250,-0.001,-0.016,0.999
2026/05/14 10:31:42.270,0.001,-0.016,0.995
2026/05/14 10:31:42.290,-0.001,-0.018,0.995
2026/05/14 10:31:42.309,0.004,-0.017,0.998
2026/05/14 10:31:42.329,0.004,-0.014,0.997
2026/05/14 10:31:42.349,-0.001,-0.018,0.999
2026/05/14 10:31:42.369,-0.002,-0.014,0.998
2026/05/14 10:31:42.388,0.0,-0.013,0.997
2026/05/14 10:31:42.408,0.002,-0.013,0.999
2026/05/14 10:31:42.428,0.0,-0.013,0.998
2026/05/14 10:31:42.448,0.0,-0.019,1.001
2026/05/14 10:31:42.468,0.002,-0.015,0.999
2026/05/14 10:31:42.487,0.005,-0.013,0.998
2026/05/14 10:31:42.507,0.0,-0.016,0.998
2026/05/14 10:31:42.527,0.002,-0.016,0.999
2026/05/14 10:31:42.547,0.002,-0.014,0.998
2026/05/14 10:31:42.566,-0.002,-0.013,0.997
2026/05/14 10:31:42.586,0.002,-0.014,1.003
2026/05/14 10:31:42.606,-0.001,-0.013,0.997
2026/05/14 10:31:42.626,-0.001,-0.015,1.0
2026/05/14 10:31:42.645,-0.003,-0.013,1.0
2026/05/14 10:31:42.665,0.001,-0.013,0.999
2026/05/14 10:31:42.685,0.0,-0.013,0.996
2026/05/14 10:31:42.705,-0.001,-0.016,0.999
2026/05/14 10:31:42.724,0.002,-0.015,0.997
