Timestamp,ACC X,ACC Y,ACC Z
2026/05/14 10:30:57.315,-0.023,-0.067,1.007
2026/05/14 10:30:57.334,-0.022,-0.063,1.007
2026/05/14 10:30:57.353,-0.023,-0.061,1.003
2026/05/14 10:30:57.372,-0.021,-0.065,1.007
2026/05/14 10:30:57.391,-0.022,-0.067,1.009
2026/05/14 10:30:57.411,-0.021,-0.065,1.008
2026/05/14 10:30:57.430,-0.023,-0.068,1.004
2026/05/14 10:30:57.449,-0.021,-0.063,1.013
2026/05/14 10:30:57.468,-0.021,-0.064,1.008
2026/05/14 10:30:57.488,-0.022,-0.065,1.008
2026/05/14 10:30:57.507,-0.022,-0.063,1.01
2026/05/14 10:30:57.526,-0.022,-0.064,1.011
2026/05/14 10:30:57.545,-0.02,-0.064,1.009
2026/05/14 10:30:57.565,-0.02,-0.063,1.006
2026/05/14 10:30:57.584,-0.025,-0.062,1.01
2026/05/14 10:30:57.603,-0.022,-0.061,1.006
2026/05/14 10:30:57.622,-0.019,-0.064,1.009
2026/05/14 10:30:57.641,-0.023,-0.066,1.011
2026/05/14 10:30:57.661,-0.022,-0.064,1.007
2026/05/14 10:30:57.680,-0.022,-0.062,1.007
2026/05/14 10:30:57.699,-0.023,-0.058,1.008
2026/05/14 10:30:57.718,-0.023,-0.062,1.01
2026/05/14 10:30:57.738,-0.021,-0.06,1.007
2026/05/14 10:30:57.757,-0.021,-0.064,1.008
2026/05/14 10:30:57.776,-0.02,-0.058,1.006
2026/05/14 10:30:57.795,-0.02,-0.062,1.012
2026/05/14 10:30:57.815,-0.024,-0.064,1.008
2026/05/14 10:30:57.834,-0.019,-0.061,1.009
2026/05/14 10:30:57.853,-0.022,-0.065,1.013
2026/05/14 10:30:57.872,-0.022,-0.067,1.01
2026/05/14 10:30:57.891,-0.018,-0.065,1.006
2026/05/14 10:30:57.911,-0.022,-0.061,1.01
2026/05/14 10:30:57.930,-0.019,-0.062,1.009
2026/05/14 10:30:57.949,-0.021,-0.063,1.01
2026/05/14 10:30:57.968,-0.021,-0.066,1.008
2026/05/14 10:30:57.988,-0.021,-0.064,1.005
2026/05/14 10:30:58.007,-0.022,-0.061,1.008
2026/05/14 10:30:58.026,-0.02,-0.066,1.008
2026/05/14 10:30:58.045,-0.02,-0.065,1.011
2026/05/14 10:30:58.065,-0.023,-0.064,1.009
2026/05/14 10:30:58.084,-0.022,-0.065,1.011
2026/05/14 10:30:58.103,-0.024,-0.062,1.007
2026/05/14 10:30:58.122,-0.021,-0.064,1.01
2026/05/14 10:30:58.141,-0.02,-0.062,1.006
2026/05/14 10:30:58.161,-0.021,-0.064,1.008
2026/05/14 10:30:58.180,-0.023,-0.064,1.011
2026/05/14 10:30:58.199,-0.021,-0.063,1.013
2026/05/14 10:30:58.218,-0.021,-0.066,1.013
2026/05/14 10:30:58.238,-0.023,-0.061,1.005
2026/05/14 10:30:58.257,-0.026,-0.063,1.01
2026/05/14 10:30:58.276,-0.02,-0.068,1.01
2026/05/14 10:30:58.295,-0.024,-0.062,1.008
2026/05/14 10:30:58.315,-0.022,-0.062,1.008
2026/05/14 10:30:58.334,-0.024,-0.066,1.007
2026/05/14 10:30:58.353,-0.026,-0.069,1.01
2026/05/14 10:30:58.372,-0.021,-0.059,1.02
2026/05/14 10:30:58.391,-0.025,-0.062,0.989
2026/05/14 10:30:58.411,-0.024,-0.063,1.017
2026/05/14 10:30:58.430,-0.02,-0.062,1.0
2026/05/14 10:30:58.449,-0.023,-0.062,1.014
2026/05/14 10:30:58.468,-0.024,-0.064,1.008
2026/05/14 10:30:58.488,-0.021,-0.066,1.009
2026/05/14 10:30:58.507,-0.021,-0.064,1.013
2026/05/14 10:30:58.526,-0.022,-0.066,1.011
2026/05/14 10:30:58.545,-0.024,-0.061,1.011
2026/05/14 10:30:58.565,-0.023,-0.063,1.004
2026/05/14 10:30:58.584,-0.023,-0.066,0.998
2026/05/14 10:30:58.603,-0.023,-0.061,1.009
2026/05/14 10:30:58.622,-0.021,-0.066,1.007
2026/05/14 10:30:58.641,-0.019,-0.066,1.008
2026/05/14 10:30:58.661,-0.025,-0.063,1.012
2026/05/14 10:30:58.680,-0.022,-0.065,1.009
2026/05/14 10:30:58.699,-0.021,-0.061,1.009
2026/05/14 10:30:58.718,-0.023,-0.06,1.008
2026/05/14 10:30:58.738,-0.023,-0.064,1.009
2026/05/14 10:30:58.757,-0.026,-0.067,1.008
2026/05/14 10:30:58.776,-0.019,-0.065,1.01
2026/05/14 10:30:58.795,-0.02,-0.063,1.011
2026/05/14 10:30:58.815,-0.018,-0.06,1.008
2026/05/14 10:30:58.834,-0.021,-0.061,1.01
2026/05/14 10:30:58.853,-0.02,-0.062,1.007
2026/05/14 10:30:58.872,-0.02,-0.062,1.008
2026/05/14 10:30:58.891,-0.024,-0.064,1.013
2026/05/14 10:30:58.911,-0.021,-0.067,1.011
2026/05/14 10:30:58.930,-0.021,-0.063,1.008
2026/05/14 10:30:58.949,-0.022,-0.062,1.007
2026/05/14 10:30:58.968,-0.025,-0.062,1.008
2026/05/14 10:30:58.988,-0.02,-0.063,1.009
2026/05/14 10:30:59.007,-0.024,-0.064,1.012
2026/05/14 10:30:59.026,-0.02,-0.061,1.001
2026/05/14 10:30:59.045,-0.024,-0.062,1.011
2026/05/14 10:30:59.065,-0.021,-0.062,1.008
2026/05/14 10:30:59.084,-0.022,-0.066,1.007
2026/05/14 10:30:59.103,-0.023,-0.063,1.008
2026/05/14 10:30:59.122,-0.025,-0.063,1.008
2026/05/14 10:30:59.141,-0.023,-0.065,1.007
2026/05/14 10:30:59.161,-0.02,-0.067,1.01
2026/05/14 10:30:59.180,-0.023,-0.066,1.007
2026/05/14 10:30:59.199,-0.021,-0.059,1.013
2026/05/14 10:30:59.218,-0.026,-0.065,1.004
2026/05/14 10:30:59.238,-0.024,-0.06,1.009
2026/05/14 10:30:59.257,-0.021,-0.061,1.007
2026/05/14 10:30:59.276,-0.021,-0.067,1.009
2026/05/14 10:30:59.295,-0.023,-0.062,1.01
2026/05/14 10:30:59.315,-0.021,-0.065,1.008
2026/05/14 10:30:59.334,-0.024,-0.061,1.009
2026/05/14 10:30:59.353,-0.025,-0.063,1.007
2026/05/14 10:30:59.372,-0.022,-0.065,1.008
2026/05/14 10:30:59.391,-0.023,-0.067,1.013
2026/05/14 10:30:59.411,-0.024,-0.067,1.012
2026/05/14 10:30:59.430,-0.023,-0.066,1.005
2026/05/14 10:30:59.449,-0.026,-0.065,1.022
2026/05/14 10:30:59.468,-0.021,-0.065,1.007
2026/05/14 10:30:59.488,-0.022,-0.067,1.004
2026/05/14 10:30:59.507,-0.022,-0.066,1.014
2026/05/14 10:30:59.526,-0.022,-0.065,1.003
2026/05/14 10:30:59.545,-0.021,-0.062,1.01
2026/05/14 10:30:59.565,-0.024,-0.067,1.013
2026/05/14 10:30:59.584,-0.023,-0.066,1.011
2026/05/14 10:30:59.603,-0.024,-0.063,1.01
2026/05/14 10:30:59.622,-0.022,-0.063,1.009
2026/05/14 10:30:59.641,-0.021,-0.064,1.007
2026/05/14 10:30:59.661,-0.02,-0.066,1.003
2026/05/14 10:30:59.681,-0.023,-0.065,1.011
2026/05/14 10:30:59.701,-0.023,-0.064,1.005
2026/05/14 10:30:59.721,-0.02,-0.067,1.009
2026/05/14 10:30:59.741,-0.021,-0.059,1.01
2026/05/14 10:30:59.761,-0.021,-0.065,1.005
2026/05/14 10:30:59.781,-0.025,-0.063,1.008
2026/05/14 10:30:59.801,-0.023,-0.069,1.009
2026/05/14 10:30:59.821,-0.021,-0.059,1.008
2026/05/14 10:30:59.841,-0.02,-0.06,1.011
2026/05/14 10:30:59.861,-0.02,-0.062,1.007
2026/05/14 10:30:59.881,-0.021,-0.067,1.012
2026/05/14 10:30:59.901,-0.021,-0.065,1.009
2026/05/14 10:30:59.921,-0.022,-0.067,1.013
2026/05/14 10:30:59.941,-0.025,-0.062,1.008
2026/05/14 10:30:59.961,-0.018,-0.062,1.009
2026/05/14 10:30:59.981,-0.018,-0.062,1.01
2026/05/14 10:31:00.001,-0.023,-0.065,1.009
2026/05/14 10:31:00.021,-0.02,-0.065,1.008
2026/05/14 10:31:00.042,-0.023,-0.064,1.01
2026/05/14 10:31:00.062,-0.027,-0.067,1.009
2026/05/14 10:31:00.082,-0.023,-0.068,1.01
2026/05/14 10:31:00.102,-0.021,-0.065,1.011
2026/05/14 10:31:00.122,-0.023,-0.067,1.012
2026/05/14 10:31:00.142,-0.022,-0.065,1.011
2026/05/14 10:31:00.162,-0.022,-0.065,1.017
2026/05/14 10:31:00.182,-0.02,-0.062,1.005
2026/05/14 10:31:00.202,-0.025,-0.065,1.01
2026/05/14 10:31:00.222,-0.023,-0.065,1.01
2026/05/14 10:31:00.242,-0.02,-0.063,1.011
2026/05/14 10:31:00.262,-0.025,-0.065,1.004
2026/05/14 10:31:00.282,-0.024,-0.068,1.011
2026/05/14 10:31:00.302,-0.024,-0.061,1.009
2026/05/14 10:31:00.322,-0.023,-0.066,1.013
2026/05/14 10:31:00.342,-0.026,-0.066,1.009
2026/05/14 10:31:00.362,-0.022,-0.061,1.011
2026/05/14 10:31:00.382,-0.024,-0.062,1.011
2026/05/14 10:31:00.402,-0.021,-0.065,1.009
2026/05/14 10:31:00.422,-0.025,-0.06,1.009
2026/05/14 10:31:00.442,-0.022,-0.059,1.008
2026/05/14 10:31:00.462,-0.016,-0.063,1.011
2026/05/14 10:31:00.482,-0.019,-0.061,1.011
2026/05/14 10:31:00.503,-0.024,-0.065,1.009
2026/05/14 10:31:00.523,-0.023,-0.068,1.011
2026/05/14 10:31:00.543,-0.019,-0.064,1.014
2026/05/14 10:31:00.563,-0.017,-0.063,1.014
2026/05/14 10:31:00.583,-0.02,-0.063,1.009
2026/05/14 10:31:00.603,-0.023,-0.061,1.006
2026/05/14 10:31:00.623,-0.02,-0.063,1.016
2026/05/14 10:31:00.643,-0.02,-0.069,1.006
2026/05/14 10:31:00.663,-0.024,-0.069,1.011
2026/05/14 10:31:00.683,-0.022,-0.062,1.002
2026/05/14 10:31:00.703,-0.022,-0.064,1.007
2026/05/14 10:31:00.723,-0.023,-0.064,1.012
2026/05/14 10:31:00.743,-0.02,-0.06,1.004
2026/05/14 10:31:00.763,-0.02,-0.066,1.012
2026/05/14 10:31:00.783,-0.022,-0.062,1.007
2026/05/14 10:31:00.803,-0.02,-0.064,1.011
2026/05/14 10:31:00.823,-0.022,-0.062,1.002
2026/05/14 10:31:00.843,-0.019,-0.063,1.007
2026/05/14 10:31:00.863,-0.016,-0.066,1.012
2026/05/14 10:31:00.883,-0.022,-0.066,1.014
2026/05/14 10:31:00.903,-0.022,-0.063,1.007
2026/05/14 10:31:00.923,-0.021,-0.067,1.004
2026/05/14 10:31:00.944,-0.023,-0.064,1.015
2026/05/14 10:31:00.964,-0.021,-0.059,1.005
2026/05/14 10:31:00.984,-0.026,-0.064,1.012
2026/05/14 10:31:01.004,-0.025,-0.062,1.015
2026/05/14 10:31:01.024,-0.024,-0.063,1.03
2026/05/14 10:31:01.044,-0.023,-0.06,0.999
2026/05/14 10:31:01.064,-0.022,-0.067,1.015
2026/05/14 10:31:01.084,-0.024,-0.062,1.002
2026/05/14 10:31:01.104,-0.02,-0.063,1.015
2026/05/14 10:31:01.124,-0.022,-0.067,1.01
2026/05/14 10:31:01.144,-0.022,-0.063,1.008
2026/05/14 10:31:01.164,-0.021,-0.063,1.011
2026/05/14 10:31:01.184,-0.024,-0.065,1.009
2026/05/14 10:31:01.204,-0.022,-0.062,1.011
2026/05/14 10:31:01.224,-0.02,-0.066,1.01
2026/05/14 10:31:01.244,-0.023,-0.062,1.007
2026/05/14 10:31:01.264,-0.023,-0.062,1.01
2026/05/14 10:31:01.284,-0.019,-0.061,1.008
2026/05/14 10:31:01.304,-0.023,-0.061,1.01
2026/05/14 10:31:01.324,-0.021,-0.063,1.013
2026/05/14 10:31:01.344,-0.022,-0.064,1.008
2026/05/14 10:31:01.364,-0.019,-0.064,1.006
2026/05/14 10:31:01.384,-0.021,-0.06,1.013
2026/05/14 10:31:01.405,-0.017,-0.061,1.01
2026/05/14 10:31:01.425,-0.022,-0.062,1.012
2026/05/14 10:31:01.445,-0.024,-0.062,1.011
2026/05/14 10:31:01.465,-0.024,-0.066,1.006
2026/05/14 10:31:01.485,-0.019,-0.063,1.01
2026/05/14 10:31:01.505,-0.021,-0.064,1.008
2026/05/14 10:31:01.525,-0.021,-0.061,1.011
2026/05/14 10:31:01.545,-0.022,-0.061,1.012
2026/05/14 10:31:01.565,-0.021,-0.069,1.012
2026/05/14 10:31:01.585,-0.022,-0.064,1.007
2026/05/14 10:31:01.605,-0.021,-0.063,1.014
2026/05/14 10:31:01.625,-0.025,-0.064,1.008
2026/05/14 10:31:01.645,-0.024,-0.065,1.007
2026/05/14 10:31:01.665,-0.022,-0.064,1.009
2026/05/14 10:31:01.685,-0.023,-0.064,1.01
2026/05/14 10:31:01.705,-0.02,-0.061,1.01
2026/05/14 10:31:01.725,-0.024,-0.065,1.006
2026/05/14 10:31:01.745,-0.021,-0.063,1.006
2026/05/14 10:31:01.765,-0.021,-0.067,1.007
2026/05/14 10:31:01.785,-0.024,-0.061,1.011
2026/05/14 10:31:01.805,-0.02,-0.066,1.011
2026/05/14 10:31:01.825,-0.02,-0.057,1.011
2026/05/14 10:31:01.845,-0.022,-0.06,1.008
2026/05/14 10:31:01.866,-0.02,-0.063,1.008
2026/05/14 10:31:01.886,-0.019,-0.062,1.006
2026/05/14 10:31:01.906,-0.024,-0.063,1.01
2026/05/14 10:31:01.926,-0.019,-0.065,1.01
2026/05/14 10:31:01.946,-0.023,-0.064,1.007
2026/05/14 10:31:01.966,-0.021,-0.062,1.012
2026/05/14 10:31:01.986,-0.023,-0.066,1.009
2026/05/14 10:31:02.006,-0.021,-0.064,1.011
2026/05/14 10:31:02.026,-0.022,-0.063,1.011
2026/05/14 10:31:02.046,-0.024,-0.063,1.011
2026/05/14 10:31:02.066,-0.024,-0.067,1.011
2026/05/14 10:31:02.086,-0.025,-0.069,1.01
2026/05/14 10:31:02.106,-0.02,-0.065,1.008
2026/05/14 10:31:02.126,-0.026,-0.064,1.007
2026/05/14 10:31:02.146,-0.022,-0.06,1.009
2026/05/14 10:31:02.166,-0.02,-0.064,1.012
2026/05/14 10:31:02.186,-0.021,-0.066,1.01
2026/05/14 10:31:02.206,-0.005,-0.091,0.997
2026/05/14 10:31:02.226,-0.016,-0.055,1.011
2026/05/14 10:31:02.246,-0.034,-0.064,1.016
2026/05/14 10:31:02.266,-0.038,-0.061,1.022
2026/05/14 10:31:02.286,-0.032,-0.061,1.019
2026/05/14 10:31:02.307,-0.027,-0.052,1.006
2026/05/14 10:31:02.327,-0.022,-0.065,1.017
2026/05/14 10:31:02.347,-0.018,-0.069,1.008
2026/05/14 10:31:02.367,-0.019,-0.066,1.006
2026/05/14 10:31:02.387,-0.019,-0.051,1.001
2026/05/14 10:31:02.407,-0.018,-0.061,1.013
2026/05/14 10:31:02.427,-0.03,-0.068,1.02
2026/05/14 10:31:02.447,-0.015,-0.064,1.018
2026/05/14 10:31:02.467,-0.015,-0.064,1.011
2026/05/14 10:31:02.487,-0.021,-0.062,1.003
2026/05/14 10:31:02.507,-0.024,-0.066,1.014
2026/05/14 10:31:02.527,-0.025,-0.066,1.01
2026/05/14 10:31:02.547,-0.027,-0.064,1.011
2026/05/14 10:31:02.567,-0.027,-0.061,1.012
2026/05/14 10:31:02.587,-0.029,-0.062,1.01
2026/05/14 10:31:02.607,-0.023,-0.06,1.011
2026/05/14 10:31:02.627,-0.022,-0.065,1.005
2026/05/14 10:31:02.647,-0.023,-0.066,1.007
2026/05/14 10:31:02.667,-0.019,-0.066,1.011
2026/05/14 10:31:02.687,-0.018,-0.064,1.013
2026/05/14 10:31:02.707,-0.023,-0.066,1.009
2026/05/14 10:31:02.727,-0.02,-0.067,1.007
2026/05/14 10:31:02.747,-0.018,-0.063,1.012
2026/05/14 10:31:02.768,-0.02,-0.061,1.007
2026/05/14 10:31:02.788,-0.02,-0.062,1.008
2026/05/14 10:31:02.808,-0.023,-0.06,1.011
2026/05/14 10:31:02.828,-0.024,-0.059,1.009
2026/05/14 10:31:02.848,-0.024,-0.066,1.009
2026/05/14 10:31:02.868,-0.024,-0.066,1.006
2026/05/14 10:31:02.888,-0.022,-0.063,1.015
2026/05/14 10:31:02.908,-0.024,-0.066,1.011
2026/05/14 10:31:02.928,-0.022,-0.062,1.008
2026/05/14 10:31:02.948,-0.019,-0.064,1.007
2026/05/14 10:31:02.968,-0.02,-0.062,1.011
2026/05/14 10:31:02.988,-0.023,-0.063,1.012
2026/05/14 10:31:03.008,-0.023,-0.065,1.009
2026/05/14 10:31:03.028,-0.018,-0.061,1.011
2026/05/14 10:31:03.048,-0.024,-0.067,1.01
2026/05/14 10:31:03.068,-0.022,-0.066,1.01
2026/05/14 10:31:03.088,-0.025,-0.06,1.01
2026/05/14 10:31:03.108,-0.023,-0.061,1.012
2026/05/14 10:31:03.128,-0.024,-0.063,1.012
2026/05/14 10:31:03.148,-0.026,-0.063,1.011
2026/05/14 10:31:03.168,-0.022,-0.065,1.006
2026/05/14 10:31:03.188,-0.02,-0.058,1.01
2026/05/14 10:31:03.208,-0.023,-0.067,1.005
2026/05/14 10:31:03.229,-0.023,-0.063,1.008
2026/05/14 10:31:03.249,-0.02,-0.064,1.009
2026/05/14 10:31:03.269,-0.019,-0.063,1.008
2026/05/14 10:31:03.289,-0.024,-0.063,1.01
2026/05/14 10:31:03.309,-0.021,-0.065,1.011
2026/05/14 10:31:03.329,-0.021,-0.064,1.009
2026/05/14 10:31:03.349,-0.019,-0.067,1.012
2026/05/14 10:31:03.369,-0.022,-0.068,1.01
2026/05/14 10:31:03.389,-0.026,-0.064,1.01
2026/05/14 10:31:03.409,-0.024,-0.063,1.011
2026/05/14 10:31:03.429,-0.024,-0.066,1.011
2026/05/14 10:31:03.449,-0.025,-0.066,1.011
2026/05/14 10:31:03.469,-0.022,-0.066,1.008
2026/05/14 10:31:03.489,-0.027,-0.064,1.009
2026/05/14 10:31:03.509,-0.02,-0.063,1.011
2026/05/14 10:31:03.529,-0.023,-0.059,1.01
2026/05/14 10:31:03.549,-0.022,-0.062,1.01
2026/05/14 10:31:03.569,-0.019,-0.063,1.012
2026/05/14 10:31:03.589,-0.022,-0.066,1.01
2026/05/14 10:31:03.609,-0.023,-0.061,1.011
2026/05/14 10:31:03.629,-0.023,-0.061,1.01
2026/05/14 10:31:03.649,-0.022,-0.062,1.007
2026/05/14 10:31:03.669,-0.02,-0.066,1.009
2026/05/14 10:31:03.690,-0.023,-0.06,1.011
2026/05/14 10:31:03.710,-0.021,-0.068,1.012
2026/05/14 10:31:03.730,-0.022,-0.063,1.006
2026/05/14 10:31:03.750,-0.021,-0.067,1.008
2026/05/14 10:31:03.770,-0.023,-0.064,1.009
2026/05/14 10:31:03.790,-0.02,-0.063,1.01
2026/05/14 10:31:03.810,-0.018,-0.063,1.01
2026/05/14 10:31:03.830,-0.022,-0.064,1.012
2026/05/14 10:31:03.850,-0.023,-0.067,1.01
2026/05/14 10:31:03.870,-0.017,-0.062,1.01
2026/05/14 10:31:03.890,-0.024,-0.067,1.008
2026/05/14 10:31:03.910,-0.021,-0.063,1.011
2026/05/14 10:31:03.930,-0.023,-0.065,1.011
2026/05/14 10:31:03.950,-0.026,-0.063,1.01
2026/05/14 10:31:03.970,-0.022,-0.062,1.008
2026/05/14 10:31:03.990,-0.024,-0.065,1.006
2026/05/14 10:31:04.010,-0.023,-0.065,1.012
2026/05/14 10:31:04.030,-0.023,-0.065,1.008
2026/05/14 10:31:04.050,-0.025,-0.065,1.009
2026/05/14 10:31:04.070,-0.02,-0.065,1.006
2026/05/14 10:31:04.090,-0.021,-0.066,1.008
2026/05/14 10:31:04.110,-0.018,-0.065,1.009
2026/05/14 10:31:04.131,-0.023,-0.065,1.009
2026/05/14 10:31:04.151,-0.02,-0.064,1.008
2026/05/14 10:31:04.171,-0.024,-0.065,1.007
2026/05/14 10:31:04.191,-0.022,-0.061,1.008
2026/05/14 10:31:04.211,-0.021,-0.06,1.007
2026/05/14 10:31:04.231,-0.02,-0.063,1.01
2026/05/14 10:31:04.251,-0.021,-0.059,1.009
2026/05/14 10:31:04.271,-0.019,-0.059,1.007
2026/05/14 10:31:04.291,-0.017,-0.068,1.011
2026/05/14 10:31:04.311,-0.021,-0.066,1.012
2026/05/14 10:31:04.331,-0.019,-0.066,1.005
2026/05/14 10:31:04.351,-0.028,-0.067,1.011
2026/05/14 10:31:04.371,-0.03,-0.069,1.011
2026/05/14 10:31:04.391,-0.03,-0.069,1.006
2026/05/14 10:31:04.411,-0.028,-0.059,1.011
2026/05/14 10:31:04.431,-0.022,-0.057,1.007
2026/05/14 10:31:04.451,-0.024,-0.057,1.006
2026/05/14 10:31:04.471,-0.025,-0.067,1.011
2026/05/14 10:31:04.491,-0.023,-0.054,1.0
2026/05/14 10:31:04.511,-0.019,-0.062,0.995
2026/05/14 10:31:04.531,-0.019,-0.069,1.014
2026/05/14 10:31:04.551,-0.017,-0.064,0.995
2026/05/14 10:31:04.571,-0.012,-0.058,1.017
2026/05/14 10:31:04.592,-0.017,-0.069,1.007
2026/05/14 10:31:04.612,-0.026,-0.054,1.012
2026/05/14 10:31:04.632,-0.026,-0.058,1.01
2026/05/14 10:31:04.652,-0.025,-0.063,1.004
2026/05/14 10:31:04.672,-0.021,-0.065,1.009
2026/05/14 10:31:04.692,-0.024,-0.07,1.009
2026/05/14 10:31:04.712,-0.023,-0.066,1.013
2026/05/14 10:31:04.732,-0.022,-0.065,1.006
2026/05/14 10:31:04.752,-0.023,-0.062,1.014
2026/05/14 10:31:04.772,-0.087,-0.379,1.553
2026/05/14 10:31:04.792,0.07,0.138,0.993
2026/05/14 10:31:04.812,-0.13,-0.031,0.95
2026/05/14 10:31:04.832,-0.064,-0.093,1.002
2026/05/14 10:31:04.852,-0.055,-0.031,0.977
2026/05/14 10:31:04.872,-0.045,-0.077,1.05
2026/05/14 10:31:04.892,-0.047,-0.068,1.016
2026/05/14 10:31:04.912,-0.013,-0.081,1.034
2026/05/14 10:31:04.932,-0.031,-0.08,1.017
2026/05/14 10:31:04.952,-0.015,-0.072,1.007
2026/05/14 10:31:04.972,-0.018,-0.07,1.0
2026/05/14 10:31:04.992,-0.018,-0.061,1.008
2026/05/14 10:31:05.012,-0.01,-0.075,1.019
2026/05/14 10:31:05.033,-0.006,-0.063,1.01
2026/05/14 10:31:05.053,-0.006,-0.059,1.0
2026/05/14 10:31:05.073,-0.025,-0.061,1.012
2026/05/14 10:31:05.093,-0.031,-0.072,1.013
2026/05/14 10:31:05.113,-0.039,-0.043,0.994
2026/05/14 10:31:05.133,-0.047,-0.069,1.031
2026/05/14 10:31:05.153,-0.047,-0.075,1.025
2026/05/14 10:31:05.173,-0.05,-0.043,1.009
2026/05/14 10:31:05.193,-0.024,-0.042,0.997
2026/05/14 10:31:05.213,-0.016,-0.06,1.018
2026/05/14 10:31:05.233,-0.02,-0.075,1.021
2026/05/14 10:31:05.253,-0.013,-0.08,1.019
2026/05/14 10:31:05.273,-0.005,-0.075,1.0
2026/05/14 10:31:05.293,-0.014,-0.073,1.013
2026/05/14 10:31:05.313,-0.022,-0.076,1.019
2026/05/14 10:31:05.333,-0.012,-0.069,1.015
2026/05/14 10:31:05.353,-0.016,-0.059,1.009
2026/05/14 10:31:05.373,-0.022,-0.052,1.008
2026/05/14 10:31:05.393,-0.032,-0.064,1.017
2026/05/14 10:31:05.413,-0.039,-0.064,1.011
2026/05/14 10:31:05.433,-0.032,-0.06,1.011
2026/05/14 10:31:05.453,-0.034,-0.062,1.013
2026/05/14 10:31:05.474,-0.026,-0.064,1.013
2026/05/14 10:31:05.494,-0.024,-0.062,1.018
2026/05/14 10:31:05.514,-0.015,-0.066,1.004
2026/05/14 10:31:05.534,-0.007,-0.063,1.008
2026/05/14 10:31:05.554,-0.015,-0.068,1.011
2026/05/14 10:31:05.574,-0.014,-0.067,1.011
2026/05/14 10:31:05.594,-0.02,-0.065,1.016
2026/05/14 10:31:05.614,-0.015,-0.066,1.007
2026/05/14 10:31:05.634,-0.014,-0.067,1.009
2026/05/14 10:31:05.654,-0.02,-0.059,1.006
2026/05/14 10:31:05.674,-0.023,-0.056,1.009
2026/05/14 10:31:05.694,-0.034,-0.06,1.008
2026/05/14 10:31:05.714,-0.034,-0.065,1.011
2026/05/14 10:31:05.734,-0.032,-0.059,1.012
2026/05/14 10:31:05.754,-0.025,-0.061,1.009
2026/05/14 10:31:05.774,-0.019,-0.058,1.007
2026/05/14 10:31:05.794,-0.022,-0.067,1.015
2026/05/14 10:31:05.814,-0.014,-0.069,1.004
2026/05/14 10:31:05.834,-0.018,-0.073,1.014
2026/05/14 10:31:05.854,-0.013,-0.069,1.008
2026/05/14 10:31:05.874,-0.015,-0.067,1.01
2026/05/14 10:31:05.895,-0.018,-0.066,1.01
2026/05/14 10:31:05.915,-0.016,-0.064,1.008
2026/05/14 10:31:05.935,-0.022,-0.061,1.01
2026/05/14 10:31:05.955,-0.027,-0.057,1.011
2026/05/14 10:31:05.975,-0.03,-0.061,1.011
2026/05/14 10:31:05.995,-0.035,-0.067,1.009
2026/05/14 10:31:06.015,-0.025,-0.061,1.011
2026/05/14 10:31:06.035,-0.027,-0.061,1.006
2026/05/14 10:31:06.055,-0.022,-0.06,1.012
2026/05/14 10:31:06.075,-0.021,-0.06,1.007
2026/05/14 10:31:06.095,-0.022,-0.071,1.01
2026/05/14 10:31:06.115,-0.015,-0.067,1.009
2026/05/14 10:31:06.135,-0.017,-0.069,1.007
2026/05/14 10:31:06.155,-0.016,-0.067,1.005
2026/05/14 10:31:06.175,-0.018,-0.062,1.009
2026/05/14 10:31:06.195,-0.019,-0.067,1.01
2026/05/14 10:31:06.215,-0.019,-0.06,1.007
2026/05/14 10:31:06.235,-0.022,-0.058,1.007
2026/05/14 10:31:06.255,-0.024,-0.059,1.01
2026/05/14 10:31:06.275,-0.031,-0.062,1.009
2026/05/14 10:31:06.295,-0.031,-0.064,1.015
2026/05/14 10:31:06.315,-0.025,-0.064,1.01
2026/05/14 10:31:06.336,-0.025,-0.06,1.01
2026/05/14 10:31:06.356,-0.021,-0.061,1.01
2026/05/14 10:31:06.376,-0.021,-0.065,1.01
2026/05/14 10:31:06.396,-0.02,-0.065,1.011
2026/05/14 10:31:06.416,-0.017,-0.068,1.01
2026/05/14 10:31:06.436,-0.02,-0.067,1.009
2026/05/14 10:31:06.456,-0.022,-0.065,1.008
2026/05/14 10:31:06.476,-0.016,-0.064,1.007
2026/05/14 10:31:06.496,-0.023,-0.063,1.011
2026/05/14 10:31:06.516,-0.021,-0.059,1.008
2026/05/14 10:31:06.536,-0.027,-0.065,1.014
2026/05/14 10:31:06.556,-0.024,-0.062,1.007
2026/05/14 10:31:06.576,-0.025,-0.062,1.009
2026/05/14 10:31:06.596,-0.026,-0.061,1.009
2026/05/14 10:31:06.616,-0.022,-0.059,1.009
2026/05/14 10:31:06.636,-0.022,-0.062,1.012
2026/05/14 10:31:06.656,-0.021,-0.065,1.003
2026/05/14 10:31:06.676,-0.017,-0.069,1.011
2026/05/14 10:31:06.696,-0.021,-0.064,1.008
2026/05/14 10:31:06.716,-0.017,-0.066,1.007
2026/05/14 10:31:06.736,-0.014,-0.063,1.01
2026/05/14 10:31:06.756,-0.022,-0.066,1.011
2026/05/14 10:31:06.776,-0.022,-0.06,1.009
2026/05/14 10:31:06.797,-0.024,-0.064,1.009
2026/05/14 10:31:06.817,-0.025,-0.064,1.01
2026/05/14 10:31:06.837,-0.028,-0.063,1.006
2026/05/14 10:31:06.857,-0.026,-0.061,1.011
2026/05/14 10:31:06.877,-0.027,-0.063,1.011
2026/05/14 10:31:06.897,-0.021,-0.061,1.009
2026/05/14 10:31:06.917,-0.023,-0.063,1.007
2026/05/14 10:31:06.937,-0.02,-0.065,1.01
2026/05/14 10:31:06.957,-0.019,-0.065,1.007
2026/05/14 10:31:06.977,-0.021,-0.068,1.008
2026/05/14 10:31:06.997,-0.017,-0.066,1.008
2026/05/14 10:31:07.017,-0.019,-0.062,1.006
2026/05/14 10:31:07.037,-0.022,-0.064,1.009
2026/05/14 10:31:07.057,-0.02,-0.066,1.01
2026/05/14 10:31:07.077,-0.021,-0.062,1.009
2026/05/14 10:31:07.097,-0.018,-0.064,1.01
2026/05/14 10:31:07.117,-0.029,-0.064,1.008
2026/05/14 10:31:07.137,-0.028,-0.063,1.011
2026/05/14 10:31:07.157,-0.029,-0.066,1.007
2026/05/14 10:31:07.177,-0.025,-0.061,1.01
2026/05/14 10:31:07.197,-0.023,-0.06,1.009
2026/05/14 10:31:07.217,-0.024,-0.062,1.011
2026/05/14 10:31:07.237,-0.023,-0.063,1.007
2026/05/14 10:31:07.258,-0.022,-0.067,1.01
2026/05/14 10:31:07.278,-0.023,-0.067,1.008
2026/05/14 10:31:07.298,-0.018,-0.066,1.007
2026/05/14 10:31:07.318,-0.02,-0.066,1.009
2026/05/14 10:31:07.338,-0.018,-0.064,1.007
2026/05/14 10:31:07.358,-0.023,-0.063,1.012
2026/05/14 10:31:07.378,-0.02,-0.065,1.009
2026/05/14 10:31:07.398,-0.024,-0.061,1.008
2026/05/14 10:31:07.418,-0.022,-0.063,1.013
2026/05/14 10:31:07.438,-0.029,-0.063,1.008
2026/05/14 10:31:07.458,-0.024,-0.062,1.009
2026/05/14 10:31:07.478,-0.019,-0.065,1.01
2026/05/14 10:31:07.498,-0.021,-0.062,1.01
2026/05/14 10:31:07.518,-0.026,-0.063,1.008
2026/05/14 10:31:07.538,-0.021,-0.065,1.008
2026/05/14 10:31:07.558,-0.019,-0.066,1.008
2026/05/14 10:31:07.578,-0.022,-0.065,1.009
2026/05/14 10:31:07.598,-0.02,-0.061,1.009
2026/05/14 10:31:07.618,-0.023,-0.06,1.006
2026/05/14 10:31:07.638,-0.019,-0.064,1.009
2026/05/14 10:31:07.658,-0.023,-0.064,1.01
2026/05/14 10:31:07.678,-0.023,-0.063,1.007
2026/05/14 10:31:07.698,-0.025,-0.067,1.008
2026/05/14 10:31:07.718,-0.023,-0.063,1.013
2026/05/14 10:31:07.739,-0.023,-0.064,1.007
2026/05/14 10:31:07.759,-0.023,-0.06,1.006
2026/05/14 10:31:07.779,-0.019,-0.064,1.01
2026/05/14 10:31:07.799,-0.022,-0.066,1.009
2026/05/14 10:31:07.819,-0.017,-0.065,1.011
2026/05/14 10:31:07.839,-0.021,-0.061,1.012
2026/05/14 10:31:07.859,-0.018,-0.068,1.006
2026/05/14 10:31:07.879,-0.02,-0.061,1.011
2026/05/14 10:31:07.899,-0.023,-0.061,1.011
2026/05/14 10:31:07.919,-0.021,-0.06,1.009
2026/05/14 10:31:07.939,-0.025,-0.062,1.011
2026/05/14 10:31:07.959,-0.023,-0.063,1.007
2026/05/14 10:31:07.979,-0.024,-0.062,1.012
2026/05/14 10:31:07.999,-0.021,-0.062,1.006
2026/05/14 10:31:08.019,-0.024,-0.059,1.006
2026/05/14 10:31:08.039,-0.019,-0.06,1.007
2026/05/14 10:31:08.059,-0.022,-0.063,1.009
2026/05/14 10:31:08.079,-0.02,-0.065,1.01
2026/05/14 10:31:08.099,-0.024,-0.066,1.009
2026/05/14 10:31:08.119,-0.019,-0.064,1.005
2026/05/14 10:31:08.139,-0.023,-0.065,1.008
2026/05/14 10:31:08.159,-0.025,-0.065,1.009
2026/05/14 10:31:08.179,-0.02,-0.064,1.008
2026/05/14 10:31:08.200,-0.025,-0.066,1.008
2026/05/14 10:31:08.220,-0.023,-0.064,1.007
2026/05/14 10:31:08.240,-0.019,-0.062,1.012
2026/05/14 10:31:08.260,-0.023,-0.063,1.01
2026/05/14 10:31:08.280,-0.022,-0.069,1.01
2026/05/14 10:31:08.300,-0.02,-0.061,1.007
2026/05/14 10:31:08.320,-0.023,-0.065,1.008
2026/05/14 10:31:08.340,-0.024,-0.063,1.01
2026/05/14 10:31:08.360,-0.02,-0.069,1.009
2026/05/14 10:31:08.380,-0.024,-0.065,1.008
2026/05/14 10:31:08.400,-0.025,-0.062,1.006
2026/05/14 10:31:08.420,-0.022,-0.064,1.008
2026/05/14 10:31:08.440,-0.024,-0.063,1.008
2026/05/14 10:31:08.460,-0.022,-0.062,1.009
2026/05/14 10:31:08.480,-0.022,-0.061,1.008
2026/05/14 10:31:08.500,-0.025,-0.061,1.008
2026/05/14 10:31:08.520,-0.023,-0.062,1.009
2026/05/14 10:31:08.540,-0.024,-0.063,1.007
2026/05/14 10:31:08.560,-0.024,-0.064,1.011
2026/05/14 10:31:08.580,-0.025,-0.063,1.01
2026/05/14 10:31:08.600,-0.022,-0.065,1.009
2026/05/14 10:31:08.620,-0.025,-0.059,1.007
2026/05/14 10:31:08.640,-0.018,-0.066,1.006
2026/05/14 10:31:08.661,-0.023,-0.061,1.013
2026/05/14 10:31:08.681,-0.023,-0.061,1.01
2026/05/14 10:31:08.701,-0.019,-0.064,1.011
2026/05/14 10:31:08.721,-0.023,-0.066,1.009
2026/05/14 10:31:08.741,-0.019,-0.061,1.009
2026/05/14 10:31:08.761,-0.024,-0.06,1.006
2026/05/14 10:31:08.781,-0.023,-0.063,1.01
2026/05/14 10:31:08.801,-0.023,-0.064,1.01
2026/05/14 10:31:08.821,-0.023,-0.065,1.01
2026/05/14 10:31:08.841,-0.023,-0.066,1.01
2026/05/14 10:31:08.861,-0.02,-0.067,1.011
2026/05/14 10:31:08.881,-0.023,-0.064,1.013
2026/05/14 10:31:08.901,-0.022,-0.065,1.007
2026/05/14 10:31:08.921,-0.023,-0.065,1.008
2026/05/14 10:31:08.941,-0.02,-0.065,1.012
2026/05/14 10:31:08.961,-0.023,-0.061,1.008
2026/05/14 10:31:08.981,-0.02,-0.063,1.01
2026/05/14 10:31:09.001,-0.023,-0.062,1.012
2026/05/14 10:31:09.021,-0.023,-0.065,1.01
2026/05/14 10:31:09.041,-0.024,-0.064,1.01
2026/05/14 10:31:09.061,-0.022,-0.064,1.009
2026/05/14 10:31:09.081,-0.021,-0.059,1.013
2026/05/14 10:31:09.101,-0.023,-0.062,1.01
2026/05/14 10:31:09.122,-0.018,-0.065,1.012
2026/05/14 10:31:09.142,-0.022,-0.063,1.011
2026/05/14 10:31:09.162,-0.026,-0.066,1.007
2026/05/14 10:31:09.182,-0.026,-0.066,1.009
2026/05/14 10:31:09.202,-0.023,-0.062,1.011
2026/05/14 10:31:09.222,-0.022,-0.069,1.011
2026/05/14 10:31:09.242,-0.019,-0.065,1.011
2026/05/14 10:31:09.262,-0.02,-0.065,1.01
2026/05/14 10:31:09.282,-0.02,-0.061,1.006
2026/05/14 10:31:09.302,-0.018,-0.059,1.008
2026/05/14 10:31:09.322,-0.022,-0.065,1.006
2026/05/14 10:31:09.342,-0.026,-0.066,1.013
2026/05/14 10:31:09.362,-0.021,-0.068,1.014
2026/05/14 10:31:09.382,-0.025,-0.06,1.008
2026/05/14 10:31:09.402,-0.023,-0.062,1.008
2026/05/14 10:31:09.422,-0.022,-0.062,1.007
2026/05/14 10:31:09.442,-0.023,-0.062,1.008
2026/05/14 10:31:09.462,-0.025,-0.057,1.009
2026/05/14 10:31:09.482,-0.02,-0.066,1.011
2026/05/14 10:31:09.502,-0.023,-0.065,1.005
2026/05/14 10:31:09.522,-0.022,-0.062,1.007
2026/05/14 10:31:09.542,-0.022,-0.066,1.006
2026/05/14 10:31:09.562,-0.024,-0.064,1.007
2026/05/14 10:31:09.582,-0.024,-0.063,1.008
2026/05/14 10:31:09.603,-0.023,-0.066,1.013
2026/05/14 10:31:09.623,-0.025,-0.058,1.006
2026/05/14 10:31:09.643,-0.021,-0.064,1.005
2026/05/14 10:31:09.663,-0.024,-0.06,1.01
2026/05/14 10:31:09.683,-0.02,-0.061,1.011
2026/05/14 10:31:09.703,-0.023,-0.063,1.007
2026/05/14 10:31:09.723,-0.022,-0.062,1.009
2026/05/14 10:31:09.743,-0.021,-0.064,1.012
2026/05/14 10:31:09.763,-0.023,-0.064,1.009
2026/05/14 10:31:09.783,-0.02,-0.063,1.011
2026/05/14 10:31:09.803,-0.023,-0.065,1.011
2026/05/14 10:31:09.823,-0.026,-0.062,1.011
2026/05/14 10:31:09.843,-0.021,-0.063,1.008
2026/05/14 10:31:09.863,-0.023,-0.067,1.009
2026/05/14 10:31:09.883,-0.02,-0.06,1.009
2026/05/14 10:31:09.903,-0.021,-0.064,1.012
2026/05/14 10:31:09.923,-0.017,-0.063,1.012
2026/05/14 10:31:09.943,-0.023,-0.065,1.011
2026/05/14 10:31:09.963,-0.021,-0.066,1.008
2026/05/14 10:31:09.983,-0.02,-0.062,1.012
2026/05/14 10:31:10.003,-0.023,-0.062,1.01
2026/05/14 10:31:10.023,-0.019,-0.061,1.008
2026/05/14 10:31:10.043,-0.024,-0.067,1.013
2026/05/14 10:31:10.063,-0.02,-0.062,1.009
2026/05/14 10:31:10.084,-0.023,-0.06,1.007
2026/05/14 10:31:10.104,-0.022,-0.061,1.009
2026/05/14 10:31:10.124,-0.024,-0.063,1.005
2026/05/14 10:31:10.144,-0.021,-0.066,1.009
2026/05/14 10:31:10.164,-0.02,-0.064,1.009
2026/05/14 10:31:10.184,-0.022,-0.061,1.011
2026/05/14 10:31:10.204,-0.022,-0.066,1.011
2026/05/14 10:31:10.224,-0.023,-0.062,1.011
2026/05/14 10:31:10.244,-0.023,-0.062,1.011
2026/05/14 10:31:10.264,-0.024,-0.065,1.012
2026/05/14 10:31:10.284,-0.026,-0.065,1.008
2026/05/14 10:31:10.304,-0.023,-0.066,1.006
2026/05/14 10:31:10.324,-0.023,-0.068,1.013
2026/05/14 10:31:10.344,-0.022,-0.061,1.01
2026/05/14 10:31:10.364,-0.023,-0.064,1.01
2026/05/14 10:31:10.384,-0.022,-0.062,1.009
2026/05/14 10:31:10.404,-0.021,-0.065,1.009
2026/05/14 10:31:10.424,-0.023,-0.064,1.011
2026/05/14 10:31:10.444,-0.021,-0.062,1.009
2026/05/14 10:31:10.464,-0.02,-0.063,1.008
2026/05/14 10:31:10.484,-0.023,-0.069,1.008
2026/05/14 10:31:10.504,-0.026,-0.061,1.012
2026/05/14 10:31:10.524,-0.021,-0.064,1.008
2026/05/14 10:31:10.544,-0.021,-0.065,1.01
2026/05/14 10:31:10.565,-0.023,-0.064,1.009
2026/05/14 10:31:10.585,-0.022,-0.061,1.008
2026/05/14 10:31:10.605,-0.023,-0.063,1.007
2026/05/14 10:31:10.625,-0.025,-0.064,1.007
2026/05/14 10:31:10.645,-0.024,-0.063,1.014
2026/05/14 10:31:10.665,-0.019,-0.064,1.01
2026/05/14 10:31:10.685,-0.023,-0.062,1.011
2026/05/14 10:31:10.705,-0.024,-0.07,1.009
2026/05/14 10:31:10.725,-0.023,-0.063,1.012
2026/05/14 10:31:10.745,-0.023,-0.065,1.011
2026/05/14 10:31:10.765,-0.023,-0.06,1.014
2026/05/14 10:31:10.785,-0.022,-0.066,1.009
2026/05/14 10:31:10.805,-0.022,-0.063,1.006
2026/05/14 10:31:10.825,-0.019,-0.059,1.01
2026/05/14 10:31:10.845,-0.025,-0.064,1.008
2026/05/14 10:31:10.865,-0.023,-0.062,1.005
2026/05/14 10:31:10.885,-0.024,-0.063,1.013
2026/05/14 10:31:10.905,-0.022,-0.066,1.008
2026/05/14 10:31:10.925,-0.022,-0.067,1.011
2026/05/14 10:31:10.945,-0.022,-0.064,1.006
2026/05/14 10:31:10.965,-0.025,-0.062,1.009
2026/05/14 10:31:10.985,-0.024,-0.061,1.009
2026/05/14 10:31:11.005,-0.021,-0.059,1.011
2026/05/14 10:31:11.025,-0.023,-0.061,1.005
2026/05/14 10:31:11.046,-0.025,-0.062,1.01
2026/05/14 10:31:11.066,-0.021,-0.062,1.011
2026/05/14 10:31:11.086,-0.022,-0.063,1.005
2026/05/14 10:31:11.106,-0.02,-0.064,1.01
2026/05/14 10:31:11.126,-0.023,-0.067,1.012
2026/05/14 10:31:11.146,-0.024,-0.067,1.006
2026/05/14 10:31:11.166,-0.02,-0.063,1.011
2026/05/14 10:31:11.186,-0.024,-0.066,1.012
2026/05/14 10:31:11.206,-0.024,-0.064,1.009
2026/05/14 10:31:11.226,-0.022,-0.062,1.009
2026/05/14 10:31:11.246,-0.023,-0.064,1.011
2026/05/14 10:31:11.266,-0.021,-0.062,1.01
2026/05/14 10:31:11.286,-0.026,-0.062,1.01
2026/05/14 10:31:11.306,-0.02,-0.063,1.008
2026/05/14 10:31:11.326,-0.023,-0.063,1.007
2026/05/14 10:31:11.346,-0.023,-0.064,1.011
2026/05/14 10:31:11.366,-0.02,-0.065,1.014
2026/05/14 10:31:11.386,-0.02,-0.061,1.007
2026/05/14 10:31:11.406,-0.017,-0.066,1.01
2026/05/14 10:31:11.426,-0.021,-0.063,1.011
2026/05/14 10:31:11.446,-0.023,-0.065,1.007
2026/05/14 10:31:11.466,-0.022,-0.064,1.008
2026/05/14 10:31:11.486,-0.022,-0.063,1.01
2026/05/14 10:31:11.506,-0.022,-0.061,1.009
2026/05/14 10:31:11.527,-0.021,-0.06,1.008
2026/05/14 10:31:11.547,-0.025,-0.065,1.011
2026/05/14 10:31:11.567,-0.024,-0.066,1.011
2026/05/14 10:31:11.587,-0.022,-0.066,1.006
2026/05/14 10:31:11.607,-0.023,-0.062,1.01
2026/05/14 10:31:11.627,-0.021,-0.067,1.008
2026/05/14 10:31:11.647,-0.022,-0.064,1.008
2026/05/14 10:31:11.667,-0.022,-0.061,1.01
2026/05/14 10:31:11.687,-0.022,-0.063,1.005
2026/05/14 10:31:11.707,-0.02,-0.068,1.01
2026/05/14 10:31:11.727,-0.019,-0.061,1.011
2026/05/14 10:31:11.747,-0.023,-0.061,1.007
2026/05/14 10:31:11.767,-0.023,-0.062,1.008
2026/05/14 10:31:11.787,-0.02,-0.061,1.012
2026/05/14 10:31:11.807,-0.025,-0.064,1.01
2026/05/14 10:31:11.827,-0.026,-0.06,1.008
2026/05/14 10:31:11.847,-0.021,-0.062,1.008
2026/05/14 10:31:11.867,-0.025,-0.063,1.016
2026/05/14 10:31:11.887,-0.021,-0.062,1.009
2026/05/14 10:31:11.907,-0.022,-0.063,1.009
2026/05/14 10:31:11.927,-0.022,-0.066,1.011
2026/05/14 10:31:11.947,-0.022,-0.065,1.007
2026/05/14 10:31:11.967,-0.021,-0.062,1.012
2026/05/14 10:31:11.987,-0.023,-0.063,1.009
2026/05/14 10:31:12.008,-0.027,-0.062,1.007
2026/05/14 10:31:12.028,-0.02,-0.066,1.009
2026/05/14 10:31:12.048,-0.021,-0.064,1.004
2026/05/14 10:31:12.068,-0.025,-0.063,1.011
2026/05/14 10:31:12.088,-0.023,-0.061,1.007
2026/05/14 10:31:12.108,-0.02,-0.066,1.012
2026/05/14 10:31:12.128,-0.022,-0.063,1.009
2026/05/14 10:31:12.148,-0.021,-0.063,1.011
2026/05/14 10:31:12.168,-0.02,-0.067,1.008
2026/05/14 10:31:12.188,-0.018,-0.058,1.011
2026/05/14 10:31:12.208,-0.025,-0.061,1.006
2026/05/14 10:31:12.228,-0.019,-0.062,1.013
2026/05/14 10:31:12.248,-0.022,-0.061,1.006
2026/05/14 10:31:12.268,-0.024,-0.065,1.009
2026/05/14 10:31:12.288,-0.022,-0.065,1.012
2026/05/14 10:31:12.308,-0.02,-0.064,1.008
2026/05/14 10:31:12.328,-0.023,-0.06,1.008
2026/05/14 10:31:12.348,-0.023,-0.061,1.009
2026/05/14 10:31:12.368,-0.025,-0.059,1.008
2026/05/14 10:31:12.388,-0.021,-0.063,1.008
2026/05/14 10:31:12.408,-0.021,-0.061,1.01
2026/05/14 10:31:12.428,-0.023,-0.06,1.01
2026/05/14 10:31:12.448,-0.023,-0.064,1.012
2026/05/14 10:31:12.468,-0.021,-0.064,1.012
2026/05/14 10:31:12.489,-0.021,-0.063,1.009
2026/05/14 10:31:12.509,-0.02,-0.067,1.008
2026/05/14 10:31:12.529,-0.023,-0.062,1.009
2026/05/14 10:31:12.549,-0.023,-0.062,1.005
2026/05/14 10:31:12.569,-0.027,-0.059,1.006
2026/05/14 10:31:12.589,-0.018,-0.067,1.01
2026/05/14 10:31:12.609,-0.024,-0.064,1.01
2026/05/14 10:31:12.629,-0.022,-0.061,1.012
2026/05/14 10:31:12.649,-0.025,-0.061,1.01
2026/05/14 10:31:12.669,-0.018,-0.064,1.004
2026/05/14 10:31:12.689,-0.024,-0.068,1.008
2026/05/14 10:31:12.709,-0.018,-0.063,1.009
2026/05/14 10:31:12.729,-0.025,-0.065,1.011
2026/05/14 10:31:12.749,-0.023,-0.065,1.007
2026/05/14 10:31:12.769,-0.024,-0.065,1.015
2026/05/14 10:31:12.789,-0.022,-0.061,1.008
2026/05/14 10:31:12.809,-0.016,-0.065,1.007
2026/05/14 10:31:12.829,-0.021,-0.064,1.012
2026/05/14 10:31:12.849,-0.022,-0.066,1.011
2026/05/14 10:31:12.869,-0.023,-0.064,1.011
2026/05/14 10:31:12.889,-0.022,-0.065,1.011
2026/05/14 10:31:12.909,-0.022,-0.068,1.01
2026/05/14 10:31:12.929,-0.026,-0.066,1.011
2026/05/14 10:31:12.949,-0.02,-0.065,1.012
2026/05/14 10:31:12.970,-0.024,-0.062,1.011
2026/05/14 10:31:12.990,-0.021,-0.062,1.009
2026/05/14 10:31:13.010,-0.022,-0.063,1.011
2026/05/14 10:31:13.030,-0.022,-0.057,1.009
2026/05/14 10:31:13.050,-0.022,-0.06,1.008
2026/05/14 10:31:13.070,-0.024,-0.065,1.008
2026/05/14 10:31:13.090,-0.021,-0.064,1.009
2026/05/14 10:31:13.110,-0.021,-0.062,1.009
2026/05/14 10:31:13.130,-0.023,-0.064,1.01
2026/05/14 10:31:13.150,-0.019,-0.063,1.007
2026/05/14 10:31:13.170,-0.02,-0.063,1.007
2026/05/14 10:31:13.190,-0.019,-0.06,1.007
2026/05/14 10:31:13.210,-0.026,-0.07,1.009
2026/05/14 10:31:13.230,-0.024,-0.061,1.008
2026/05/14 10:31:13.250,-0.02,-0.061,1.009
2026/05/14 10:31:13.270,-0.023,-0.062,1.015
2026/05/14 10:31:13.290,-0.025,-0.058,1.006
2026/05/14 10:31:13.310,-0.025,-0.066,1.011
2026/05/14 10:31:13.330,-0.023,-0.065,1.01
2026/05/14 10:31:13.350,-0.023,-0.063,1.007
2026/05/14 10:31:13.370,-0.023,-0.062,1.009
2026/05/14 10:31:13.390,-0.023,-0.062,1.01
2026/05/14 10:31:13.410,-0.021,-0.063,1.009
2026/05/14 10:31:13.431,-0.023,-0.06,1.009
2026/05/14 10:31:13.451,-0.02,-0.062,1.008
2026/05/14 10:31:13.471,-0.019,-0.067,1.008
2026/05/14 10:31:13.491,-0.025,-0.067,1.008
2026/05/14 10:31:13.511,-0.026,-0.064,1.011
2026/05/14 10:31:13.531,-0.021,-0.062,1.005
2026/05/14 10:31:13.551,-0.021,-0.06,1.009
2026/05/14 10:31:13.571,-0.023,-0.065,1.011
2026/05/14 10:31:13.591,-0.019,-0.066,1.009
2026/05/14 10:31:13.611,-0.022,-0.064,1.01
2026/05/14 10:31:13.631,-0.025,-0.061,1.009
2026/05/14 10:31:13.651,-0.024,-0.063,1.01
2026/05/14 10:31:13.671,-0.022,-0.062,1.009
2026/05/14 10:31:13.691,-0.021,-0.064,1.009
2026/05/14 10:31:13.711,-0.024,-0.063,1.012
2026/05/14 10:31:13.731,-0.022,-0.062,1.009
2026/05/14 10:31:13.751,-0.021,-0.064,1.01
2026/05/14 10:31:13.771,-0.024,-0.062,1.015
2026/05/14 10:31:13.791,-0.022,-0.061,1.006
2026/05/14 10:31:13.811,-0.021,-0.068,1.007
2026/05/14 10:31:13.831,-0.02,-0.062,1.008
2026/05/14 10:31:13.851,-0.02,-0.063,1.013
2026/05/14 10:31:13.871,-0.025,-0.063,1.008
2026/05/14 10:31:13.891,-0.025,-0.061,1.01
2026/05/14 10:31:13.912,-0.024,-0.061,1.008
2026/05/14 10:31:13.932,-0.022,-0.062,1.01
2026/05/14 10:31:13.952,-0.023,-0.065,1.009
2026/05/14 10:31:13.972,-0.023,-0.066,1.008
2026/05/14 10:31:13.992,-0.023,-0.06,1.007
2026/05/14 10:31:14.012,-0.019,-0.065,1.008
2026/05/14 10:31:14.032,-0.018,-0.062,1.01
2026/05/14 10:31:14.052,-0.023,-0.063,1.005
2026/05/14 10:31:14.072,-0.021,-0.064,1.009
2026/05/14 10:31:14.092,-0.025,-0.064,1.004
2026/05/14 10:31:14.112,-0.021,-0.065,1.009
2026/05/14 10:31:14.132,-0.022,-0.065,1.007
2026/05/14 10:31:14.152,-0.019,-0.064,1.011
2026/05/14 10:31:14.172,-0.022,-0.064,1.008
2026/05/14 10:31:14.192,-0.024,-0.065,1.008
2026/05/14 10:31:14.212,-0.023,-0.064,1.007
2026/05/14 10:31:14.232,-0.019,-0.065,1.008
2026/05/14 10:31:14.252,-0.018,-0.061,1.007
2026/05/14 10:31:14.272,-0.024,-0.064,1.008
2026/05/14 10:31:14.292,-0.023,-0.062,1.015
2026/05/14 10:31:14.312,-0.021,-0.06,1.009
2026/05/14 10:31:14.332,-0.022,-0.064,1.009
2026/05/14 10:31:14.352,-0.025,-0.064,1.008
2026/05/14 10:31:14.373,-0.022,-0.068,1.012
2026/05/14 10:31:14.393,-0.023,-0.062,1.007
2026/05/14 10:31:14.413,-0.02,-0.061,1.01
2026/05/14 10:31:14.433,-0.023,-0.062,1.008
2026/05/14 10:31:14.453,-0.022,-0.064,1.01
2026/05/14 10:31:14.473,-0.021,-0.061,1.01
2026/05/14 10:31:14.493,-0.023,-0.064,1.009
2026/05/14 10:31:14.513,-0.024,-0.063,1.008
2026/05/14 10:31:14.533,-0.022,-0.062,1.008
2026/05/14 10:31:14.553,-0.025,-0.064,1.009
2026/05/14 10:31:14.573,-0.02,-0.063,1.012
2026/05/14 10:31:14.593,-0.023,-0.064,1.008
2026/05/14 10:31:14.613,-0.021,-0.059,1.007
2026/05/14 10:31:14.633,-0.024,-0.066,1.006
2026/05/14 10:31:14.653,-0.022,-0.064,1.006
2026/05/14 10:31:14.673,-0.021,-0.062,1.009
2026/05/14 10:31:14.693,-0.021,-0.061,1.009
2026/05/14 10:31:14.713,-0.023,-0.064,1.008
2026/05/14 10:31:14.733,-0.022,-0.064,1.014
2026/05/14 10:31:14.753,-0.021,-0.064,1.007
2026/05/14 10:31:14.773,-0.022,-0.063,1.011
2026/05/14 10:31:14.793,-0.023,-0.062,1.013
2026/05/14 10:31:14.813,-0.028,-0.064,1.012
2026/05/14 10:31:14.833,-0.026,-0.062,1.011
2026/05/14 10:31:14.854,-0.023,-0.062,1.01
2026/05/14 10:31:14.874,-0.021,-0.062,1.007
2026/05/14 10:31:14.894,-0.022,-0.06,1.008
2026/05/14 10:31:14.914,-0.027,-0.064,1.01
2026/05/14 10:31:14.934,-0.023,-0.064,1.012
2026/05/14 10:31:14.954,-0.024,-0.063,1.011
2026/05/14 10:31:14.974,-0.023,-0.065,1.011
2026/05/14 10:31:14.994,-0.023,-0.061,1.009
2026/05/14 10:31:15.014,-0.018,-0.063,1.009
2026/05/14 10:31:15.034,-0.023,-0.067,1.012
2026/05/14 10:31:15.054,-0.022,-0.063,1.011
2026/05/14 10:31:15.074,-0.019,-0.062,1.011
2026/05/14 10:31:15.094,-0.021,-0.063,1.01
2026/05/14 10:31:15.114,-0.02,-0.067,1.01
2026/05/14 10:31:15.134,-0.017,-0.066,1.011
2026/05/14 10:31:15.154,-0.022,-0.064,1.007
2026/05/14 10:31:15.174,-0.026,-0.066,1.011
2026/05/14 10:31:15.194,-0.021,-0.06,1.009
2026/05/14 10:31:15.214,-0.019,-0.061,1.01
2026/05/14 10:31:15.234,-0.02,-0.063,1.011
2026/05/14 10:31:15.254,-0.022,-0.065,1.008
2026/05/14 10:31:15.274,-0.022,-0.064,1.007
2026/05/14 10:31:15.294,-0.022,-0.067,1.008
2026/05/14 10:31:15.314,-0.025,-0.063,1.011
2026/05/14 10:31:15.335,-0.023,-0.061,1.012
2026/05/14 10:31:15.355,-0.021,-0.06,1.012
2026/05/14 10:31:15.375,-0.019,-0.061,1.008
2026/05/14 10:31:15.395,-0.021,-0.064,1.009
2026/05/14 10:31:15.415,-0.02,-0.061,1.01
2026/05/14 10:31:15.435,-0.021,-0.068,1.009
2026/05/14 10:31:15.455,-0.022,-0.064,1.01
2026/05/14 10:31:15.475,-0.023,-0.061,1.011
2026/05/14 10:31:15.495,-0.022,-0.066,1.009
2026/05/14 10:31:15.515,-0.021,-0.063,1.007
2026/05/14 10:31:15.535,-0.026,-0.06,1.008
2026/05/14 10:31:15.555,-0.022,-0.064,1.007
2026/05/14 10:31:15.575,-0.021,-0.062,1.008
2026/05/14 10:31:15.595,-0.022,-0.067,1.004
2026/05/14 10:31:15.615,-0.024,-0.063,1.011
2026/05/14 10:31:15.635,-0.023,-0.062,1.011
2026/05/14 10:31:15.655,-0.02,-0.064,1.006
2026/05/14 10:31:15.675,-0.023,-0.063,1.01
2026/05/14 10:31:15.695,-0.017,-0.064,1.01
2026/05/14 10:31:15.715,-0.022,-0.061,1.009
2026/05/14 10:31:15.735,-0.022,-0.066,1.011
2026/05/14 10:31:15.755,-0.025,-0.061,1.011
2026/05/14 10:31:15.775,-0.024,-0.063,1.012
2026/05/14 10:31:15.795,-0.02,-0.062,1.008
2026/05/14 10:31:15.816,-0.023,-0.062,1.003
2026/05/14 10:31:15.836,-0.02,-0.064,1.011
2026/05/14 10:31:15.856,-0.024,-0.06,1.008
2026/05/14 10:31:15.876,-0.023,-0.064,1.006
2026/05/14 10:31:15.896,-0.022,-0.061,1.007
2026/05/14 10:31:15.916,-0.022,-0.064,1.01
2026/05/14 10:31:15.936,-0.02,-0.062,1.011
2026/05/14 10:31:15.956,-0.019,-0.062,1.008
2026/05/14 10:31:15.976,-0.023,-0.06,1.009
2026/05/14 10:31:15.996,-0.021,-0.063,1.009
2026/05/14 10:31:16.016,-0.019,-0.061,1.008
2026/05/14 10:31:16.036,-0.018,-0.067,1.011
2026/05/14 10:31:16.056,-0.021,-0.063,1.011
2026/05/14 10:31:16.076,-0.021,-0.062,1.009
2026/05/14 10:31:16.096,-0.024,-0.063,1.007
2026/05/14 10:31:16.116,-0.021,-0.063,1.009
2026/05/14 10:31:16.136,-0.022,-0.067,1.008
2026/05/14 10:31:16.156,-0.022,-0.062,1.009
2026/05/14 10:31:16.176,-0.025,-0.066,1.011
2026/05/14 10:31:16.196,-0.023,-0.063,1.01
2026/05/14 10:31:16.216,-0.02,-0.063,1.01
2026/05/14 10:31:16.236,-0.024,-0.064,1.008
2026/05/14 10:31:16.256,-0.019,-0.064,1.01
2026/05/14 10:31:16.277,-0.019,-0.063,1.008
2026/05/14 10:31:16.297,-0.023,-0.061,1.009
2026/05/14 10:31:16.317,-0.023,-0.058,1.011
2026/05/14 10:31:16.337,-0.023,-0.069,1.009
2026/05/14 10:31:16.357,-0.02,-0.064,1.008
2026/05/14 10:31:16.377,-0.021,-0.06,1.008
2026/05/14 10:31:16.397,-0.019,-0.056,1.012
2026/05/14 10:31:16.417,-0.019,-0.063,1.013
2026/05/14 10:31:16.437,-0.023,-0.064,1.008
2026/05/14 10:31:16.457,-0.022,-0.065,1.01
2026/05/14 10:31:16.477,-0.023,-0.061,1.011
2026/05/14 10:31:16.497,-0.023,-0.064,1.008
2026/05/14 10:31:16.517,-0.022,-0.066,1.011
2026/05/14 10:31:16.537,-0.022,-0.061,1.006
2026/05/14 10:31:16.557,-0.024,-0.061,1.009
2026/05/14 10:31:16.577,-0.025,-0.061,1.011
2026/05/14 10:31:16.597,-0.023,-0.067,1.009
2026/05/14 10:31:16.617,-0.024,-0.061,1.008
2026/05/14 10:31:16.637,-0.021,-0.068,1.013
2026/05/14 10:31:16.657,-0.02,-0.059,1.009
2026/05/14 10:31:16.677,-0.025,-0.064,1.014
2026/05/14 10:31:16.697,-0.022,-0.061,1.008
2026/05/14 10:31:16.717,-0.023,-0.066,1.01
2026/05/14 10:31:16.737,-0.02,-0.062,1.012
2026/05/14 10:31:16.758,-0.021,-0.066,1.01
2026/05/14 10:31:16.778,-0.02,-0.062,1.006
2026/05/14 10:31:16.798,-0.023,-0.063,1.009
2026/05/14 10:31:16.818,-0.021,-0.063,1.003
2026/05/14 10:31:16.838,-0.025,-0.067,1.008
2026/05/14 10:31:16.858,-0.023,-0.064,1.009
2026/05/14 10:31:16.878,-0.023,-0.063,1.009
2026/05/14 10:31:16.898,-0.024,-0.064,1.008
2026/05/14 10:31:16.918,-0.023,-0.064,1.007
2026/05/14 10:31:16.938,-0.021,-0.064,1.01
2026/05/14 10:31:16.958,-0.023,-0.065,1.01
2026/05/14 10:31:16.978,-0.021,-0.065,1.01
2026/05/14 10:31:16.998,-0.024,-0.061,1.007
2026/05/14 10:31:17.018,-0.021,-0.06,1.007
2026/05/14 10:31:17.038,-0.021,-0.064,1.01
2026/05/14 10:31:17.058,-0.022,-0.065,1.012
2026/05/14 10:31:17.078,-0.02,-0.064,1.01
2026/05/14 10:31:17.098,-0.02,-0.065,1.008
2026/05/14 10:31:17.118,-0.023,-0.063,1.008
2026/05/14 10:31:17.138,-0.022,-0.064,1.009
2026/05/14 10:31:17.158,-0.017,-0.064,1.009
2026/05/14 10:31:17.178,-0.022,-0.062,1.01
2026/05/14 10:31:17.198,-0.02,-0.06,1.006
2026/05/14 10:31:17.218,-0.025,-0.064,1.01
2026/05/14 10:31:17.239,-0.019,-0.063,1.008
2026/05/14 10:31:17.259,-0.022,-0.066,1.006
2026/05/14 10:31:17.279,-0.027,-0.061,1.006
2026/05/14 10:31:17.299,-0.023,-0.066,1.006
2026/05/14 10:31:17.319,-0.026,-0.061,1.01
2026/05/14 10:31:17.339,-0.024,-0.064,1.008
2026/05/14 10:31:17.359,-0.018,-0.065,1.012
2026/05/14 10:31:17.379,-0.024,-0.061,1.007
2026/05/14 10:31:17.399,-0.02,-0.064,1.008
2026/05/14 10:31:17.419,-0.02,-0.062,1.009
2026/05/14 10:31:17.439,-0.022,-0.061,1.011
2026/05/14 10:31:17.459,-0.022,-0.063,1.012
2026/05/14 10:31:17.479,-0.021,-0.062,1.008
2026/05/14 10:31:17.499,-0.02,-0.059,1.005
2026/05/14 10:31:17.519,-0.023,-0.066,1.008
2026/05/14 10:31:17.539,-0.025,-0.063,1.007
2026/05/14 10:31:17.559,-0.022,-0.065,1.011
2026/05/14 10:31:17.579,-0.017,-0.067,1.008
2026/05/14 10:31:17.599,-0.022,-0.063,1.01
2026/05/14 10:31:17.619,-0.023,-0.064,1.012
2026/05/14 10:31:17.639,-0.023,-0.065,1.012
2026/05/14 10:31:17.659,-0.022,-0.063,1.005
2026/05/14 10:31:17.679,-0.019,-0.063,1.008
2026/05/14 10:31:17.700,-0.024,-0.064,1.007
2026/05/14 10:31:17.720,-0.02,-0.063,1.011
2026/05/14 10:31:17.740,-0.022,-0.067,1.004
2026/05/14 10:31:17.760,-0.022,-0.059,1.011
2026/05/14 10:31:17.780,-0.026,-0.06,1.01
2026/05/14 10:31:17.800,-0.024,-0.058,1.011
2026/05/14 10:31:17.820,-0.023,-0.065,1.01
2026/05/14 10:31:17.840,-0.022,-0.064,1.008
2026/05/14 10:31:17.860,-0.025,-0.067,1.01
2026/05/14 10:31:17.880,-0.021,-0.06,1.007
2026/05/14 10:31:17.900,-0.022,-0.06,1.009
2026/05/14 10:31:17.920,-0.022,-0.062,1.007
2026/05/14 10:31:17.940,-0.022,-0.06,1.01
2026/05/14 10:31:17.960,-0.02,-0.059,1.01
2026/05/14 10:31:17.980,-0.02,-0.062,1.011
2026/05/14 10:31:18.000,-0.021,-0.063,1.005
2026/05/14 10:31:18.020,-0.027,-0.063,1.008
2026/05/14 10:31:18.040,-0.02,-0.066,1.01
2026/05/14 10:31:18.060,-0.018,-0.063,1.01
2026/05/14 10:31:18.080,-0.021,-0.062,1.007
2026/05/14 10:31:18.100,-0.023,-0.06,1.009
2026/05/14 10:31:18.120,-0.023,-0.066,1.012
2026/05/14 10:31:18.140,-0.022,-0.063,1.007
2026/05/14 10:31:18.161,-0.022,-0.063,1.009
2026/05/14 10:31:18.181,-0.024,-0.063,1.011
2026/05/14 10:31:18.201,-0.023,-0.063,1.013
2026/05/14 10:31:18.221,-0.023,-0.065,1.009
2026/05/14 10:31:18.241,-0.025,-0.065,1.012
2026/05/14 10:31:18.261,-0.017,-0.064,1.008
2026/05/14 10:31:18.281,-0.022,-0.063,1.013
2026/05/14 10:31:18.301,-0.025,-0.064,1.01
2026/05/14 10:31:18.321,-0.024,-0.064,1.006
2026/05/14 10:31:18.341,-0.027,-0.065,1.008
2026/05/14 10:31:18.361,-0.022,-0.064,1.01
2026/05/14 10:31:18.381,-0.022,-0.062,1.011
2026/05/14 10:31:18.401,-0.024,-0.064,1.008
2026/05/14 10:31:18.421,-0.019,-0.065,1.009
2026/05/14 10:31:18.441,-0.022,-0.066,1.009
2026/05/14 10:31:18.461,-0.019,-0.062,1.01
2026/05/14 10:31:18.481,-0.021,-0.064,1.008
2026/05/14 10:31:18.501,-0.022,-0.066,1.011
2026/05/14 10:31:18.521,-0.017,-0.064,1.008
2026/05/14 10:31:18.541,-0.023,-0.062,1.006
2026/05/14 10:31:18.561,-0.021,-0.06,1.012
2026/05/14 10:31:18.581,-0.024,-0.065,1.007
2026/05/14 10:31:18.601,-0.021,-0.061,1.011
2026/05/14 10:31:18.622,-0.023,-0.063,1.01
2026/05/14 10:31:18.642,-0.022,-0.066,1.011
2026/05/14 10:31:18.662,-0.018,-0.067,1.011
2026/05/14 10:31:18.682,-0.023,-0.067,1.008
2026/05/14 10:31:18.702,-0.023,-0.063,1.015
2026/05/14 10:31:18.722,-0.02,-0.061,1.012
2026/05/14 10:31:18.742,-0.022,-0.061,1.007
2026/05/14 10:31:18.762,-0.021,-0.067,1.009
2026/05/14 10:31:18.782,-0.021,-0.063,1.007
2026/05/14 10:31:18.802,-0.024,-0.062,1.005
2026/05/14 10:31:18.822,-0.025,-0.065,1.007
2026/05/14 10:31:18.842,-0.021,-0.066,1.008
2026/05/14 10:31:18.862,-0.019,-0.062,1.006
2026/05/14 10:31:18.882,-0.022,-0.065,1.007
2026/05/14 10:31:18.902,-0.023,-0.063,1.005
2026/05/14 10:31:18.922,-0.02,-0.06,1.006
2026/05/14 10:31:18.942,-0.022,-0.06,1.01
2026/05/14 10:31:18.962,-0.017,-0.066,1.008
2026/05/14 10:31:18.982,-0.022,-0.065,1.01
2026/05/14 10:31:19.002,-0.019,-0.062,1.012
2026/05/14 10:31:19.022,-0.023,-0.067,1.012
2026/05/14 10:31:19.042,-0.019,-0.062,1.009
2026/05/14 10:31:19.063,-0.023,-0.067,1.009
2026/05/14 10:31:19.083,-0.023,-0.065,1.007
2026/05/14 10:31:19.103,-0.024,-0.06,1.009
2026/05/14 10:31:19.123,-0.022,-0.062,1.013
2026/05/14 10:31:19.143,-0.023,-0.066,1.013
2026/05/14 10:31:19.163,-0.023,-0.061,1.009
2026/05/14 10:31:19.183,-0.025,-0.061,1.009
2026/05/14 10:31:19.203,-0.022,-0.059,1.009
2026/05/14 10:31:19.223,-0.022,-0.063,1.01
2026/05/14 10:31:19.243,-0.023,-0.061,1.009
2026/05/14 10:31:19.263,-0.017,-0.065,1.009
2026/05/14 10:31:19.283,-0.024,-0.064,1.009
2026/05/14 10:31:19.303,-0.023,-0.063,1.009
2026/05/14 10:31:19.323,-0.02,-0.064,1.012
2026/05/14 10:31:19.343,-0.019,-0.062,1.008
2026/05/14 10:31:19.363,-0.02,-0.06,1.011
2026/05/14 10:31:19.383,-0.019,-0.063,1.011
2026/05/14 10:31:19.403,-0.023,-0.064,1.007
2026/05/14 10:31:19.423,-0.02,-0.063,1.012
2026/05/14 10:31:19.443,-0.021,-0.062,1.013
2026/05/14 10:31:19.463,-0.021,-0.061,1.005
2026/05/14 10:31:19.483,-0.023,-0.063,1.009
2026/05/14 10:31:19.503,-0.021,-0.062,1.009
2026/05/14 10:31:19.524,-0.021,-0.061,1.01
2026/05/14 10:31:19.544,-0.023,-0.067,1.012
2026/05/14 10:31:19.564,-0.023,-0.067,1.008
2026/05/14 10:31:19.584,-0.023,-0.065,1.009
2026/05/14 10:31:19.604,-0.023,-0.061,1.007
2026/05/14 10:31:19.624,-0.018,-0.059,1.01
2026/05/14 10:31:19.644,-0.022,-0.062,1.007
2026/05/14 10:31:19.664,-0.021,-0.065,1.009
2026/05/14 10:31:19.684,-0.025,-0.067,1.009
2026/05/14 10:31:19.704,-0.02,-0.064,1.005
2026/05/14 10:31:19.724,-0.021,-0.063,1.009
2026/05/14 10:31:19.744,-0.026,-0.065,1.007
2026/05/14 10:31:19.764,-0.023,-0.065,1.01
2026/05/14 10:31:19.784,-0.024,-0.063,1.01
2026/05/14 10:31:19.804,-0.021,-0.063,1.011
2026/05/14 10:31:19.824,-0.021,-0.059,1.005
2026/05/14 10:31:19.844,-0.026,-0.065,1.011
2026/05/14 10:31:19.864,-0.02,-0.06,1.008
2026/05/14 10:31:19.884,-0.021,-0.064,1.015
2026/05/14 10:31:19.904,-0.019,-0.063,1.009
2026/05/14 10:31:19.924,-0.021,-0.064,1.009
2026/05/14 10:31:19.944,-0.022,-0.06,1.007
2026/05/14 10:31:19.964,-0.019,-0.062,1.01
2026/05/14 10:31:19.985,-0.023,-0.059,1.009
2026/05/14 10:31:20.005,-0.021,-0.066,1.01
2026/05/14 10:31:20.025,-0.025,-0.062,1.007
2026/05/14 10:31:20.045,-0.017,-0.062,1.007
2026/05/14 10:31:20.065,-0.023,-0.062,1.005
2026/05/14 10:31:20.085,-0.019,-0.062,1.009
2026/05/14 10:31:20.105,-0.022,-0.064,1.01
2026/05/14 10:31:20.125,-0.02,-0.063,1.009
2026/05/14 10:31:20.145,-0.02,-0.063,1.011
2026/05/14 10:31:20.165,-0.02,-0.059,1.01
2026/05/14 10:31:20.185,-0.019,-0.062,1.009
2026/05/14 10:31:20.205,-0.02,-0.06,1.009
2026/05/14 10:31:20.225,-0.024,-0.061,1.013
2026/05/14 10:31:20.245,-0.023,-0.066,1.008
2026/05/14 10:31:20.265,-0.021,-0.064,1.007
2026/05/14 10:31:20.285,-0.02,-0.063,1.006
2026/05/14 10:31:20.305,-0.021,-0.062,1.009
2026/05/14 10:31:20.325,-0.022,-0.064,1.011
2026/05/14 10:31:20.345,-0.023,-0.065,1.006
2026/05/14 10:31:20.365,-0.026,-0.064,1.01
2026/05/14 10:31:20.385,-0.02,-0.063,1.011
2026/05/14 10:31:20.405,-0.018,-0.058,1.007
2026/05/14 10:31:20.425,-0.021,-0.062,1.006
2026/05/14 10:31:20.446,-0.022,-0.065,1.009
2026/05/14 10:31:20.466,-0.022,-0.064,1.01
2026/05/14 10:31:20.486,-0.021,-0.064,1.008
2026/05/14 10:31:20.506,-0.025,-0.063,1.007
2026/05/14 10:31:20.526,-0.025,-0.065,1.005
2026/05/14 10:31:20.546,-0.023,-0.063,1.011
2026/05/14 10:31:20.566,-0.023,-0.062,1.008
2026/05/14 10:31:20.586,-0.023,-0.062,1.011
2026/05/14 10:31:20.606,-0.021,-0.061,1.001
2026/05/14 10:31:20.626,-0.022,-0.059,1.007
2026/05/14 10:31:20.646,-0.02,-0.063,1.01
2026/05/14 10:31:20.666,-0.019,-0.063,1.009
2026/05/14 10:31:20.686,-0.023,-0.065,1.008
2026/05/14 10:31:20.706,-0.019,-0.064,1.008
2026/05/14 10:31:20.726,-0.021,-0.063,1.004
2026/05/14 10:31:20.746,-0.025,-0.06,1.004
2026/05/14 10:31:20.766,-0.021,-0.064,1.008
2026/05/14 10:31:20.786,-0.022,-0.06,1.009
2026/05/14 10:31:20.806,-0.025,-0.066,1.009
2026/05/14 10:31:20.826,-0.028,-0.063,1.005
2026/05/14 10:31:20.846,-0.022,-0.065,1.007
2026/05/14 10:31:20.866,-0.024,-0.063,1.008
2026/05/14 10:31:20.886,-0.023,-0.063,1.008
2026/05/14 10:31:20.907,-0.021,-0.062,1.006
2026/05/14 10:31:20.927,-0.022,-0.062,1.009
2026/05/14 10:31:20.947,-0.02,-0.06,1.013
2026/05/14 10:31:20.967,-0.02,-0.067,1.009
2026/05/14 10:31:20.987,-0.02,-0.064,1.01
2026/05/14 10:31:21.007,-0.02,-0.064,1.009
2026/05/14 10:31:21.027,-0.021,-0.064,1.011
2026/05/14 10:31:21.047,-0.022,-0.061,1.008
2026/05/14 10:31:21.067,-0.025,-0.062,1.01
2026/05/14 10:31:21.087,-0.023,-0.061,1.008
2026/05/14 10:31:21.107,-0.02,-0.065,1.01
2026/05/14 10:31:21.127,-0.019,-0.061,1.012
2026/05/14 10:31:21.147,-0.023,-0.061,1.012
2026/05/14 10:31:21.167,-0.019,-0.063,1.014
2026/05/14 10:31:21.187,-0.025,-0.063,1.01
2026/05/14 10:31:21.207,-0.02,-0.066,1.014
2026/05/14 10:31:21.227,-0.021,-0.058,1.011
2026/05/14 10:31:21.247,-0.023,-0.066,1.013
2026/05/14 10:31:21.267,-0.019,-0.063,1.008
2026/05/14 10:31:21.287,-0.022,-0.061,1.007
2026/05/14 10:31:21.307,-0.026,-0.066,1.004
2026/05/14 10:31:21.327,-0.021,-0.062,1.008
2026/05/14 10:31:21.347,-0.02,-0.062,1.012
2026/05/14 10:31:21.368,-0.022,-0.061,1.011
2026/05/14 10:31:21.388,-0.023,-0.06,1.011
2026/05/14 10:31:21.408,-0.022,-0.056,1.008
2026/05/14 10:31:21.428,-0.026,-0.063,1.01
2026/05/14 10:31:21.448,-0.023,-0.06,1.007
2026/05/14 10:31:21.468,-0.023,-0.062,1.006
2026/05/14 10:31:21.488,-0.023,-0.062,1.01
2026/05/14 10:31:21.508,-0.024,-0.063,1.009
2026/05/14 10:31:21.528,-0.02,-0.063,1.013
2026/05/14 10:31:21.548,-0.023,-0.062,1.01
2026/05/14 10:31:21.568,-0.024,-0.061,1.011
2026/05/14 10:31:21.588,-0.022,-0.064,1.008
2026/05/14 10:31:21.608,-0.022,-0.06,1.008
2026/05/14 10:31:21.628,-0.022,-0.065,1.011
2026/05/14 10:31:21.648,-0.019,-0.063,1.01
2026/05/14 10:31:21.668,-0.02,-0.062,1.006
2026/05/14 10:31:21.688,-0.019,-0.063,1.011
2026/05/14 10:31:21.708,-0.023,-0.06,1.011
2026/05/14 10:31:21.728,-0.023,-0.064,1.009
2026/05/14 10:31:21.748,-0.019,-0.064,1.005
2026/05/14 10:31:21.768,-0.021,-0.067,1.005
2026/05/14 10:31:21.788,-0.023,-0.062,1.009
2026/05/14 10:31:21.808,-0.02,-0.064,1.011
2026/05/14 10:31:21.828,-0.02,-0.06,1.013
2026/05/14 10:31:21.849,-0.019,-0.062,1.008
2026/05/14 10:31:21.869,-0.02,-0.066,1.006
2026/05/14 10:31:21.889,-0.025,-0.062,1.01
2026/05/14 10:31:21.909,-0.022,-0.064,1.006
2026/05/14 10:31:21.929,-0.022,-0.063,1.013
2026/05/14 10:31:21.949,-0.019,-0.062,1.007
2026/05/14 10:31:21.969,-0.026,-0.064,1.014
2026/05/14 10:31:21.989,-0.02,-0.062,1.007
2026/05/14 10:31:22.009,-0.02,-0.062,1.011
2026/05/14 10:31:22.029,-0.022,-0.06,1.01
2026/05/14 10:31:22.049,-0.022,-0.064,1.01
2026/05/14 10:31:22.069,-0.021,-0.062,1.008
2026/05/14 10:31:22.089,-0.017,-0.063,1.01
2026/05/14 10:31:22.109,-0.018,-0.063,1.011
2026/05/14 10:31:22.129,-0.024,-0.063,1.009
2026/05/14 10:31:22.149,-0.018,-0.069,1.01
2026/05/14 10:31:22.169,-0.022,-0.061,1.011
2026/05/14 10:31:22.189,-0.021,-0.063,1.006
2026/05/14 10:31:22.209,-0.021,-0.063,1.012
2026/05/14 10:31:22.229,-0.018,-0.063,1.009
2026/05/14 10:31:22.249,-0.023,-0.068,1.011
2026/05/14 10:31:22.269,-0.02,-0.065,1.009
2026/05/14 10:31:22.289,-0.022,-0.064,1.012
2026/05/14 10:31:22.310,-0.022,-0.065,1.013
2026/05/14 10:31:22.330,-0.02,-0.062,1.007
2026/05/14 10:31:22.350,-0.021,-0.065,1.01
2026/05/14 10:31:22.370,-0.023,-0.064,1.01
2026/05/14 10:31:22.390,-0.022,-0.066,1.01
2026/05/14 10:31:22.410,-0.024,-0.064,1.009
2026/05/14 10:31:22.430,-0.023,-0.061,1.016
2026/05/14 10:31:22.450,-0.026,-0.065,1.001
2026/05/14 10:31:22.470,-0.022,-0.063,1.011
2026/05/14 10:31:22.490,-0.025,-0.066,1.009
2026/05/14 10:31:22.510,-0.022,-0.063,1.011
2026/05/14 10:31:22.530,-0.021,-0.061,1.006
2026/05/14 10:31:22.550,-0.023,-0.065,1.005
2026/05/14 10:31:22.570,-0.025,-0.067,1.012
2026/05/14 10:31:22.590,-0.023,-0.063,1.01
2026/05/14 10:31:22.610,-0.022,-0.062,1.007
2026/05/14 10:31:22.630,-0.021,-0.062,1.011
2026/05/14 10:31:22.650,-0.023,-0.064,1.009
2026/05/14 10:31:22.670,-0.022,-0.064,1.011
2026/05/14 10:31:22.690,-0.021,-0.062,1.009
2026/05/14 10:31:22.710,-0.024,-0.064,1.011
2026/05/14 10:31:22.730,-0.019,-0.064,1.004
2026/05/14 10:31:22.750,-0.019,-0.063,1.01
2026/05/14 10:31:22.770,-0.02,-0.062,1.011
2026/05/14 10:31:22.791,-0.022,-0.062,1.007
2026/05/14 10:31:22.811,-0.02,-0.067,1.005
2026/05/14 10:31:22.831,-0.022,-0.065,1.009
2026/05/14 10:31:22.851,-0.027,-0.06,1.008
2026/05/14 10:31:22.871,-0.024,-0.062,1.009
2026/05/14 10:31:22.891,-0.02,-0.064,1.009
2026/05/14 10:31:22.911,-0.023,-0.063,1.009
2026/05/14 10:31:22.931,-0.017,-0.065,1.007
2026/05/14 10:31:22.951,-0.023,-0.067,1.008
2026/05/14 10:31:22.971,-0.021,-0.065,1.004
2026/05/14 10:31:22.991,-0.022,-0.066,1.008
2026/05/14 10:31:23.011,-0.023,-0.064,1.009
2026/05/14 10:31:23.031,-0.019,-0.062,1.011
2026/05/14 10:31:23.051,-0.021,-0.066,1.009
2026/05/14 10:31:23.071,-0.021,-0.065,1.008
2026/05/14 10:31:23.091,-0.023,-0.064,1.008
2026/05/14 10:31:23.111,-0.022,-0.064,1.01
2026/05/14 10:31:23.131,-0.025,-0.065,1.008
2026/05/14 10:31:23.151,-0.024,-0.063,1.006
2026/05/14 10:31:23.171,-0.02,-0.063,1.008
2026/05/14 10:31:23.191,-0.016,-0.062,1.008
2026/05/14 10:31:23.211,-0.024,-0.062,1.005
2026/05/14 10:31:23.231,-0.021,-0.059,1.009
2026/05/14 10:31:23.252,-0.019,-0.062,1.006
2026/05/14 10:31:23.272,-0.021,-0.065,1.012
2026/05/14 10:31:23.292,-0.021,-0.06,1.006
2026/05/14 10:31:23.312,-0.021,-0.061,1.009
2026/05/14 10:31:23.332,-0.02,-0.064,1.011
2026/05/14 10:31:23.352,-0.018,-0.07,1.011
2026/05/14 10:31:23.372,-0.024,-0.061,1.009
2026/05/14 10:31:23.392,-0.022,-0.064,1.01
2026/05/14 10:31:23.412,-0.023,-0.064,1.007
2026/05/14 10:31:23.432,-0.024,-0.065,1.007
2026/05/14 10:31:23.452,-0.02,-0.063,1.01
2026/05/14 10:31:23.472,-0.025,-0.066,1.008
2026/05/14 10:31:23.492,-0.021,-0.063,1.008
2026/05/14 10:31:23.512,-0.018,-0.065,1.008
2026/05/14 10:31:23.532,-0.023,-0.06,1.01
2026/05/14 10:31:23.552,-0.018,-0.063,1.01
2026/05/14 10:31:23.572,-0.021,-0.063,1.012
2026/05/14 10:31:23.592,-0.026,-0.068,1.005
2026/05/14 10:31:23.612,-0.02,-0.059,1.009
2026/05/14 10:31:23.632,-0.018,-0.065,1.01
2026/05/14 10:31:23.652,-0.024,-0.067,1.007
2026/05/14 10:31:23.672,-0.022,-0.063,1.007
2026/05/14 10:31:23.692,-0.022,-0.062,1.01
2026/05/14 10:31:23.712,-0.023,-0.068,1.01
2026/05/14 10:31:23.733,-0.019,-0.066,1.006
2026/05/14 10:31:23.753,-0.025,-0.062,1.011
2026/05/14 10:31:23.773,-0.019,-0.064,1.013
2026/05/14 10:31:23.793,-0.023,-0.061,1.012
2026/05/14 10:31:23.813,-0.021,-0.063,1.01
2026/05/14 10:31:23.833,-0.024,-0.062,1.009
2026/05/14 10:31:23.853,-0.025,-0.065,1.009
2026/05/14 10:31:23.873,-0.023,-0.062,1.008
2026/05/14 10:31:23.893,-0.022,-0.061,1.008
2026/05/14 10:31:23.913,-0.022,-0.063,1.009
2026/05/14 10:31:23.933,-0.027,-0.065,1.011
2026/05/14 10:31:23.953,-0.02,-0.067,1.009
2026/05/14 10:31:23.973,-0.024,-0.063,1.012
2026/05/14 10:31:23.993,-0.022,-0.063,1.011
2026/05/14 10:31:24.013,-0.026,-0.066,1.008
2026/05/14 10:31:24.033,-0.024,-0.062,1.011
2026/05/14 10:31:24.053,-0.024,-0.065,1.011
2026/05/14 10:31:24.073,-0.024,-0.065,1.005
2026/05/14 10:31:24.093,-0.019,-0.061,1.01
2026/05/14 10:31:24.113,-0.024,-0.065,1.012
2026/05/14 10:31:24.133,-0.019,-0.063,1.011
2026/05/14 10:31:24.153,-0.023,-0.062,1.008
2026/05/14 10:31:24.173,-0.023,-0.06,1.008
2026/05/14 10:31:24.194,-0.022,-0.062,1.009
2026/05/14 10:31:24.214,-0.023,-0.062,1.008
2026/05/14 10:31:24.234,-0.018,-0.062,1.008
2026/05/14 10:31:24.254,-0.025,-0.061,1.009
2026/05/14 10:31:24.274,-0.021,-0.069,1.009
2026/05/14 10:31:24.294,-0.018,-0.069,1.032
2026/05/14 10:31:24.314,-0.019,-0.053,1.02
2026/05/14 10:31:24.334,-0.02,-0.062,1.006
2026/05/14 10:31:24.354,-0.02,-0.065,1.015
2026/05/14 10:31:24.374,-0.021,-0.061,1.015
2026/05/14 10:31:24.394,-0.019,-0.065,1.007
2026/05/14 10:31:24.414,-0.024,-0.064,1.008
2026/05/14 10:31:24.434,-0.023,-0.064,1.011
2026/05/14 10:31:24.454,-0.024,-0.064,1.009
2026/05/14 10:31:24.474,-0.023,-0.061,1.01
2026/05/14 10:31:24.494,-0.019,-0.063,1.012
2026/05/14 10:31:24.514,-0.026,-0.063,1.008
2026/05/14 10:31:24.534,-0.027,-0.059,1.008
2026/05/14 10:31:24.554,-0.022,-0.064,1.01
2026/05/14 10:31:24.574,-0.021,-0.065,1.01
2026/05/14 10:31:24.594,-0.023,-0.062,1.008
2026/05/14 10:31:24.614,-0.021,-0.059,1.008
2026/05/14 10:31:24.634,-0.024,-0.061,1.012
2026/05/14 10:31:24.654,-0.023,-0.064,1.006
2026/05/14 10:31:24.675,-0.021,-0.063,1.011
2026/05/14 10:31:24.695,-0.02,-0.066,1.004
2026/05/14 10:31:24.715,-0.024,-0.066,1.008
2026/05/14 10:31:24.735,-0.022,-0.062,1.011
2026/05/14 10:31:24.755,-0.022,-0.064,1.009
2026/05/14 10:31:24.775,-0.025,-0.063,1.008
2026/05/14 10:31:24.795,-0.02,-0.061,1.012
2026/05/14 10:31:24.815,-0.022,-0.065,1.007
2026/05/14 10:31:24.835,-0.024,-0.061,1.012
2026/05/14 10:31:24.855,-0.022,-0.061,1.011
2026/05/14 10:31:24.875,-0.021,-0.06,1.011
2026/05/14 10:31:24.895,-0.022,-0.059,1.011
2026/05/14 10:31:24.915,-0.023,-0.062,1.006
2026/05/14 10:31:24.935,-0.023,-0.062,1.008
2026/05/14 10:31:24.955,-0.023,-0.064,1.009
2026/05/14 10:31:24.975,-0.024,-0.065,1.008
2026/05/14 10:31:24.995,-0.019,-0.065,1.009
2026/05/14 10:31:25.015,-0.022,-0.06,1.006
2026/05/14 10:31:25.035,-0.021,-0.06,1.008
2026/05/14 10:31:25.055,-0.023,-0.064,1.008
2026/05/14 10:31:25.075,-0.025,-0.062,1.009
2026/05/14 10:31:25.095,-0.023,-0.058,1.01
2026/05/14 10:31:25.115,-0.022,-0.058,1.009
2026/05/14 10:31:25.136,-0.024,-0.064,1.007
2026/05/14 10:31:25.156,-0.024,-0.065,1.006
2026/05/14 10:31:25.176,-0.023,-0.062,1.008
2026/05/14 10:31:25.196,-0.021,-0.06,1.01
2026/05/14 10:31:25.216,-0.025,-0.065,1.015
2026/05/14 10:31:25.236,-0.023,-0.067,1.011
2026/05/14 10:31:25.256,-0.02,-0.065,1.008
2026/05/14 10:31:25.276,-0.022,-0.06,1.01
2026/05/14 10:31:25.296,-0.015,-0.061,1.01
2026/05/14 10:31:25.316,-0.014,-0.062,1.01
2026/05/14 10:31:25.336,-0.017,-0.062,1.007
2026/05/14 10:31:25.356,-0.019,-0.067,1.016
2026/05/14 10:31:25.376,-0.024,-0.065,1.004
2026/05/14 10:31:25.396,-0.018,-0.064,1.017
2026/05/14 10:31:25.416,-0.021,-0.066,1.016
2026/05/14 10:31:25.436,-0.021,-0.067,1.007
2026/05/14 10:31:25.456,-0.026,-0.061,1.008
2026/05/14 10:31:25.476,-0.021,-0.06,1.004
2026/05/14 10:31:25.496,-0.021,-0.066,1.008
2026/05/14 10:31:25.516,-0.022,-0.062,1.005
2026/05/14 10:31:25.536,-0.024,-0.061,1.009
2026/05/14 10:31:25.556,-0.02,-0.06,1.01
2026/05/14 10:31:25.576,-0.025,-0.064,1.013
2026/05/14 10:31:25.596,-0.02,-0.067,1.007
2026/05/14 10:31:25.617,-0.023,-0.062,1.011
2026/05/14 10:31:25.637,-0.024,-0.062,1.009
2026/05/14 10:31:25.657,-0.024,-0.06,1.008
2026/05/14 10:31:25.677,-0.022,-0.064,1.006
2026/05/14 10:31:25.697,-0.024,-0.067,1.011
2026/05/14 10:31:25.717,-0.021,-0.065,1.008
2026/05/14 10:31:25.737,-0.025,-0.067,1.013
2026/05/14 10:31:25.757,-0.02,-0.065,1.007
2026/05/14 10:31:25.777,-0.021,-0.06,1.009
2026/05/14 10:31:25.797,-0.02,-0.064,1.013
2026/05/14 10:31:25.817,-0.024,-0.061,1.009
2026/05/14 10:31:25.837,-0.022,-0.062,1.008
2026/05/14 10:31:25.857,-0.024,-0.064,1.014
2026/05/14 10:31:25.877,-0.02,-0.058,1.012
2026/05/14 10:31:25.897,-0.017,-0.064,1.007
2026/05/14 10:31:25.917,-0.017,-0.065,1.01
2026/05/14 10:31:25.937,-0.022,-0.063,1.01
2026/05/14 10:31:25.957,-0.023,-0.065,1.013
2026/05/14 10:31:25.977,-0.023,-0.061,1.01
2026/05/14 10:31:25.997,-0.024,-0.065,1.009
2026/05/14 10:31:26.017,-0.023,-0.063,1.012
2026/05/14 10:31:26.037,-0.023,-0.065,1.008
2026/05/14 10:31:26.058,-0.022,-0.064,1.007
2026/05/14 10:31:26.078,-0.023,-0.065,1.011
2026/05/14 10:31:26.098,-0.021,-0.066,1.01
2026/05/14 10:31:26.118,-0.024,-0.067,1.01
2026/05/14 10:31:26.138,-0.019,-0.064,1.009
2026/05/14 10:31:26.158,-0.021,-0.067,1.007
2026/05/14 10:31:26.178,-0.023,-0.06,1.009
2026/05/14 10:31:26.198,-0.021,-0.065,1.006
2026/05/14 10:31:26.218,-0.019,-0.061,1.006
2026/05/14 10:31:26.238,-0.022,-0.061,1.004
2026/05/14 10:31:26.258,-0.019,-0.066,1.011
2026/05/14 10:31:26.278,-0.024,-0.066,1.007
2026/05/14 10:31:26.298,-0.022,-0.063,1.005
2026/05/14 10:31:26.318,-0.022,-0.062,1.008
2026/05/14 10:31:26.338,-0.02,-0.066,1.006
2026/05/14 10:31:26.358,-0.023,-0.061,1.013
2026/05/14 10:31:26.378,-0.023,-0.063,1.009
2026/05/14 10:31:26.398,-0.025,-0.064,1.008
2026/05/14 10:31:26.418,-0.019,-0.063,1.009
2026/05/14 10:31:26.438,-0.02,-0.06,1.013
2026/05/14 10:31:26.458,-0.023,-0.063,1.011
2026/05/14 10:31:26.478,-0.025,-0.065,1.005
2026/05/14 10:31:26.498,-0.019,-0.06,1.011
2026/05/14 10:31:26.519,-0.02,-0.068,1.013
2026/05/14 10:31:26.539,-0.021,-0.058,1.009
2026/05/14 10:31:26.559,-0.021,-0.063,1.011
2026/05/14 10:31:26.579,-0.016,-0.064,1.011
2026/05/14 10:31:26.599,-0.021,-0.067,1.009
2026/05/14 10:31:26.619,-0.024,-0.061,1.01
2026/05/14 10:31:26.639,-0.021,-0.065,1.012
2026/05/14 10:31:26.659,-0.022,-0.063,1.008
2026/05/14 10:31:26.679,-0.025,-0.064,1.012
2026/05/14 10:31:26.699,-0.021,-0.065,1.011
2026/05/14 10:31:26.719,-0.021,-0.063,1.01
2026/05/14 10:31:26.739,-0.02,-0.065,1.009
2026/05/14 10:31:26.759,-0.023,-0.063,1.008
2026/05/14 10:31:26.779,-0.024,-0.061,1.011
2026/05/14 10:31:26.799,-0.02,-0.062,1.009
2026/05/14 10:31:26.819,-0.022,-0.064,1.007
2026/05/14 10:31:26.839,-0.017,-0.062,1.008
2026/05/14 10:31:26.859,-0.019,-0.061,1.007
2026/05/14 10:31:26.879,-0.025,-0.064,1.012
2026/05/14 10:31:26.899,-0.024,-0.065,1.009
2026/05/14 10:31:26.919,-0.023,-0.056,1.009
2026/05/14 10:31:26.939,-0.019,-0.062,1.01
2026/05/14 10:31:26.959,-0.023,-0.062,1.012
2026/05/14 10:31:26.980,-0.02,-0.061,1.008
2026/05/14 10:31:27.000,-0.022,-0.07,1.007
2026/05/14 10:31:27.020,-0.021,-0.069,1.008
2026/05/14 10:31:27.040,-0.02,-0.063,1.01
2026/05/14 10:31:27.060,-0.024,-0.068,1.011
2026/05/14 10:31:27.080,-0.023,-0.064,1.009
2026/05/14 10:31:27.100,-0.023,-0.061,1.01
2026/05/14 10:31:27.120,-0.02,-0.06,1.008
2026/05/14 10:31:27.140,-0.021,-0.06,1.012
2026/05/14 10:31:27.160,-0.019,-0.061,1.007
2026/05/14 10:31:27.180,-0.023,-0.067,1.006
2026/05/14 10:31:27.200,-0.023,-0.059,1.012
2026/05/14 10:31:27.220,-0.018,-0.063,1.01
2026/05/14 10:31:27.240,-0.022,-0.061,1.009
2026/05/14 10:31:27.260,-0.024,-0.066,1.005
2026/05/14 10:31:27.280,-0.025,-0.064,1.011
2026/05/14 10:31:27.300,-0.023,-0.065,1.011
2026/05/14 10:31:27.320,-0.023,-0.062,1.009
2026/05/14 10:31:27.340,-0.019,-0.063,1.009
2026/05/14 10:31:27.360,-0.024,-0.067,1.008
2026/05/14 10:31:27.380,-0.019,-0.063,1.008
2026/05/14 10:31:27.400,-0.023,-0.065,1.01
2026/05/14 10:31:27.420,-0.023,-0.066,1.008
2026/05/14 10:31:27.441,-0.02,-0.065,1.009
2026/05/14 10:31:27.461,-0.025,-0.064,1.012
2026/05/14 10:31:27.481,-0.021,-0.068,1.008
2026/05/14 10:31:27.501,-0.024,-0.068,1.008
2026/05/14 10:31:27.521,-0.023,-0.061,1.008
2026/05/14 10:31:27.541,-0.023,-0.067,1.008
2026/05/14 10:31:27.561,-0.021,-0.065,1.007
2026/05/14 10:31:27.581,-0.022,-0.067,1.006
2026/05/14 10:31:27.601,-0.024,-0.061,1.007
2026/05/14 10:31:27.621,-0.022,-0.067,1.008
2026/05/14 10:31:27.641,-0.02,-0.062,1.013
2026/05/14 10:31:27.661,-0.023,-0.063,1.006
2026/05/14 10:31:27.681,-0.021,-0.063,1.005
2026/05/14 10:31:27.701,-0.023,-0.059,1.005
2026/05/14 10:31:27.721,-0.022,-0.064,1.01
2026/05/14 10:31:27.741,-0.021,-0.064,1.007
2026/05/14 10:31:27.761,-0.023,-0.064,1.012
2026/05/14 10:31:27.781,-0.024,-0.059,1.009
2026/05/14 10:31:27.801,-0.02,-0.065,1.013
2026/05/14 10:31:27.821,-0.021,-0.063,1.009
2026/05/14 10:31:27.841,-0.022,-0.065,1.009
2026/05/14 10:31:27.861,-0.023,-0.065,1.002
2026/05/14 10:31:27.882,-0.023,-0.062,1.01
2026/05/14 10:31:27.902,-0.02,-0.064,1.011
2026/05/14 10:31:27.922,-0.026,-0.062,1.011
2026/05/14 10:31:27.942,-0.022,-0.061,1.011
2026/05/14 10:31:27.962,-0.023,-0.063,1.011
2026/05/14 10:31:27.982,-0.024,-0.062,1.006
2026/05/14 10:31:28.002,-0.024,-0.066,1.014
2026/05/14 10:31:28.022,-0.022,-0.061,1.011
2026/05/14 10:31:28.042,-0.021,-0.062,1.004
2026/05/14 10:31:28.062,-0.023,-0.062,1.007
2026/05/14 10:31:28.082,-0.019,-0.063,1.008
2026/05/14 10:31:28.102,-0.022,-0.062,1.012
2026/05/14 10:31:28.122,-0.02,-0.063,1.007
2026/05/14 10:31:28.142,-0.021,-0.062,1.006
2026/05/14 10:31:28.162,-0.026,-0.065,1.007
2026/05/14 10:31:28.182,-0.02,-0.069,1.011
2026/05/14 10:31:28.202,-0.021,-0.058,1.009
2026/05/14 10:31:28.222,-0.023,-0.059,1.003
2026/05/14 10:31:28.242,-0.023,-0.065,1.007
2026/05/14 10:31:28.262,-0.024,-0.062,1.009
2026/05/14 10:31:28.282,-0.021,-0.065,1.009
2026/05/14 10:31:28.302,-0.025,-0.069,1.009
2026/05/14 10:31:28.322,-0.02,-0.064,1.009
2026/05/14 10:31:28.343,-0.02,-0.066,1.008
2026/05/14 10:31:28.363,-0.026,-0.062,1.005
2026/05/14 10:31:28.383,-0.022,-0.063,1.012
2026/05/14 10:31:28.403,-0.024,-0.066,1.007
2026/05/14 10:31:28.423,-0.021,-0.063,1.012
2026/05/14 10:31:28.443,-0.022,-0.066,1.008
2026/05/14 10:31:28.463,-0.02,-0.064,1.009
2026/05/14 10:31:28.483,-0.02,-0.064,1.009
2026/05/14 10:31:28.503,-0.021,-0.062,1.007
2026/05/14 10:31:28.523,-0.02,-0.061,1.011
2026/05/14 10:31:28.543,-0.021,-0.066,1.007
2026/05/14 10:31:28.563,-0.022,-0.067,1.004
2026/05/14 10:31:28.583,-0.022,-0.062,1.009
2026/05/14 10:31:28.603,-0.024,-0.064,1.01
2026/05/14 10:31:28.623,-0.02,-0.065,1.006
2026/05/14 10:31:28.643,-0.019,-0.062,1.009
2026/05/14 10:31:28.663,-0.019,-0.064,1.009
2026/05/14 10:31:28.683,-0.022,-0.062,1.011
2026/05/14 10:31:28.703,-0.02,-0.058,1.009
2026/05/14 10:31:28.723,-0.026,-0.067,1.012
2026/05/14 10:31:28.743,-0.019,-0.066,1.006
2026/05/14 10:31:28.763,-0.022,-0.066,1.011
2026/05/14 10:31:28.783,-0.023,-0.063,1.007
2026/05/14 10:31:28.804,-0.022,-0.063,1.011
2026/05/14 10:31:28.824,-0.022,-0.064,1.011
2026/05/14 10:31:28.844,-0.022,-0.063,1.011
2026/05/14 10:31:28.864,-0.02,-0.061,1.007
2026/05/14 10:31:28.884,-0.023,-0.063,1.01
2026/05/14 10:31:28.904,-0.021,-0.064,1.01
2026/05/14 10:31:28.924,-0.018,-0.064,1.01
2026/05/14 10:31:28.944,-0.023,-0.061,1.011
2026/05/14 10:31:28.964,-0.021,-0.062,1.008
2026/05/14 10:31:28.984,-0.02,-0.065,1.008
2026/05/14 10:31:29.004,-0.023,-0.061,1.007
2026/05/14 10:31:29.024,-0.024,-0.06,1.008
2026/05/14 10:31:29.044,-0.023,-0.066,1.011
2026/05/14 10:31:29.064,-0.02,-0.066,1.009
2026/05/14 10:31:29.084,-0.02,-0.064,1.01
2026/05/14 10:31:29.104,-0.024,-0.062,1.014
2026/05/14 10:31:29.124,-0.021,-0.059,1.007
2026/05/14 10:31:29.144,-0.022,-0.064,1.009
2026/05/14 10:31:29.164,-0.021,-0.065,1.007
2026/05/14 10:31:29.184,-0.018,-0.061,1.008
2026/05/14 10:31:29.204,-0.02,-0.063,1.01
2026/05/14 10:31:29.224,-0.021,-0.066,1.013
2026/05/14 10:31:29.244,-0.022,-0.061,1.007
2026/05/14 10:31:29.265,-0.024,-0.062,1.004
2026/05/14 10:31:29.285,-0.022,-0.065,1.01
2026/05/14 10:31:29.305,-0.022,-0.062,1.009
2026/05/14 10:31:29.325,-0.018,-0.064,1.009
2026/05/14 10:31:29.345,-0.026,-0.06,1.007
2026/05/14 10:31:29.365,-0.02,-0.061,1.008
2026/05/14 10:31:29.385,-0.021,-0.063,1.007
2026/05/14 10:31:29.405,-0.026,-0.063,1.014
2026/05/14 10:31:29.425,-0.022,-0.062,1.009
2026/05/14 10:31:29.445,-0.02,-0.063,1.01
2026/05/14 10:31:29.465,-0.02,-0.061,1.011
2026/05/14 10:31:29.485,-0.022,-0.063,1.01
2026/05/14 10:31:29.505,-0.026,-0.062,1.009
2026/05/14 10:31:29.525,-0.021,-0.059,1.012
2026/05/14 10:31:29.545,-0.022,-0.061,1.013
2026/05/14 10:31:29.565,-0.023,-0.065,1.007
2026/05/14 10:31:29.585,-0.021,-0.064,1.008
2026/05/14 10:31:29.605,-0.021,-0.06,1.009
2026/05/14 10:31:29.625,-0.023,-0.066,1.009
2026/05/14 10:31:29.645,-0.023,-0.064,1.01
2026/05/14 10:31:29.665,-0.017,-0.064,1.009
2026/05/14 10:31:29.685,-0.02,-0.068,1.006
2026/05/14 10:31:29.705,-0.02,-0.064,1.007
2026/05/14 10:31:29.725,-0.024,-0.061,1.011
2026/05/14 10:31:29.746,-0.021,-0.058,1.006
2026/05/14 10:31:29.766,-0.022,-0.061,1.011
2026/05/14 10:31:29.786,-0.022,-0.063,1.009
2026/05/14 10:31:29.806,-0.018,-0.059,1.009
2026/05/14 10:31:29.826,-0.024,-0.063,1.011
2026/05/14 10:31:29.846,-0.022,-0.064,1.011
2026/05/14 10:31:29.866,-0.019,-0.066,1.009
2026/05/14 10:31:29.886,-0.023,-0.062,1.006
2026/05/14 10:31:29.906,-0.023,-0.06,1.01
2026/05/14 10:31:29.926,-0.022,-0.06,1.008
2026/05/14 10:31:29.946,-0.022,-0.065,1.009
2026/05/14 10:31:29.966,-0.02,-0.06,1.012
2026/05/14 10:31:29.986,-0.024,-0.064,1.01
2026/05/14 10:31:30.006,-0.025,-0.061,1.01
2026/05/14 10:31:30.026,-0.023,-0.061,1.011
2026/05/14 10:31:30.046,-0.02,-0.064,1.007
2026/05/14 10:31:30.066,-0.022,-0.065,1.008
2026/05/14 10:31:30.086,-0.021,-0.065,1.009
2026/05/14 10:31:30.106,-0.021,-0.065,1.009
2026/05/14 10:31:30.126,-0.024,-0.062,1.009
2026/05/14 10:31:30.146,-0.02,-0.062,1.01
2026/05/14 10:31:30.166,-0.02,-0.061,1.011
2026/05/14 10:31:30.186,-0.021,-0.063,1.011
2026/05/14 10:31:30.207,-0.023,-0.067,1.008
2026/05/14 10:31:30.227,-0.023,-0.067,1.01
2026/05/14 10:31:30.247,-0.018,-0.061,1.008
2026/05/14 10:31:30.267,-0.018,-0.065,1.009
2026/05/14 10:31:30.287,-0.02,-0.061,1.007
2026/05/14 10:31:30.307,-0.019,-0.064,1.009
2026/05/14 10:31:30.327,-0.023,-0.062,1.009
2026/05/14 10:31:30.347,-0.025,-0.061,1.01
2026/05/14 10:31:30.367,-0.02,-0.063,1.012
2026/05/14 10:31:30.387,-0.021,-0.065,1.016
2026/05/14 10:31:30.407,-0.023,-0.064,1.011
2026/05/14 10:31:30.427,-0.018,-0.065,1.011
2026/05/14 10:31:30.447,-0.023,-0.061,1.008
2026/05/14 10:31:30.467,-0.026,-0.064,1.007
2026/05/14 10:31:30.487,-0.023,-0.06,1.009
2026/05/14 10:31:30.507,-0.021,-0.064,1.013
2026/05/14 10:31:30.527,-0.023,-0.067,1.01
2026/05/14 10:31:30.547,-0.023,-0.065,1.01
2026/05/14 10:31:30.567,-0.022,-0.06,1.007
2026/05/14 10:31:30.587,-0.024,-0.065,1.008
2026/05/14 10:31:30.607,-0.021,-0.062,1.011
2026/05/14 10:31:30.627,-0.019,-0.066,1.008
2026/05/14 10:31:30.647,-0.023,-0.064,1.01
2026/05/14 10:31:30.668,-0.018,-0.061,1.008
2026/05/14 10:31:30.688,-0.022,-0.065,1.004
2026/05/14 10:31:30.708,-0.023,-0.062,1.011
2026/05/14 10:31:30.728,-0.023,-0.062,1.011
2026/05/14 10:31:30.748,-0.019,-0.064,1.01
2026/05/14 10:31:30.768,-0.022,-0.066,1.008
2026/05/14 10:31:30.788,-0.019,-0.067,1.007
2026/05/14 10:31:30.808,-0.021,-0.065,1.01
2026/05/14 10:31:30.828,-0.02,-0.065,1.012
2026/05/14 10:31:30.848,-0.021,-0.065,1.011
2026/05/14 10:31:30.868,-0.021,-0.064,1.006
2026/05/14 10:31:30.888,-0.021,-0.064,1.008
2026/05/14 10:31:30.908,-0.021,-0.067,1.008
2026/05/14 10:31:30.928,-0.022,-0.067,1.009
2026/05/14 10:31:30.948,-0.018,-0.065,1.008
2026/05/14 10:31:30.968,-0.021,-0.059,1.009
2026/05/14 10:31:30.988,-0.022,-0.063,1.014
2026/05/14 10:31:31.008,-0.02,-0.061,1.008
2026/05/14 10:31:31.028,-0.021,-0.063,1.009
2026/05/14 10:31:31.048,-0.023,-0.068,1.009
2026/05/14 10:31:31.068,-0.019,-0.066,1.012
2026/05/14 10:31:31.088,-0.023,-0.065,1.01
2026/05/14 10:31:31.108,-0.02,-0.062,1.011
2026/05/14 10:31:31.129,-0.023,-0.064,1.011
2026/05/14 10:31:31.149,-0.023,-0.064,1.01
2026/05/14 10:31:31.169,-0.023,-0.066,1.007
2026/05/14 10:31:31.189,-0.022,-0.061,1.003
2026/05/14 10:31:31.209,-0.027,-0.064,1.01
2026/05/14 10:31:31.229,-0.023,-0.062,1.014
2026/05/14 10:31:31.249,-0.024,-0.065,1.012
2026/05/14 10:31:31.269,-0.02,-0.067,1.01
2026/05/14 10:31:31.289,-0.02,-0.064,1.011
2026/05/14 10:31:31.309,-0.025,-0.062,1.009
2026/05/14 10:31:31.329,-0.022,-0.059,1.009
2026/05/14 10:31:31.349,-0.022,-0.062,1.006
2026/05/14 10:31:31.369,-0.02,-0.065,1.011
2026/05/14 10:31:31.389,-0.025,-0.065,1.011
2026/05/14 10:31:31.409,-0.02,-0.062,1.008
2026/05/14 10:31:31.429,-0.021,-0.063,1.008
2026/05/14 10:31:31.449,-0.021,-0.062,1.007
2026/05/14 10:31:31.469,-0.018,-0.06,1.004
2026/05/14 10:31:31.489,-0.022,-0.064,1.009
2026/05/14 10:31:31.509,-0.021,-0.068,1.007
2026/05/14 10:31:31.529,-0.022,-0.064,1.012
2026/05/14 10:31:31.549,-0.023,-0.059,1.004
2026/05/14 10:31:31.569,-0.024,-0.065,1.007
2026/05/14 10:31:31.589,-0.021,-0.067,1.007
2026/05/14 10:31:31.610,-0.024,-0.061,1.012
2026/05/14 10:31:31.630,-0.026,-0.064,1.011
2026/05/14 10:31:31.650,-0.022,-0.065,1.006
2026/05/14 10:31:31.670,-0.023,-0.063,1.009
2026/05/14 10:31:31.690,-0.023,-0.068,1.018
2026/05/14 10:31:31.710,-0.021,-0.063,1.012
2026/05/14 10:31:31.730,-0.019,-0.059,1.011
2026/05/14 10:31:31.750,-0.026,-0.065,1.011
2026/05/14 10:31:31.770,-0.022,-0.067,1.011
2026/05/14 10:31:31.790,-0.019,-0.06,1.009
2026/05/14 10:31:31.810,-0.025,-0.066,1.007
2026/05/14 10:31:31.830,-0.023,-0.063,1.007
2026/05/14 10:31:31.850,-0.02,-0.065,1.009
2026/05/14 10:31:31.870,-0.024,-0.061,1.006
2026/05/14 10:31:31.890,-0.027,-0.063,1.007
2026/05/14 10:31:31.910,-0.016,-0.063,1.015
2026/05/14 10:31:31.930,-0.018,-0.063,1.012
2026/05/14 10:31:31.950,-0.022,-0.06,1.008
2026/05/14 10:31:31.970,-0.024,-0.06,1.007
2026/05/14 10:31:31.990,-0.021,-0.067,1.009
2026/05/14 10:31:32.010,-0.022,-0.062,1.009
2026/05/14 10:31:32.030,-0.022,-0.064,1.01
2026/05/14 10:31:32.051,-0.024,-0.063,1.009
2026/05/14 10:31:32.071,-0.021,-0.063,1.007
2026/05/14 10:31:32.091,-0.021,-0.065,1.012
2026/05/14 10:31:32.111,-0.022,-0.065,1.008
2026/05/14 10:31:32.131,-0.024,-0.059,1.01
2026/05/14 10:31:32.151,-0.021,-0.06,1.005
2026/05/14 10:31:32.171,-0.025,-0.065,1.007
2026/05/14 10:31:32.191,-0.023,-0.064,1.009
2026/05/14 10:31:32.211,-0.022,-0.065,1.007
2026/05/14 10:31:32.231,-0.024,-0.06,1.012
2026/05/14 10:31:32.251,-0.022,-0.063,1.011
2026/05/14 10:31:32.271,-0.023,-0.064,1.009
2026/05/14 10:31:32.291,-0.022,-0.063,1.005
2026/05/14 10:31:32.311,-0.022,-0.06,1.011
2026/05/14 10:31:32.331,-0.026,-0.064,1.008
2026/05/14 10:31:32.351,-0.022,-0.064,1.01
2026/05/14 10:31:32.371,-0.027,-0.064,1.009
2026/05/14 10:31:32.391,-0.02,-0.062,1.008
2026/05/14 10:31:32.411,-0.025,-0.065,1.013
2026/05/14 10:31:32.431,-0.018,-0.062,1.008
2026/05/14 10:31:32.451,-0.018,-0.06,1.009
2026/05/14 10:31:32.471,-0.024,-0.065,1.004
2026/05/14 10:31:32.491,-0.023,-0.062,1.012
2026/05/14 10:31:32.512,-0.023,-0.062,1.012
2026/05/14 10:31:32.532,-0.022,-0.064,1.015
2026/05/14 10:31:32.552,-0.02,-0.062,1.007
2026/05/14 10:31:32.572,-0.021,-0.064,1.011
2026/05/14 10:31:32.592,-0.026,-0.063,1.012
2026/05/14 10:31:32.612,-0.017,-0.07,1.009
2026/05/14 10:31:32.632,-0.021,-0.068,1.011
2026/05/14 10:31:32.652,-0.024,-0.065,1.011
2026/05/14 10:31:32.672,-0.023,-0.064,1.005
2026/05/14 10:31:32.692,-0.023,-0.064,1.012
2026/05/14 10:31:32.712,-0.021,-0.061,1.011
2026/05/14 10:31:32.732,-0.02,-0.059,1.007
2026/05/14 10:31:32.752,-0.023,-0.061,1.011
2026/05/14 10:31:32.772,-0.023,-0.065,1.011
2026/05/14 10:31:32.792,-0.024,-0.065,1.009
2026/05/14 10:31:32.812,-0.023,-0.062,1.009
2026/05/14 10:31:32.832,-0.021,-0.062,1.012
2026/05/14 10:31:32.852,-0.023,-0.064,1.011
2026/05/14 10:31:32.872,-0.023,-0.063,1.008
2026/05/14 10:31:32.892,-0.022,-0.064,1.008
2026/05/14 10:31:32.912,-0.019,-0.064,1.01
2026/05/14 10:31:32.932,-0.019,-0.062,1.004
2026/05/14 10:31:32.953,-0.021,-0.058,1.011
2026/05/14 10:31:32.973,-0.022,-0.064,1.01
2026/05/14 10:31:32.993,-0.024,-0.063,1.01
2026/05/14 10:31:33.013,-0.024,-0.06,1.006
2026/05/14 10:31:33.033,-0.021,-0.066,1.012
2026/05/14 10:31:33.053,-0.02,-0.066,1.007
2026/05/14 10:31:33.073,-0.024,-0.062,1.003
2026/05/14 10:31:33.093,-0.023,-0.062,1.014
2026/05/14 10:31:33.113,-0.018,-0.063,1.009
2026/05/14 10:31:33.133,-0.019,-0.065,1.011
2026/05/14 10:31:33.153,-0.021,-0.064,1.009
2026/05/14 10:31:33.173,-0.017,-0.058,1.007
2026/05/14 10:31:33.193,-0.017,-0.06,1.007
2026/05/14 10:31:33.213,-0.019,-0.065,1.011
2026/05/14 10:31:33.233,-0.023,-0.064,1.007
2026/05/14 10:31:33.253,-0.019,-0.064,1.003
2026/05/14 10:31:33.273,-0.022,-0.06,1.004
2026/05/14 10:31:33.293,-0.024,-0.057,1.022
2026/05/14 10:31:33.313,-0.025,-0.062,1.009
2026/05/14 10:31:33.333,-0.023,-0.064,1.006
2026/05/14 10:31:33.353,-0.022,-0.064,1.008
2026/05/14 10:31:33.373,-0.021,-0.066,1.01
2026/05/14 10:31:33.393,-0.02,-0.065,1.008
2026/05/14 10:31:33.414,-0.026,-0.066,1.005
2026/05/14 10:31:33.434,-0.026,-0.062,1.006
2026/05/14 10:31:33.454,-0.024,-0.059,1.005
2026/05/14 10:31:33.474,-0.022,-0.068,1.007
2026/05/14 10:31:33.494,-0.018,-0.063,1.006
2026/05/14 10:31:33.514,-0.02,-0.061,1.007
2026/05/14 10:31:33.534,-0.023,-0.065,1.004
2026/05/14 10:31:33.554,-0.017,-0.063,1.01
2026/05/14 10:31:33.574,-0.024,-0.061,1.009
2026/05/14 10:31:33.594,-0.023,-0.064,1.008
2026/05/14 10:31:33.614,-0.023,-0.066,1.008
2026/05/14 10:31:33.634,-0.022,-0.061,1.012
2026/05/14 10:31:33.654,-0.022,-0.064,1.012
2026/05/14 10:31:33.674,-0.022,-0.064,1.005
2026/05/14 10:31:33.694,-0.027,-0.066,1.012
2026/05/14 10:31:33.714,-0.023,-0.057,1.009
2026/05/14 10:31:33.734,-0.02,-0.064,1.01
2026/05/14 10:31:33.754,-0.022,-0.063,1.008
2026/05/14 10:31:33.774,-0.021,-0.065,1.007
2026/05/14 10:31:33.794,-0.024,-0.065,1.01
2026/05/14 10:31:33.814,-0.021,-0.064,1.012
2026/05/14 10:31:33.834,-0.021,-0.063,1.007
2026/05/14 10:31:33.855,-0.018,-0.066,1.009
2026/05/14 10:31:33.875,-0.024,-0.06,1.01
2026/05/14 10:31:33.895,-0.023,-0.066,1.011
2026/05/14 10:31:33.915,-0.024,-0.063,1.009
2026/05/14 10:31:33.935,-0.021,-0.064,1.013
2026/05/14 10:31:33.955,-0.023,-0.062,1.009
2026/05/14 10:31:33.975,-0.024,-0.064,1.01
2026/05/14 10:31:33.995,-0.022,-0.065,1.012
2026/05/14 10:31:34.015,-0.02,-0.063,1.006
2026/05/14 10:31:34.035,-0.023,-0.064,1.007
2026/05/14 10:31:34.055,-0.018,-0.062,1.005
2026/05/14 10:31:34.075,-0.019,-0.061,1.008
2026/05/14 10:31:34.095,-0.021,-0.066,1.009
2026/05/14 10:31:34.115,-0.023,-0.063,1.011
2026/05/14 10:31:34.135,-0.019,-0.06,1.008
2026/05/14 10:31:34.155,-0.023,-0.06,1.009
2026/05/14 10:31:34.175,-0.02,-0.063,1.003
2026/05/14 10:31:34.195,-0.023,-0.059,1.015
2026/05/14 10:31:34.215,-0.021,-0.062,1.006
2026/05/14 10:31:34.235,-0.023,-0.065,1.009
2026/05/14 10:31:34.255,-0.026,-0.059,1.008
2026/05/14 10:31:34.275,-0.022,-0.064,1.006
2026/05/14 10:31:34.295,-0.023,-0.061,1.011
2026/05/14 10:31:34.316,-0.02,-0.06,1.015
2026/05/14 10:31:34.336,-0.023,-0.061,1.013
2026/05/14 10:31:34.356,-0.021,-0.064,1.007
2026/05/14 10:31:34.376,-0.026,-0.063,1.01
2026/05/14 10:31:34.396,-0.023,-0.064,1.01
2026/05/14 10:31:34.416,-0.024,-0.064,1.008
2026/05/14 10:31:34.436,-0.022,-0.064,1.007
2026/05/14 10:31:34.456,-0.02,-0.066,1.01
2026/05/14 10:31:34.476,-0.023,-0.064,1.007
2026/05/14 10:31:34.496,-0.026,-0.062,1.01
2026/05/14 10:31:34.516,-0.023,-0.069,1.011
2026/05/14 10:31:34.536,-0.024,-0.065,1.007
2026/05/14 10:31:34.556,-0.027,-0.06,1.008
2026/05/14 10:31:34.576,-0.021,-0.061,1.01
2026/05/14 10:31:34.596,-0.022,-0.058,1.01
2026/05/14 10:31:34.616,-0.019,-0.065,1.008
2026/05/14 10:31:34.636,-0.021,-0.066,1.008
2026/05/14 10:31:34.656,-0.023,-0.065,1.012
2026/05/14 10:31:34.676,-0.017,-0.063,1.012
2026/05/14 10:31:34.696,-0.018,-0.057,1.01
2026/05/14 10:31:34.716,-0.023,-0.064,1.006
2026/05/14 10:31:34.736,-0.022,-0.06,1.01
2026/05/14 10:31:34.756,-0.024,-0.065,1.009
2026/05/14 10:31:34.777,-0.022,-0.065,1.008
2026/05/14 10:31:34.797,-0.025,-0.062,1.012
2026/05/14 10:31:34.817,-0.023,-0.065,1.012
2026/05/14 10:31:34.837,-0.019,-0.061,1.008
2026/05/14 10:31:34.857,-0.024,-0.064,1.012
2026/05/14 10:31:34.877,-0.024,-0.063,1.01
2026/05/14 10:31:34.897,-0.023,-0.061,1.01
2026/05/14 10:31:34.917,-0.02,-0.063,1.009
2026/05/14 10:31:34.937,-0.019,-0.062,1.014
2026/05/14 10:31:34.957,-0.023,-0.06,1.01
2026/05/14 10:31:34.977,-0.02,-0.065,1.009
2026/05/14 10:31:34.997,-0.026,-0.062,1.005
2026/05/14 10:31:35.017,-0.024,-0.06,1.009
2026/05/14 10:31:35.037,-0.024,-0.07,1.009
2026/05/14 10:31:35.057,-0.019,-0.066,1.009
2026/05/14 10:31:35.077,-0.019,-0.062,1.008
2026/05/14 10:31:35.097,-0.026,-0.064,1.012
2026/05/14 10:31:35.117,-0.021,-0.063,1.006
2026/05/14 10:31:35.137,-0.024,-0.064,1.008
2026/05/14 10:31:35.157,-0.024,-0.061,1.008
2026/05/14 10:31:35.177,-0.02,-0.063,1.005
2026/05/14 10:31:35.197,-0.023,-0.062,1.008
2026/05/14 10:31:35.217,-0.023,-0.065,1.01
2026/05/14 10:31:35.238,-0.022,-0.06,1.011
2026/05/14 10:31:35.258,-0.02,-0.065,1.01
2026/05/14 10:31:35.278,-0.021,-0.064,1.01
2026/05/14 10:31:35.298,-0.021,-0.068,1.011
2026/05/14 10:31:35.318,-0.02,-0.065,1.004
2026/05/14 10:31:35.338,-0.022,-0.066,1.01
2026/05/14 10:31:35.358,-0.02,-0.062,1.009
2026/05/14 10:31:35.378,-0.016,-0.061,1.005
2026/05/14 10:31:35.398,-0.022,-0.063,1.005
2026/05/14 10:31:35.418,-0.021,-0.066,1.011
2026/05/14 10:31:35.438,-0.022,-0.064,1.007
2026/05/14 10:31:35.458,-0.024,-0.061,1.01
2026/05/14 10:31:35.478,-0.024,-0.061,1.007
2026/05/14 10:31:35.498,-0.019,-0.061,1.012
2026/05/14 10:31:35.518,-0.022,-0.064,1.011
2026/05/14 10:31:35.538,-0.019,-0.062,1.005
2026/05/14 10:31:35.558,-0.022,-0.06,1.007
2026/05/14 10:31:35.578,-0.022,-0.064,1.01
2026/05/14 10:31:35.598,-0.021,-0.064,1.012
2026/05/14 10:31:35.618,-0.022,-0.066,1.007
2026/05/14 10:31:35.638,-0.022,-0.065,1.01
2026/05/14 10:31:35.658,-0.021,-0.062,1.01
2026/05/14 10:31:35.678,-0.022,-0.064,1.008
2026/05/14 10:31:35.699,-0.021,-0.063,1.012
2026/05/14 10:31:35.719,-0.024,-0.062,1.011
2026/05/14 10:31:35.739,-0.022,-0.066,1.011
2026/05/14 10:31:35.759,-0.021,-0.059,1.007
2026/05/14 10:31:35.779,-0.022,-0.059,1.01
2026/05/14 10:31:35.799,-0.023,-0.066,1.01
2026/05/14 10:31:35.819,-0.019,-0.059,1.008
2026/05/14 10:31:35.839,-0.021,-0.062,1.012
2026/05/14 10:31:35.859,-0.023,-0.063,1.01
2026/05/14 10:31:35.879,-0.021,-0.064,1.008
2026/05/14 10:31:35.899,-0.021,-0.064,1.009
2026/05/14 10:31:35.919,-0.023,-0.061,1.008
2026/05/14 10:31:35.939,-0.022,-0.065,1.011
2026/05/14 10:31:35.959,-0.02,-0.059,1.006
2026/05/14 10:31:35.979,-0.023,-0.06,1.007
2026/05/14 10:31:35.999,-0.026,-0.065,1.007
2026/05/14 10:31:36.019,-0.021,-0.065,1.011
2026/05/14 10:31:36.039,-0.023,-0.062,1.012
2026/05/14 10:31:36.059,-0.023,-0.057,1.01
2026/05/14 10:31:36.079,-0.021,-0.066,1.007
2026/05/14 10:31:36.099,-0.022,-0.064,1.01
2026/05/14 10:31:36.119,-0.02,-0.064,1.01
2026/05/14 10:31:36.139,-0.024,-0.06,1.007
2026/05/14 10:31:36.160,-0.021,-0.066,1.006
2026/05/14 10:31:36.180,-0.023,-0.064,1.006
2026/05/14 10:31:36.200,-0.022,-0.065,1.006
2026/05/14 10:31:36.220,-0.019,-0.063,1.009
2026/05/14 10:31:36.240,-0.021,-0.065,1.009
2026/05/14 10:31:36.260,-0.023,-0.065,1.01
2026/05/14 10:31:36.280,-0.023,-0.067,1.009
2026/05/14 10:31:36.300,-0.023,-0.063,1.008
2026/05/14 10:31:36.320,-0.019,-0.062,1.009
2026/05/14 10:31:36.340,-0.025,-0.064,1.011
2026/05/14 10:31:36.360,-0.023,-0.064,1.007
2026/05/14 10:31:36.380,-0.023,-0.066,1.008
2026/05/14 10:31:36.400,-0.022,-0.065,1.01
2026/05/14 10:31:36.420,-0.023,-0.066,1.011
2026/05/14 10:31:36.440,-0.022,-0.065,1.007
2026/05/14 10:31:36.460,-0.023,-0.063,1.008
2026/05/14 10:31:36.480,-0.02,-0.064,1.008
2026/05/14 10:31:36.500,-0.021,-0.061,1.008
2026/05/14 10:31:36.520,-0.017,-0.066,1.012
2026/05/14 10:31:36.540,-0.024,-0.065,1.007
2026/05/14 10:31:36.560,-0.023,-0.064,1.014
2026/05/14 10:31:36.580,-0.022,-0.063,1.009
2026/05/14 10:31:36.601,-0.02,-0.064,1.007
2026/05/14 10:31:36.621,-0.024,-0.065,1.008
2026/05/14 10:31:36.641,-0.021,-0.063,1.008
2026/05/14 10:31:36.661,-0.022,-0.065,1.013
2026/05/14 10:31:36.681,-0.019,-0.064,1.007
2026/05/14 10:31:36.701,-0.019,-0.061,1.009
2026/05/14 10:31:36.721,-0.022,-0.066,1.008
2026/05/14 10:31:36.741,-0.022,-0.066,1.011
2026/05/14 10:31:36.761,-0.02,-0.062,1.006
2026/05/14 10:31:36.781,-0.023,-0.065,1.008
2026/05/14 10:31:36.801,-0.024,-0.063,1.0
2026/05/14 10:31:36.821,-0.024,-0.063,1.011
2026/05/14 10:31:36.841,-0.021,-0.063,1.01
2026/05/14 10:31:36.861,-0.022,-0.061,1.008
2026/05/14 10:31:36.881,-0.018,-0.067,1.007
2026/05/14 10:31:36.901,-0.02,-0.062,1.01
2026/05/14 10:31:36.921,-0.022,-0.061,1.007
2026/05/14 10:31:36.941,-0.023,-0.063,1.008
2026/05/14 10:31:36.961,-0.019,-0.063,1.008
2026/05/14 10:31:36.981,-0.021,-0.065,1.014
2026/05/14 10:31:37.001,-0.017,-0.066,1.007
2026/05/14 10:31:37.021,-0.021,-0.065,1.01
2026/05/14 10:31:37.041,-0.021,-0.063,1.01
2026/05/14 10:31:37.062,-0.022,-0.067,1.008
2026/05/14 10:31:37.082,-0.021,-0.064,1.007
2026/05/14 10:31:37.102,-0.022,-0.067,1.01
2026/05/14 10:31:37.122,-0.023,-0.066,1.011
2026/05/14 10:31:37.142,-0.022,-0.066,1.003
2026/05/14 10:31:37.162,-0.02,-0.064,1.011
2026/05/14 10:31:37.182,-0.02,-0.062,1.009
2026/05/14 10:31:37.202,-0.022,-0.061,1.015
2026/05/14 10:31:37.222,-0.02,-0.062,1.009
2026/05/14 10:31:37.242,-0.018,-0.061,1.011
2026/05/14 10:31:37.262,-0.025,-0.064,1.009
2026/05/14 10:31:37.282,-0.024,-0.06,1.011
2026/05/14 10:31:37.302,-0.023,-0.064,1.005
2026/05/14 10:31:37.322,-0.022,-0.065,1.012
2026/05/14 10:31:37.342,-0.019,-0.061,1.01
2026/05/14 10:31:37.362,-0.022,-0.061,1.009
2026/05/14 10:31:37.382,-0.021,-0.062,1.009
2026/05/14 10:31:37.402,-0.019,-0.061,1.008
2026/05/14 10:31:37.422,-0.023,-0.06,1.008
2026/05/14 10:31:37.442,-0.021,-0.066,1.009
2026/05/14 10:31:37.462,-0.021,-0.062,1.008
2026/05/14 10:31:37.482,-0.022,-0.067,1.008
2026/05/14 10:31:37.502,-0.022,-0.066,1.011
2026/05/14 10:31:37.523,-0.026,-0.065,1.01
2026/05/14 10:31:37.543,-0.022,-0.066,1.007
2026/05/14 10:31:37.563,-0.023,-0.065,1.01
2026/05/14 10:31:37.583,-0.021,-0.062,1.006
2026/05/14 10:31:37.603,-0.021,-0.063,1.007
2026/05/14 10:31:37.623,-0.023,-0.066,1.008
2026/05/14 10:31:37.643,-0.017,-0.064,1.008
2026/05/14 10:31:37.663,-0.023,-0.065,1.011
2026/05/14 10:31:37.683,-0.024,-0.064,1.009
2026/05/14 10:31:37.703,-0.023,-0.065,1.011
2026/05/14 10:31:37.723,-0.026,-0.062,1.006
2026/05/14 10:31:37.743,-0.026,-0.064,1.01
2026/05/14 10:31:37.763,-0.017,-0.063,1.01
2026/05/14 10:31:37.783,-0.023,-0.066,1.011
2026/05/14 10:31:37.803,-0.021,-0.06,1.004
2026/05/14 10:31:37.823,-0.026,-0.063,1.009
2026/05/14 10:31:37.843,-0.023,-0.064,1.005
2026/05/14 10:31:37.863,-0.021,-0.062,1.008
2026/05/14 10:31:37.883,-0.02,-0.068,1.011
2026/05/14 10:31:37.903,-0.022,-0.061,1.013
2026/05/14 10:31:37.923,-0.023,-0.062,1.012
2026/05/14 10:31:37.943,-0.024,-0.06,1.013
2026/05/14 10:31:37.963,-0.019,-0.064,1.009
2026/05/14 10:31:37.984,-0.023,-0.062,1.008
2026/05/14 10:31:38.004,-0.019,-0.065,1.008
2026/05/14 10:31:38.024,-0.022,-0.061,1.007
2026/05/14 10:31:38.044,-0.023,-0.066,1.009
2026/05/14 10:31:38.064,-0.02,-0.066,1.013
2026/05/14 10:31:38.084,-0.023,-0.058,1.01
2026/05/14 10:31:38.104,-0.022,-0.06,1.008
2026/05/14 10:31:38.124,-0.024,-0.064,1.009
2026/05/14 10:31:38.144,-0.021,-0.061,1.01
2026/05/14 10:31:38.164,-0.022,-0.062,1.009
2026/05/14 10:31:38.184,-0.023,-0.065,1.011
2026/05/14 10:31:38.204,-0.026,-0.059,1.012
2026/05/14 10:31:38.224,-0.026,-0.065,1.013
2026/05/14 10:31:38.244,-0.023,-0.061,1.005
2026/05/14 10:31:38.264,-0.021,-0.066,1.009
2026/05/14 10:31:38.284,-0.021,-0.064,1.009
2026/05/14 10:31:38.304,-0.022,-0.06,1.009
2026/05/14 10:31:38.324,-0.02,-0.068,1.005
2026/05/14 10:31:38.344,-0.019,-0.064,1.01
2026/05/14 10:31:38.364,-0.024,-0.067,1.009
2026/05/14 10:31:38.384,-0.027,-0.062,1.009
2026/05/14 10:31:38.404,-0.022,-0.063,1.008
2026/05/14 10:31:38.424,-0.024,-0.065,1.013
2026/05/14 10:31:38.445,-0.021,-0.063,1.009
2026/05/14 10:31:38.465,-0.02,-0.065,1.01
2026/05/14 10:31:38.485,-0.023,-0.065,1.008
2026/05/14 10:31:38.505,-0.023,-0.064,1.008
2026/05/14 10:31:38.525,-0.023,-0.061,1.005
2026/05/14 10:31:38.545,-0.021,-0.061,1.011
2026/05/14 10:31:38.565,-0.021,-0.063,1.003
2026/05/14 10:31:38.585,-0.021,-0.064,1.005
2026/05/14 10:31:38.605,-0.021,-0.063,1.01
2026/05/14 10:31:38.625,-0.022,-0.066,1.01
2026/05/14 10:31:38.645,-0.024,-0.063,1.009
2026/05/14 10:31:38.665,-0.022,-0.061,1.009
2026/05/14 10:31:38.685,-0.024,-0.062,1.014
2026/05/14 10:31:38.705,-0.023,-0.064,1.012
2026/05/14 10:31:38.725,-0.021,-0.063,1.012
2026/05/14 10:31:38.745,-0.02,-0.066,1.01
2026/05/14 10:31:38.765,-0.028,-0.064,1.007
2026/05/14 10:31:38.785,-0.022,-0.063,1.005
2026/05/14 10:31:38.805,-0.023,-0.061,1.006
2026/05/14 10:31:38.825,-0.023,-0.062,1.007
2026/05/14 10:31:38.845,-0.023,-0.063,1.011
2026/05/14 10:31:38.865,-0.023,-0.065,1.006
2026/05/14 10:31:38.885,-0.017,-0.064,1.011
2026/05/14 10:31:38.905,-0.02,-0.058,1.009
2026/05/14 10:31:38.926,-0.023,-0.065,1.007
2026/05/14 10:31:38.946,-0.023,-0.064,1.008
2026/05/14 10:31:38.966,-0.024,-0.063,1.007
2026/05/14 10:31:38.986,-0.027,-0.069,1.007
2026/05/14 10:31:39.006,-0.02,-0.062,1.006
2026/05/14 10:31:39.026,-0.023,-0.062,1.01
2026/05/14 10:31:39.046,-0.02,-0.067,1.012
2026/05/14 10:31:39.066,-0.022,-0.066,1.007
2026/05/14 10:31:39.086,-0.024,-0.061,1.012
2026/05/14 10:31:39.106,-0.021,-0.065,1.014
2026/05/14 10:31:39.126,-0.017,-0.063,1.007
2026/05/14 10:31:39.146,-0.022,-0.063,1.01
2026/05/14 10:31:39.166,-0.023,-0.064,1.009
2026/05/14 10:31:39.186,-0.022,-0.062,1.012
2026/05/14 10:31:39.206,-0.024,-0.06,1.009
2026/05/14 10:31:39.226,-0.02,-0.063,1.011
2026/05/14 10:31:39.246,-0.022,-0.062,1.009
2026/05/14 10:31:39.266,-0.025,-0.062,1.007
2026/05/14 10:31:39.286,-0.025,-0.064,1.008
2026/05/14 10:31:39.306,-0.024,-0.066,1.009
2026/05/14 10:31:39.326,-0.018,-0.06,1.01
2026/05/14 10:31:39.346,-0.022,-0.064,1.009
2026/05/14 10:31:39.367,-0.022,-0.067,1.011
2026/05/14 10:31:39.387,-0.023,-0.069,1.011
2026/05/14 10:31:39.407,-0.024,-0.063,1.011
2026/05/14 10:31:39.427,-0.022,-0.064,1.011
2026/05/14 10:31:39.447,-0.022,-0.064,1.014
2026/05/14 10:31:39.467,-0.022,-0.063,1.015
2026/05/14 10:31:39.487,-0.025,-0.063,1.007
2026/05/14 10:31:39.507,-0.021,-0.062,1.012
2026/05/14 10:31:39.527,-0.023,-0.064,1.009
2026/05/14 10:31:39.547,-0.019,-0.062,1.01
2026/05/14 10:31:39.567,-0.02,-0.066,1.007
2026/05/14 10:31:39.587,-0.026,-0.062,1.008
2026/05/14 10:31:39.607,-0.023,-0.064,1.008
2026/05/14 10:31:39.627,-0.02,-0.064,1.008
2026/05/14 10:31:39.647,-0.026,-0.063,1.011
2026/05/14 10:31:39.667,-0.019,-0.066,1.007
2026/05/14 10:31:39.687,-0.019,-0.062,1.013
2026/05/14 10:31:39.707,-0.023,-0.065,1.009
2026/05/14 10:31:39.727,-0.022,-0.063,1.009
2026/05/14 10:31:39.747,-0.026,-0.065,1.007
2026/05/14 10:31:39.767,-0.024,-0.059,1.008
2026/05/14 10:31:39.787,-0.023,-0.063,1.01
2026/05/14 10:31:39.807,-0.02,-0.061,1.012
2026/05/14 10:31:39.828,-0.022,-0.064,1.01
2026/05/14 10:31:39.848,-0.023,-0.062,1.008
2026/05/14 10:31:39.868,-0.023,-0.064,1.009
2026/05/14 10:31:39.888,-0.023,-0.06,1.008
2026/05/14 10:31:39.908,-0.022,-0.065,1.007
2026/05/14 10:31:39.928,-0.019,-0.061,1.007
2026/05/14 10:31:39.948,-0.02,-0.059,1.008
2026/05/14 10:31:39.968,-0.024,-0.062,1.011
2026/05/14 10:31:39.988,-0.021,-0.068,1.01
2026/05/14 10:31:40.008,-0.023,-0.065,1.011
2026/05/14 10:31:40.028,-0.025,-0.064,1.006
2026/05/14 10:31:40.048,-0.021,-0.06,1.008
2026/05/14 10:31:40.068,-0.023,-0.06,1.011
2026/05/14 10:31:40.088,-0.025,-0.064,1.01
2026/05/14 10:31:40.108,-0.022,-0.067,1.01
2026/05/14 10:31:40.128,-0.022,-0.063,1.007
2026/05/14 10:31:40.148,-0.024,-0.063,1.011
2026/05/14 10:31:40.168,-0.028,-0.067,1.005
2026/05/14 10:31:40.188,-0.023,-0.06,1.007
2026/05/14 10:31:40.208,-0.022,-0.062,1.007
2026/05/14 10:31:40.228,-0.023,-0.061,1.011
2026/05/14 10:31:40.248,-0.024,-0.059,1.007
2026/05/14 10:31:40.268,-0.019,-0.067,1.008
2026/05/14 10:31:40.289,-0.021,-0.064,1.007
2026/05/14 10:31:40.309,-0.022,-0.062,1.009
2026/05/14 10:31:40.329,-0.023,-0.066,1.009
2026/05/14 10:31:40.349,-0.02,-0.063,1.01
2026/05/14 10:31:40.369,-0.023,-0.064,1.011
2026/05/14 10:31:40.389,-0.02,-0.06,1.008
2026/05/14 10:31:40.409,-0.022,-0.065,1.01
2026/05/14 10:31:40.429,-0.023,-0.064,1.008
2026/05/14 10:31:40.449,-0.023,-0.067,1.005
2026/05/14 10:31:40.469,-0.019,-0.058,1.012
2026/05/14 10:31:40.489,-0.025,-0.064,1.01
2026/05/14 10:31:40.509,-0.023,-0.063,1.012
2026/05/14 10:31:40.529,-0.022,-0.066,1.006
2026/05/14 10:31:40.549,-0.021,-0.064,1.006
2026/05/14 10:31:40.569,-0.021,-0.06,1.006
2026/05/14 10:31:40.589,-0.021,-0.068,1.007
2026/05/14 10:31:40.609,-0.021,-0.061,1.008
2026/05/14 10:31:40.629,-0.02,-0.065,1.007
2026/05/14 10:31:40.649,-0.027,-0.063,1.004
2026/05/14 10:31:40.669,-0.021,-0.062,1.013
2026/05/14 10:31:40.689,-0.02,-0.063,1.007
2026/05/14 10:31:40.709,-0.022,-0.064,1.007
2026/05/14 10:31:40.729,-0.021,-0.062,1.008
2026/05/14 10:31:40.750,-0.02,-0.062,1.012
2026/05/14 10:31:40.770,-0.024,-0.062,1.009
2026/05/14 10:31:40.790,-0.023,-0.065,1.014
2026/05/14 10:31:40.810,-0.018,-0.065,1.011
2026/05/14 10:31:40.830,-0.027,-0.065,1.009
2026/05/14 10:31:40.850,-0.023,-0.064,1.009
2026/05/14 10:31:40.870,-0.02,-0.063,1.008
2026/05/14 10:31:40.890,-0.023,-0.064,1.009
2026/05/14 10:31:40.910,-0.023,-0.066,1.006
2026/05/14 10:31:40.930,-0.021,-0.057,1.009
2026/05/14 10:31:40.950,-0.019,-0.065,1.009
2026/05/14 10:31:40.970,-0.02,-0.068,1.008
2026/05/14 10:31:40.990,-0.021,-0.06,1.012
2026/05/14 10:31:41.010,-0.026,-0.063,1.009
2026/05/14 10:31:41.030,-0.022,-0.065,1.008
2026/05/14 10:31:41.050,-0.02,-0.063,1.01
2026/05/14 10:31:41.070,-0.025,-0.06,1.004
2026/05/14 10:31:41.090,-0.018,-0.063,1.013
2026/05/14 10:31:41.110,-0.023,-0.061,1.008
2026/05/14 10:31:41.130,-0.021,-0.064,1.008
2026/05/14 10:31:41.150,-0.02,-0.06,1.008
2026/05/14 10:31:41.170,-0.02,-0.064,1.009
2026/05/14 10:31:41.191,-0.02,-0.06,1.011
2026/05/14 10:31:41.211,-0.024,-0.064,1.012
2026/05/14 10:31:41.231,-0.022,-0.067,1.01
2026/05/14 10:31:41.251,-0.021,-0.062,1.007
2026/05/14 10:31:41.271,-0.024,-0.063,1.013
2026/05/14 10:31:41.291,-0.023,-0.061,1.009
2026/05/14 10:31:41.311,-0.019,-0.067,1.011
2026/05/14 10:31:41.331,-0.022,-0.061,1.009
2026/05/14 10:31:41.351,-0.02,-0.064,1.009
2026/05/14 10:31:41.371,-0.023,-0.062,1.008
2026/05/14 10:31:41.391,-0.026,-0.064,1.006
2026/05/14 10:31:41.411,-0.018,-0.057,1.009
2026/05/14 10:31:41.431,-0.024,-0.064,1.01
2026/05/14 10:31:41.451,-0.025,-0.062,1.008
2026/05/14 10:31:41.471,-0.026,-0.063,1.007
2026/05/14 10:31:41.491,-0.019,-0.061,1.01
2026/05/14 10:31:41.511,-0.021,-0.063,1.006
2026/05/14 10:31:41.531,-0.021,-0.065,1.008
2026/05/14 10:31:41.551,-0.019,-0.064,1.004
2026/05/14 10:31:41.571,-0.017,-0.061,1.009
2026/05/14 10:31:41.591,-0.018,-0.063,1.01
2026/05/14 10:31:41.611,-0.02,-0.063,1.008
2026/05/14 10:31:41.631,-0.019,-0.064,1.009
2026/05/14 10:31:41.652,-0.021,-0.06,1.007
2026/05/14 10:31:41.672,-0.02,-0.061,1.009
2026/05/14 10:31:41.692,-0.02,-0.063,1.01
2026/05/14 10:31:41.712,-0.022,-0.065,1.007
2026/05/14 10:31:41.732,-0.021,-0.063,1.011
2026/05/14 10:31:41.752,-0.024,-0.064,1.009
2026/05/14 10:31:41.772,-0.025,-0.063,1.008
2026/05/14 10:31:41.792,-0.022,-0.064,1.009
2026/05/14 10:31:41.812,-0.026,-0.065,1.01
2026/05/14 10:31:41.832,-0.023,-0.067,1.013
2026/05/14 10:31:41.852,-0.021,-0.064,1.007
2026/05/14 10:31:41.872,-0.024,-0.064,1.01
2026/05/14 10:31:41.892,-0.022,-0.063,1.01
2026/05/14 10:31:41.912,-0.022,-0.06,1.006
2026/05/14 10:31:41.932,-0.023,-0.063,1.006
2026/05/14 10:31:41.952,-0.021,-0.063,1.008
2026/05/14 10:31:41.972,-0.02,-0.064,1.009
2026/05/14 10:31:41.992,-0.024,-0.064,1.009
2026/05/14 10:31:42.012,-0.02,-0.065,1.008
2026/05/14 10:31:42.032,-0.019,-0.061,1.007
2026/05/14 10:31:42.052,-0.022,-0.062,1.013
2026/05/14 10:31:42.072,-0.025,-0.064,1.013
2026/05/14 10:31:42.092,-0.024,-0.065,1.011
2026/05/14 10:31:42.113,-0.019,-0.061,1.009
2026/05/14 10:31:42.133,-0.021,-0.063,1.011
2026/05/14 10:31:42.153,-0.018,-0.066,1.007
2026/05/14 10:31:42.173,-0.024,-0.064,1.01
2026/05/14 10:31:42.193,-0.023,-0.065,1.01
2026/05/14 10:31:42.213,-0.023,-0.063,1.011
2026/05/14 10:31:42.233,-0.022,-0.061,1.012
2026/05/14 10:31:42.253,-0.025,-0.063,1.012
2026/05/14 10:31:42.273,-0.028,-0.06,1.008
2026/05/14 10:31:42.293,-0.022,-0.063,1.01
2026/05/14 10:31:42.313,-0.023,-0.062,1.007
2026/05/14 10:31:42.333,-0.026,-0.062,1.011
2026/05/14 10:31:42.353,-0.02,-0.063,1.008
2026/05/14 10:31:42.373,-0.021,-0.064,1.012
2026/05/14 10:31:42.393,-0.023,-0.062,1.012
2026/05/14 10:31:42.413,-0.022,-0.063,1.014
2026/05/14 10:31:42.433,-0.027,-0.064,1.006
2026/05/14 10:31:42.453,-0.024,-0.064,1.013
2026/05/14 10:31:42.473,-0.017,-0.064,1.01
2026/05/14 10:31:42.493,-0.023,-0.062,1.008
2026/05/14 10:31:42.513,-0.021,-0.064,1.007
2026/05/14 10:31:42.533,-0.021,-0.061,1.008
2026/05/14 10:31:42.553,-0.019,-0.063,1.01
2026/05/14 10:31:42.574,-0.022,-0.061,1.006
2026/05/14 10:31:42.594,-0.022,-0.062,1.009
2026/05/14 10:31:42.614,-0.025,-0.064,1.01
2026/05/14 10:31:42.634,-0.021,-0.064,1.011
2026/05/14 10:31:42.654,-0.022,-0.064,1.007
2026/05/14 10:31:42.674,-0.021,-0.063,1.01
2026/05/14 10:31:42.694,-0.023,-0.062,1.009
2026/05/14 10:31:42.714,-0.021,-0.064,1.01
2026/05/14 10:31:42.734,-0.021,-0.06,1.009
2026/05/14 10:31:42.754,-0.024,-0.064,1.008
2026/05/14 10:31:42.774,-0.023,-0.062,1.01
2026/05/14 10:31:42.794,-0.022,-0.06,1.011
2026/05/14 10:31:42.814,-0.02,-0.063,1.009
2026/05/14 10:31:42.834,-0.022,-0.063,1.007
2026/05/14 10:31:42.854,-0.024,-0.064,1.006
2026/05/14 10:31:42.874,-0.022,-0.061,1.013
2026/05/14 10:31:42.894,-0.022,-0.063,1.011
2026/05/14 10:31:42.914,-0.021,-0.063,1.01
2026/05/14 10:31:42.934,-0.024,-0.062,1.011
2026/05/14 10:31:42.954,-0.024,-0.059,1.009
2026/05/14 10:31:42.974,-0.021,-0.066,1.009
2026/05/14 10:31:42.994,-0.021,-0.065,1.009
2026/05/14 10:31:43.015,-0.016,-0.063,1.009
2026/05/14 10:31:43.035,-0.019,-0.064,1.009
2026/05/14 10:31:43.055,-0.023,-0.063,1.01
2026/05/14 10:31:43.075,-0.022,-0.063,1.011
2026/05/14 10:31:43.095,-0.023,-0.063,1.009
2026/05/14 10:31:43.115,-0.025,-0.066,1.009
2026/05/14 10:31:43.135,-0.022,-0.062,1.011
2026/05/14 10:31:43.155,-0.023,-0.063,1.009
2026/05/14 10:31:43.175,-0.022,-0.062,1.009
2026/05/14 10:31:43.195,-0.02,-0.06,1.007
2026/05/14 10:31:43.215,-0.023,-0.065,1.005
2026/05/14 10:31:43.235,-0.02,-0.06,1.01
2026/05/14 10:31:43.255,-0.016,-0.065,1.005
2026/05/14 10:31:43.275,-0.02,-0.068,1.008
2026/05/14 10:31:43.295,-0.018,-0.062,1.007
2026/05/14 10:31:43.315,-0.02,-0.062,1.008
2026/05/14 10:31:43.335,-0.022,-0.064,1.007
2026/05/14 10:31:43.355,-0.022,-0.06,1.007
2026/05/14 10:31:43.375,-0.019,-0.064,1.011
2026/05/14 10:31:43.395,-0.02,-0.062,1.008
2026/05/14 10:31:43.415,-0.022,-0.064,1.01
2026/05/14 10:31:43.435,-0.02,-0.062,1.006
2026/05/14 10:31:43.455,-0.023,-0.064,1.007
2026/05/14 10:31:43.476,-0.022,-0.06,1.007
2026/05/14 10:31:43.496,-0.02,-0.058,1.009
2026/05/14 10:31:43.516,-0.023,-0.065,1.008
2026/05/14 10:31:43.536,-0.021,-0.063,1.009
2026/05/14 10:31:43.556,-0.023,-0.065,1.011
2026/05/14 10:31:43.576,-0.02,-0.062,1.01
2026/05/14 10:31:43.596,-0.023,-0.062,1.012
2026/05/14 10:31:43.616,-0.019,-0.061,1.008
2026/05/14 10:31:43.636,-0.018,-0.061,1.01
2026/05/14 10:31:43.656,-0.021,-0.058,1.011
2026/05/14 10:31:43.676,-0.022,-0.062,1.011
2026/05/14 10:31:43.696,-0.022,-0.066,1.009
2026/05/14 10:31:43.716,-0.023,-0.066,1.011
2026/05/14 10:31:43.736,-0.023,-0.063,1.008
2026/05/14 10:31:43.756,-0.022,-0.06,1.011
2026/05/14 10:31:43.776,-0.025,-0.065,1.012
2026/05/14 10:31:43.796,-0.023,-0.062,1.01
2026/05/14 10:31:43.816,-0.024,-0.065,1.011
2026/05/14 10:31:43.836,-0.02,-0.067,1.007
2026/05/14 10:31:43.856,-0.019,-0.064,1.012
2026/05/14 10:31:43.876,-0.024,-0.064,1.009
2026/05/14 10:31:43.896,-0.019,-0.065,1.01
2026/05/14 10:31:43.916,-0.023,-0.063,1.012
2026/05/14 10:31:43.937,-0.024,-0.06,1.008
2026/05/14 10:31:43.957,-0.02,-0.064,1.007
2026/05/14 10:31:43.977,-0.025,-0.063,1.01
2026/05/14 10:31:43.997,-0.02,-0.064,1.013
2026/05/14 10:31:44.017,-0.021,-0.062,1.008
2026/05/14 10:31:44.037,-0.024,-0.061,1.012
2026/05/14 10:31:44.057,-0.025,-0.063,1.008
2026/05/14 10:31:44.077,-0.023,-0.066,1.011
2026/05/14 10:31:44.097,-0.024,-0.064,1.01
2026/05/14 10:31:44.117,-0.024,-0.063,1.006
2026/05/14 10:31:44.137,-0.025,-0.063,1.01
2026/05/14 10:31:44.157,-0.023,-0.064,1.007
2026/05/14 10:31:44.177,-0.022,-0.061,1.011
2026/05/14 10:31:44.197,-0.021,-0.063,1.01
2026/05/14 10:31:44.217,-0.019,-0.068,1.01
2026/05/14 10:31:44.237,-0.02,-0.06,1.009
2026/05/14 10:31:44.257,-0.019,-0.066,1.007
2026/05/14 10:31:44.277,-0.022,-0.063,1.009
2026/05/14 10:31:44.297,-0.025,-0.064,1.012
2026/05/14 10:31:44.317,-0.019,-0.064,1.008
2026/05/14 10:31:44.337,-0.021,-0.065,1.01
2026/05/14 10:31:44.357,-0.025,-0.064,1.007
2026/05/14 10:31:44.378,-0.019,-0.063,1.009
2026/05/14 10:31:44.398,-0.019,-0.063,1.012
2026/05/14 10:31:44.418,-0.02,-0.061,1.01
2026/05/14 10:31:44.438,-0.021,-0.06,1.007
2026/05/14 10:31:44.458,-0.022,-0.065,1.01
2026/05/14 10:31:44.478,-0.02,-0.063,1.016
2026/05/14 10:31:44.498,-0.021,-0.065,1.009
2026/05/14 10:31:44.518,-0.023,-0.062,1.01
2026/05/14 10:31:44.538,-0.023,-0.066,1.005
2026/05/14 10:31:44.558,-0.022,-0.062,1.011
2026/05/14 10:31:44.578,-0.024,-0.061,1.007
2026/05/14 10:31:44.598,-0.019,-0.065,1.011
2026/05/14 10:31:44.618,-0.02,-0.062,1.01
2026/05/14 10:31:44.638,-0.022,-0.061,1.009
2026/05/14 10:31:44.658,-0.019,-0.065,1.012
2026/05/14 10:31:44.678,-0.023,-0.067,1.011
2026/05/14 10:31:44.698,-0.019,-0.062,1.007
2026/05/14 10:31:44.718,-0.02,-0.064,1.01
2026/05/14 10:31:44.738,-0.023,-0.062,1.009
2026/05/14 10:31:44.758,-0.019,-0.064,1.01
2026/05/14 10:31:44.778,-0.025,-0.061,1.008
2026/05/14 10:31:44.798,-0.022,-0.064,1.009
2026/05/14 10:31:44.818,-0.024,-0.065,1.008
2026/05/14 10:31:44.839,-0.021,-0.065,1.009
2026/05/14 10:31:44.859,-0.023,-0.062,1.012
2026/05/14 10:31:44.879,-0.021,-0.063,1.01
2026/05/14 10:31:44.899,-0.021,-0.059,1.008
2026/05/14 10:31:44.919,-0.02,-0.066,1.007
2026/05/14 10:31:44.939,-0.023,-0.062,1.009
2026/05/14 10:31:44.959,-0.02,-0.062,1.007
2026/05/14 10:31:44.979,-0.023,-0.062,1.008
2026/05/14 10:31:44.999,-0.022,-0.059,1.01
2026/05/14 10:31:45.019,-0.027,-0.065,1.013
2026/05/14 10:31:45.039,-0.021,-0.062,1.009
2026/05/14 10:31:45.059,-0.021,-0.064,1.009
2026/05/14 10:31:45.079,-0.022,-0.064,1.007
2026/05/14 10:31:45.099,-0.024,-0.064,1.009
2026/05/14 10:31:45.119,-0.023,-0.059,1.011
2026/05/14 10:31:45.139,-0.023,-0.064,1.009
2026/05/14 10:31:45.159,-0.022,-0.064,1.012
2026/05/14 10:31:45.179,-0.022,-0.06,1.007
2026/05/14 10:31:45.199,-0.021,-0.067,1.011
2026/05/14 10:31:45.219,-0.016,-0.062,1.007
2026/05/14 10:31:45.239,-0.018,-0.062,1.01
2026/05/14 10:31:45.259,-0.018,-0.065,1.006
2026/05/14 10:31:45.279,-0.022,-0.066,1.007
2026/05/14 10:31:45.300,-0.023,-0.065,1.011
2026/05/14 10:31:45.320,-0.023,-0.06,1.01
2026/05/14 10:31:45.340,-0.024,-0.064,1.005
2026/05/14 10:31:45.360,-0.022,-0.062,1.005
2026/05/14 10:31:45.380,-0.018,-0.06,1.012
2026/05/14 10:31:45.400,-0.022,-0.064,1.007
2026/05/14 10:31:45.420,-0.022,-0.061,1.009
2026/05/14 10:31:45.440,-0.02,-0.062,1.005
2026/05/14 10:31:45.460,-0.023,-0.06,1.011
2026/05/14 10:31:45.480,-0.019,-0.061,1.009
2026/05/14 10:31:45.500,-0.019,-0.066,1.006
2026/05/14 10:31:45.520,-0.021,-0.062,1.009
2026/05/14 10:31:45.540,-0.021,-0.061,1.01
2026/05/14 10:31:45.560,-0.023,-0.066,1.009
2026/05/14 10:31:45.580,-0.021,-0.061,1.01
2026/05/14 10:31:45.600,-0.02,-0.062,1.007
2026/05/14 10:31:45.620,-0.019,-0.064,1.009
2026/05/14 10:31:45.640,-0.024,-0.066,1.012
2026/05/14 10:31:45.660,-0.023,-0.067,1.006
2026/05/14 10:31:45.680,-0.021,-0.064,1.01
2026/05/14 10:31:45.700,-0.021,-0.062,1.012
2026/05/14 10:31:45.720,-0.025,-0.061,1.009
2026/05/14 10:31:45.741,-0.022,-0.064,1.008
2026/05/14 10:31:45.761,-0.022,-0.062,1.011
2026/05/14 10:31:45.781,-0.022,-0.062,1.004
2026/05/14 10:31:45.801,-0.024,-0.063,1.011
2026/05/14 10:31:45.821,-0.019,-0.063,1.012
2026/05/14 10:31:45.841,-0.019,-0.063,1.008
2026/05/14 10:31:45.861,-0.019,-0.062,1.011
2026/05/14 10:31:45.881,-0.023,-0.068,1.009
2026/05/14 10:31:45.901,-0.021,-0.062,1.009
2026/05/14 10:31:45.921,-0.022,-0.057,1.009
2026/05/14 10:31:45.941,-0.022,-0.065,1.01
2026/05/14 10:31:45.961,-0.022,-0.064,1.009
2026/05/14 10:31:45.981,-0.023,-0.068,1.01
2026/05/14 10:31:46.001,-0.02,-0.064,1.007
2026/05/14 10:31:46.021,-0.024,-0.068,1.01
2026/05/14 10:31:46.041,-0.022,-0.064,1.008
2026/05/14 10:31:46.061,-0.019,-0.065,1.01
2026/05/14 10:31:46.081,-0.021,-0.06,1.012
2026/05/14 10:31:46.101,-0.021,-0.063,1.011
2026/05/14 10:31:46.121,-0.02,-0.061,1.005
2026/05/14 10:31:46.141,-0.024,-0.064,1.01
2026/05/14 10:31:46.161,-0.022,-0.062,1.009
2026/05/14 10:31:46.181,-0.02,-0.065,1.008
2026/05/14 10:31:46.202,-0.02,-0.065,1.013
2026/05/14 10:31:46.222,-0.021,-0.062,1.007
2026/05/14 10:31:46.242,-0.022,-0.063,1.011
2026/05/14 10:31:46.262,-0.021,-0.062,1.008
2026/05/14 10:31:46.282,-0.022,-0.06,1.011
2026/05/14 10:31:46.302,-0.02,-0.061,1.007
2026/05/14 10:31:46.322,-0.022,-0.065,1.011
2026/05/14 10:31:46.342,-0.02,-0.063,1.01
2026/05/14 10:31:46.362,-0.022,-0.06,1.008
2026/05/14 10:31:46.382,-0.021,-0.066,1.008
2026/05/14 10:31:46.402,-0.024,-0.063,1.01
2026/05/14 10:31:46.422,-0.024,-0.065,1.007
2026/05/14 10:31:46.442,-0.02,-0.062,1.009
2026/05/14 10:31:46.462,-0.02,-0.062,1.011
2026/05/14 10:31:46.482,-0.02,-0.059,1.009
2026/05/14 10:31:46.502,-0.023,-0.064,1.007
2026/05/14 10:31:46.522,-0.023,-0.066,1.009
2026/05/14 10:31:46.542,-0.022,-0.064,1.006
2026/05/14 10:31:46.562,-0.023,-0.064,1.009
2026/05/14 10:31:46.582,-0.022,-0.063,1.008
2026/05/14 10:31:46.602,-0.016,-0.061,1.012
2026/05/14 10:31:46.622,-0.021,-0.063,1.012
2026/05/14 10:31:46.642,-0.023,-0.064,1.004
2026/05/14 10:31:46.663,-0.023,-0.064,1.004
2026/05/14 10:31:46.683,-0.022,-0.063,1.008
2026/05/14 10:31:46.703,-0.022,-0.064,1.01
2026/05/14 10:31:46.723,-0.022,-0.061,1.01
2026/05/14 10:31:46.743,-0.02,-0.062,1.007
2026/05/14 10:31:46.763,-0.023,-0.059,1.013
2026/05/14 10:31:46.783,-0.023,-0.064,1.007
2026/05/14 10:31:46.803,-0.022,-0.062,1.011
2026/05/14 10:31:46.823,-0.022,-0.064,1.01
2026/05/14 10:31:46.843,-0.019,-0.063,1.007
2026/05/14 10:31:46.863,-0.021,-0.062,1.012
2026/05/14 10:31:46.883,-0.022,-0.062,1.009
2026/05/14 10:31:46.903,-0.021,-0.062,1.005
2026/05/14 10:31:46.923,-0.022,-0.064,1.011
2026/05/14 10:31:46.943,-0.02,-0.063,1.008
2026/05/14 10:31:46.963,-0.022,-0.063,1.01
2026/05/14 10:31:46.983,-0.024,-0.064,1.009
2026/05/14 10:31:47.003,-0.019,-0.064,1.01
2026/05/14 10:31:47.023,-0.023,-0.062,1.008
2026/05/14 10:31:47.043,-0.024,-0.06,1.006
2026/05/14 10:31:47.063,-0.022,-0.065,1.009
2026/05/14 10:31:47.083,-0.021,-0.065,1.006
2026/05/14 10:31:47.104,-0.022,-0.065,1.007
2026/05/14 10:31:47.124,-0.021,-0.061,1.004
2026/05/14 10:31:47.144,-0.021,-0.066,1.008
2026/05/14 10:31:47.164,-0.021,-0.061,1.008
2026/05/14 10:31:47.184,-0.02,-0.066,1.011
2026/05/14 10:31:47.204,-0.02,-0.061,1.01
2026/05/14 10:31:47.224,-0.023,-0.062,1.006
2026/05/14 10:31:47.244,-0.023,-0.062,1.009
2026/05/14 10:31:47.264,-0.022,-0.06,1.012
2026/05/14 10:31:47.284,-0.024,-0.065,1.013
2026/05/14 10:31:47.304,-0.022,-0.064,1.012
2026/05/14 10:31:47.324,-0.022,-0.063,1.008
2026/05/14 10:31:47.344,-0.022,-0.062,1.009
2026/05/14 10:31:47.364,-0.024,-0.062,1.01
2026/05/14 10:31:47.384,-0.021,-0.062,1.008
2026/05/14 10:31:47.404,-0.02,-0.065,1.011
2026/05/14 10:31:47.424,-0.021,-0.063,1.007
2026/05/14 10:31:47.444,-0.022,-0.062,1.009
2026/05/14 10:31:47.464,-0.02,-0.058,1.009
2026/05/14 10:31:47.484,-0.021,-0.062,1.006
2026/05/14 10:31:47.504,-0.022,-0.062,1.007
2026/05/14 10:31:47.524,-0.021,-0.063,1.006
2026/05/14 10:31:47.544,-0.025,-0.065,1.012
2026/05/14 10:31:47.565,-0.023,-0.064,1.009
2026/05/14 10:31:47.585,-0.018,-0.06,1.009
2026/05/14 10:31:47.605,-0.023,-0.063,1.012
2026/05/14 10:31:47.625,-0.023,-0.066,1.008
2026/05/14 10:31:47.645,-0.019,-0.063,1.01
2026/05/14 10:31:47.665,-0.02,-0.066,1.013
2026/05/14 10:31:47.685,-0.023,-0.063,1.01
2026/05/14 10:31:47.705,-0.018,-0.069,1.007
2026/05/14 10:31:47.725,-0.018,-0.064,1.009
2026/05/14 10:31:47.745,-0.024,-0.061,1.006
2026/05/14 10:31:47.765,-0.023,-0.067,1.006
2026/05/14 10:31:47.785,-0.021,-0.062,1.012
2026/05/14 10:31:47.805,-0.022,-0.062,1.007
2026/05/14 10:31:47.825,-0.02,-0.061,1.008
2026/05/14 10:31:47.845,-0.02,-0.062,1.008
2026/05/14 10:31:47.865,-0.023,-0.068,1.005
2026/05/14 10:31:47.885,-0.02,-0.063,1.012
2026/05/14 10:31:47.905,-0.021,-0.063,1.011
2026/05/14 10:31:47.925,-0.018,-0.065,1.009
2026/05/14 10:31:47.945,-0.025,-0.07,1.008
2026/05/14 10:31:47.965,-0.022,-0.064,1.009
2026/05/14 10:31:47.985,-0.021,-0.066,1.008
2026/05/14 10:31:48.005,-0.023,-0.064,1.012
2026/05/14 10:31:48.026,-0.023,-0.064,1.007
2026/05/14 10:31:48.046,-0.023,-0.061,1.006
2026/05/14 10:31:48.066,-0.021,-0.067,1.008
2026/05/14 10:31:48.086,-0.022,-0.064,1.008
2026/05/14 10:31:48.106,-0.021,-0.068,1.009
2026/05/14 10:31:48.126,-0.017,-0.063,1.009
2026/05/14 10:31:48.146,-0.02,-0.062,1.006
2026/05/14 10:31:48.166,-0.02,-0.062,1.008
2026/05/14 10:31:48.186,-0.02,-0.061,1.007
2026/05/14 10:31:48.206,-0.019,-0.063,1.008
2026/05/14 10:31:48.226,-0.02,-0.063,1.012
2026/05/14 10:31:48.246,-0.024,-0.062,1.009
2026/05/14 10:31:48.266,-0.021,-0.06,1.007
2026/05/14 10:31:48.286,-0.019,-0.066,1.007
2026/05/14 10:31:48.306,-0.022,-0.06,1.009
2026/05/14 10:31:48.326,-0.022,-0.064,1.011
2026/05/14 10:31:48.346,-0.02,-0.065,1.009
2026/05/14 10:31:48.366,-0.02,-0.065,1.009
2026/05/14 10:31:48.386,-0.023,-0.064,1.011
2026/05/14 10:31:48.406,-0.024,-0.067,1.01
2026/05/14 10:31:48.426,-0.026,-0.062,1.011
2026/05/14 10:31:48.446,-0.025,-0.066,1.008
2026/05/14 10:31:48.466,-0.025,-0.066,1.01
2026/05/14 10:31:48.486,-0.021,-0.062,1.011
2026/05/14 10:31:48.507,-0.017,-0.065,1.009
2026/05/14 10:31:48.527,-0.019,-0.066,1.01
2026/05/14 10:31:48.547,-0.023,-0.062,1.01
2026/05/14 10:31:48.567,-0.022,-0.063,1.009
2026/05/14 10:31:48.587,-0.021,-0.066,1.011
2026/05/14 10:31:48.607,-0.02,-0.067,1.008
2026/05/14 10:31:48.627,-0.023,-0.064,1.011
2026/05/14 10:31:48.647,-0.022,-0.063,1.007
2026/05/14 10:31:48.667,-0.021,-0.062,1.01
2026/05/14 10:31:48.687,-0.023,-0.065,1.008
2026/05/14 10:31:48.707,-0.017,-0.06,1.009
2026/05/14 10:31:48.727,-0.023,-0.064,1.008
2026/05/14 10:31:48.747,-0.02,-0.068,1.008
2026/05/14 10:31:48.767,-0.018,-0.063,1.012
2026/05/14 10:31:48.787,-0.022,-0.061,1.009
2026/05/14 10:31:48.807,-0.025,-0.061,1.007
2026/05/14 10:31:48.827,-0.02,-0.061,1.011
2026/05/14 10:31:48.847,-0.022,-0.061,1.01
2026/05/14 10:31:48.867,-0.021,-0.057,1.007
2026/05/14 10:31:48.887,-0.022,-0.062,1.01
2026/05/14 10:31:48.907,-0.022,-0.062,1.007
2026/05/14 10:31:48.927,-0.023,-0.062,1.008
2026/05/14 10:31:48.947,-0.022,-0.059,1.006
2026/05/14 10:31:48.968,-0.024,-0.064,1.01
2026/05/14 10:31:48.988,-0.024,-0.061,1.009
2026/05/14 10:31:49.008,-0.025,-0.067,1.009
2026/05/14 10:31:49.028,-0.019,-0.064,1.009
2026/05/14 10:31:49.048,-0.024,-0.063,1.011
2026/05/14 10:31:49.068,-0.019,-0.063,1.007
2026/05/14 10:31:49.088,-0.024,-0.061,1.012
2026/05/14 10:31:49.108,-0.023,-0.07,1.003
2026/05/14 10:31:49.128,-0.021,-0.067,1.01
2026/05/14 10:31:49.148,-0.021,-0.062,1.002
2026/05/14 10:31:49.168,-0.025,-0.065,1.01
2026/05/14 10:31:49.188,-0.02,-0.059,1.008
2026/05/14 10:31:49.208,-0.023,-0.061,1.008
2026/05/14 10:31:49.228,-0.022,-0.065,1.009
2026/05/14 10:31:49.248,-0.024,-0.061,1.007
2026/05/14 10:31:49.268,-0.025,-0.058,1.01
2026/05/14 10:31:49.288,-0.024,-0.067,1.01
2026/05/14 10:31:49.308,-0.02,-0.064,1.005
2026/05/14 10:31:49.328,-0.021,-0.064,1.008
2026/05/14 10:31:49.348,-0.024,-0.063,1.009
2026/05/14 10:31:49.368,-0.025,-0.064,1.012
2026/05/14 10:31:49.388,-0.023,-0.062,1.011
2026/05/14 10:31:49.408,-0.02,-0.064,1.005
2026/05/14 10:31:49.428,-0.025,-0.061,1.007
2026/05/14 10:31:49.449,-0.022,-0.062,1.009
2026/05/14 10:31:49.469,-0.02,-0.063,1.008
2026/05/14 10:31:49.489,-0.025,-0.065,1.008
2026/05/14 10:31:49.509,-0.02,-0.062,1.009
2026/05/14 10:31:49.529,-0.023,-0.064,1.01
2026/05/14 10:31:49.549,-0.021,-0.062,1.006
2026/05/14 10:31:49.569,-0.021,-0.062,1.007
2026/05/14 10:31:49.589,-0.019,-0.063,1.009
2026/05/14 10:31:49.609,-0.02,-0.063,1.01
2026/05/14 10:31:49.629,-0.019,-0.063,1.006
2026/05/14 10:31:49.649,-0.021,-0.065,1.011
2026/05/14 10:31:49.669,-0.024,-0.065,1.01
2026/05/14 10:31:49.689,-0.021,-0.064,1.009
2026/05/14 10:31:49.709,-0.022,-0.059,1.011
2026/05/14 10:31:49.729,-0.021,-0.062,1.01
2026/05/14 10:31:49.749,-0.02,-0.057,1.011
2026/05/14 10:31:49.769,-0.017,-0.06,1.008
2026/05/14 10:31:49.789,-0.023,-0.061,1.008
2026/05/14 10:31:49.809,-0.02,-0.062,1.006
2026/05/14 10:31:49.829,-0.023,-0.068,1.01
2026/05/14 10:31:49.849,-0.022,-0.068,1.009
2026/05/14 10:31:49.869,-0.021,-0.062,1.008
2026/05/14 10:31:49.889,-0.026,-0.064,1.008
2026/05/14 10:31:49.910,-0.02,-0.066,1.008
2026/05/14 10:31:49.930,-0.018,-0.063,1.006
2026/05/14 10:31:49.950,-0.023,-0.063,1.008
2026/05/14 10:31:49.970,-0.021,-0.062,1.011
2026/05/14 10:31:49.990,-0.025,-0.062,1.01
2026/05/14 10:31:50.010,-0.023,-0.065,1.01
2026/05/14 10:31:50.030,-0.021,-0.061,1.006
2026/05/14 10:31:50.050,-0.018,-0.064,1.012
2026/05/14 10:31:50.070,-0.025,-0.066,1.007
2026/05/14 10:31:50.090,-0.023,-0.065,1.008
2026/05/14 10:31:50.110,-0.022,-0.063,1.011
2026/05/14 10:31:50.130,-0.024,-0.06,1.012
2026/05/14 10:31:50.150,-0.023,-0.066,1.011
2026/05/14 10:31:50.170,-0.025,-0.061,1.009
2026/05/14 10:31:50.190,-0.024,-0.061,1.008
2026/05/14 10:31:50.210,-0.023,-0.064,1.006
2026/05/14 10:31:50.230,-0.022,-0.057,1.006
2026/05/14 10:31:50.250,-0.023,-0.063,1.011
2026/05/14 10:31:50.270,-0.02,-0.063,1.01
2026/05/14 10:31:50.290,-0.021,-0.062,1.011
2026/05/14 10:31:50.310,-0.026,-0.067,1.007
2026/05/14 10:31:50.330,-0.02,-0.066,1.009
2026/05/14 10:31:50.350,-0.02,-0.067,1.01
2026/05/14 10:31:50.370,-0.019,-0.064,1.01
2026/05/14 10:31:50.391,-0.025,-0.065,1.007
2026/05/14 10:31:50.411,-0.025,-0.061,1.013
2026/05/14 10:31:50.431,-0.02,-0.067,1.012
2026/05/14 10:31:50.451,-0.022,-0.062,1.01
2026/05/14 10:31:50.471,-0.024,-0.062,1.011
2026/05/14 10:31:50.491,-0.021,-0.061,1.007
2026/05/14 10:31:50.511,-0.023,-0.064,1.009
2026/05/14 10:31:50.531,-0.023,-0.065,1.011
2026/05/14 10:31:50.551,-0.024,-0.066,1.008
2026/05/14 10:31:50.571,-0.023,-0.063,1.008
2026/05/14 10:31:50.591,-0.018,-0.06,1.005
2026/05/14 10:31:50.611,-0.02,-0.064,1.009
2026/05/14 10:31:50.631,-0.023,-0.065,1.008
2026/05/14 10:31:50.651,-0.023,-0.059,1.011
2026/05/14 10:31:50.671,-0.025,-0.061,1.011
2026/05/14 10:31:50.691,-0.023,-0.064,1.007
2026/05/14 10:31:50.711,-0.019,-0.063,1.011
2026/05/14 10:31:50.731,-0.023,-0.061,1.012
2026/05/14 10:31:50.751,-0.022,-0.064,1.011
2026/05/14 10:31:50.771,-0.025,-0.062,1.01
2026/05/14 10:31:50.791,-0.021,-0.063,1.01
2026/05/14 10:31:50.811,-0.019,-0.061,1.009
2026/05/14 10:31:50.831,-0.022,-0.066,1.01
2026/05/14 10:31:50.851,-0.016,-0.066,1.009
2026/05/14 10:31:50.872,-0.022,-0.063,1.01
2026/05/14 10:31:50.892,-0.023,-0.064,1.01
2026/05/14 10:31:50.912,-0.023,-0.062,1.009
2026/05/14 10:31:50.932,-0.024,-0.065,1.009
2026/05/14 10:31:50.952,-0.023,-0.061,1.008
2026/05/14 10:31:50.972,-0.023,-0.062,1.01
2026/05/14 10:31:50.992,-0.019,-0.062,1.005
2026/05/14 10:31:51.012,-0.019,-0.063,1.008
2026/05/14 10:31:51.032,-0.018,-0.065,1.01
2026/05/14 10:31:51.052,-0.017,-0.063,1.006
2026/05/14 10:31:51.072,-0.02,-0.061,1.01
2026/05/14 10:31:51.092,-0.022,-0.062,1.01
2026/05/14 10:31:51.112,-0.022,-0.064,1.01
2026/05/14 10:31:51.132,-0.023,-0.061,1.009
2026/05/14 10:31:51.152,-0.019,-0.062,1.01
2026/05/14 10:31:51.172,-0.022,-0.065,1.013
2026/05/14 10:31:51.192,-0.021,-0.064,1.004
2026/05/14 10:31:51.212,-0.023,-0.065,1.011
2026/05/14 10:31:51.232,-0.02,-0.061,1.009
2026/05/14 10:31:51.252,-0.023,-0.063,1.009
2026/05/14 10:31:51.272,-0.022,-0.063,1.01
2026/05/14 10:31:51.292,-0.018,-0.063,1.009
2026/05/14 10:31:51.312,-0.023,-0.065,1.008
2026/05/14 10:31:51.333,-0.027,-0.063,1.006
2026/05/14 10:31:51.353,-0.024,-0.065,1.011
2026/05/14 10:31:51.373,-0.024,-0.064,1.006
2026/05/14 10:31:51.393,-0.024,-0.06,1.012
2026/05/14 10:31:51.413,-0.023,-0.063,1.01
2026/05/14 10:31:51.433,-0.016,-0.061,1.008
2026/05/14 10:31:51.453,-0.025,-0.063,1.006
2026/05/14 10:31:51.473,-0.022,-0.063,1.011
2026/05/14 10:31:51.493,-0.02,-0.066,1.009
2026/05/14 10:31:51.513,-0.023,-0.068,1.007
2026/05/14 10:31:51.533,-0.019,-0.063,1.009
2026/05/14 10:31:51.553,-0.023,-0.062,1.001
2026/05/14 10:31:51.573,-0.022,-0.062,1.007
2026/05/14 10:31:51.593,-0.018,-0.065,1.009
2026/05/14 10:31:51.613,-0.024,-0.067,1.013
2026/05/14 10:31:51.633,-0.022,-0.059,1.007
2026/05/14 10:31:51.653,-0.023,-0.062,1.01
2026/05/14 10:31:51.673,-0.024,-0.067,1.01
2026/05/14 10:31:51.693,-0.025,-0.067,1.011
2026/05/14 10:31:51.713,-0.023,-0.062,1.01
2026/05/14 10:31:51.733,-0.023,-0.064,1.011
2026/05/14 10:31:51.753,-0.026,-0.06,1.009
2026/05/14 10:31:51.773,-0.023,-0.064,1.011
2026/05/14 10:31:51.794,-0.026,-0.064,1.01
2026/05/14 10:31:51.814,-0.021,-0.064,1.009
2026/05/14 10:31:51.834,-0.021,-0.065,1.004
2026/05/14 10:31:51.854,-0.02,-0.064,1.011
2026/05/14 10:31:51.874,-0.021,-0.066,1.012
2026/05/14 10:31:51.894,-0.021,-0.06,1.006
2026/05/14 10:31:51.914,-0.021,-0.064,1.011
2026/05/14 10:31:51.934,-0.02,-0.066,1.004
2026/05/14 10:31:51.954,-0.02,-0.063,1.01
2026/05/14 10:31:51.974,-0.023,-0.061,1.011
2026/05/14 10:31:51.994,-0.024,-0.064,1.009
2026/05/14 10:31:52.014,-0.024,-0.06,1.01
2026/05/14 10:31:52.034,-0.025,-0.064,1.009
2026/05/14 10:31:52.054,-0.019,-0.066,1.006
2026/05/14 10:31:52.074,-0.02,-0.067,1.013
2026/05/14 10:31:52.094,-0.026,-0.063,1.011
2026/05/14 10:31:52.114,-0.021,-0.063,1.011
2026/05/14 10:31:52.134,-0.021,-0.06,1.012
2026/05/14 10:31:52.154,-0.019,-0.06,1.013
2026/05/14 10:31:52.174,-0.024,-0.059,1.007
2026/05/14 10:31:52.194,-0.022,-0.065,1.014
2026/05/14 10:31:52.214,-0.022,-0.065,1.009
2026/05/14 10:31:52.234,-0.022,-0.061,1.006
2026/05/14 10:31:52.255,-0.025,-0.064,1.009
2026/05/14 10:31:52.275,-0.021,-0.065,1.009
