Timestamp,ACC X,ACC Y,ACC Z
2026/05/14 10:33:41.157,-0.027,0.005,1.001
2026/05/14 10:33:41.176,-0.028,0.005,1.0
2026/05/14 10:33:41.195,-0.023,0.006,1.001
2026/05/14 10:33:41.215,-0.024,0.007,1.001
2026/05/14 10:33:41.234,-0.024,0.011,1.003
2026/05/14 10:33:41.253,-0.024,0.008,0.999
2026/05/14 10:33:41.272,-0.026,0.014,1.005
2026/05/14 10:33:41.291,-0.027,0.009,1.003
2026/05/14 10:33:41.311,-0.025,0.009,0.996
2026/05/14 10:33:41.330,-0.023,0.006,1.002
2026/05/14 10:33:41.349,-0.026,0.011,1.006
2026/05/14 10:33:41.368,-0.025,0.005,1.003
2026/05/14 10:33:41.388,-0.027,0.008,1.005
2026/05/14 10:33:41.407,-0.025,0.008,1.003
2026/05/14 10:33:41.426,-0.025,0.007,1.001
2026/05/14 10:33:41.445,-0.028,0.006,0.999
2026/05/14 10:33:41.465,-0.027,0.006,1.004
2026/05/14 10:33:41.484,-0.024,0.007,1.005
2026/05/14 10:33:41.503,-0.025,0.007,0.997
2026/05/14 10:33:41.522,-0.027,0.007,0.999
2026/05/14 10:33:41.541,-0.03,0.009,1.0
2026/05/14 10:33:41.561,-0.023,0.006,1.005
2026/05/14 10:33:41.580,-0.026,0.009,1.002
2026/05/14 10:33:41.599,-0.029,0.008,1.0
2026/05/14 10:33:41.618,-0.031,0.009,1.003
2026/05/14 10:33:41.638,-0.025,0.007,1.003
2026/05/14 10:33:41.657,-0.022,0.008,1.004
2026/05/14 10:33:41.676,-0.027,0.008,1.004
2026/05/14 10:33:41.695,-0.025,0.011,1.0
2026/05/14 10:33:41.715,-0.025,0.006,1.001
2026/05/14 10:33:41.734,-0.025,0.009,1.001
2026/05/14 10:33:41.753,-0.028,0.012,1.002
2026/05/14 10:33:41.772,-0.024,0.007,1.003
2026/05/14 10:33:41.791,-0.026,0.006,1.001
2026/05/14 10:33:41.811,-0.029,0.008,0.998
2026/05/14 10:33:41.830,-0.027,0.006,1.004
2026/05/14 10:33:41.849,-0.023,0.009,1.0
2026/05/14 10:33:41.868,-0.023,0.009,1.001
2026/05/14 10:33:41.888,-0.023,0.006,1.0
2026/05/14 10:33:41.907,-0.026,0.008,1.003
2026/05/14 10:33:41.926,-0.026,0.007,1.001
2026/05/14 10:33:41.945,-0.026,0.007,1.001
2026/05/14 10:33:41.965,-0.027,0.006,1.001
2026/05/14 10:33:41.984,-0.023,0.009,1.001
2026/05/14 10:33:42.003,-0.028,0.009,1.002
2026/05/14 10:33:42.022,-0.025,0.008,1.001
2026/05/14 10:33:42.041,-0.03,0.007,1.001
2026/05/14 10:33:42.061,-0.027,0.009,1.0
2026/05/14 10:33:42.080,-0.026,0.009,1.001
2026/05/14 10:33:42.099,-0.023,0.008,1.003
2026/05/14 10:33:42.118,-0.027,0.01,1.001
2026/05/14 10:33:42.138,-0.023,0.008,1.002
2026/05/14 10:33:42.157,-0.025,0.009,0.997
2026/05/14 10:33:42.176,-0.025,0.007,1.004
2026/05/14 10:33:42.195,-0.026,0.007,1.002
2026/05/14 10:33:42.215,-0.025,0.003,1.0
2026/05/14 10:33:42.234,-0.026,0.007,1.003
2026/05/14 10:33:42.253,-0.025,0.005,1.003
2026/05/14 10:33:42.272,-0.03,0.004,0.999
2026/05/14 10:33:42.291,-0.027,0.007,1.0
2026/05/14 10:33:42.311,-0.026,0.008,1.003
2026/05/14 10:33:42.330,-0.025,0.008,1.006
2026/05/14 10:33:42.349,-0.023,0.01,1.0
2026/05/14 10:33:42.368,-0.027,0.008,1.0
2026/05/14 10:33:42.388,-0.025,0.01,0.999
2026/05/14 10:33:42.407,-0.027,0.007,1.005
2026/05/14 10:33:42.426,-0.029,0.006,1.002
2026/05/14 10:33:42.445,-0.027,0.013,1.005
2026/05/14 10:33:42.465,-0.024,0.006,1.002
2026/05/14 10:33:42.484,-0.029,0.007,1.006
2026/05/14 10:33:42.503,-0.025,0.004,1.002
2026/05/14 10:33:42.522,-0.027,0.009,1.004
2026/05/14 10:33:42.541,-0.021,0.01,1.001
2026/05/14 10:33:42.561,-0.026,0.008,1.004
2026/05/14 10:33:42.580,-0.027,0.008,1.001
2026/05/14 10:33:42.599,-0.025,0.008,1.001
2026/05/14 10:33:42.618,-0.027,0.011,1.0
2026/05/14 10:33:42.638,-0.027,0.009,1.002
2026/05/14 10:33:42.657,-0.024,0.005,1.001
2026/05/14 10:33:42.676,-0.024,0.005,0.998
2026/05/14 10:33:42.695,-0.023,0.009,1.002
2026/05/14 10:33:42.715,-0.025,0.005,1.001
2026/05/14 10:33:42.734,-0.026,0.008,1.005
2026/05/14 10:33:42.753,-0.026,0.008,1.001
2026/05/14 10:33:42.772,-0.028,0.01,1.002
2026/05/14 10:33:42.791,-0.025,0.009,1.003
2026/05/14 10:33:42.811,-0.026,0.01,1.003
2026/05/14 10:33:42.830,-0.027,0.004,0.998
2026/05/14 10:33:42.849,-0.025,0.008,1.0
2026/05/14 10:33:42.868,-0.024,0.008,1.004
2026/05/14 10:33:42.888,-0.028,0.01,1.003
2026/05/14 10:33:42.907,-0.023,0.007,1.002
2026/05/14 10:33:42.926,-0.026,0.009,0.999
2026/05/14 10:33:42.945,-0.029,0.007,1.0
2026/05/14 10:33:42.965,-0.026,0.009,1.003
2026/05/14 10:33:42.984,-0.025,0.004,1.0
2026/05/14 10:33:43.003,-0.03,0.008,1.002
2026/05/14 10:33:43.022,-0.026,0.007,1.002
2026/05/14 10:33:43.041,-0.03,0.007,1.001
2026/05/14 10:33:43.061,-0.026,0.006,1.001
2026/05/14 10:33:43.080,-0.031,0.012,0.996
2026/05/14 10:33:43.099,-0.024,0.01,1.001
2026/05/14 10:33:43.118,-0.022,0.009,1.002
2026/05/14 10:33:43.138,-0.026,0.012,1.001
2026/05/14 10:33:43.157,-0.026,0.01,1.002
2026/05/14 10:33:43.176,-0.025,0.011,1.001
2026/05/14 10:33:43.195,-0.029,0.006,1.0
2026/05/14 10:33:43.215,-0.027,0.006,1.003
2026/05/14 10:33:43.234,-0.027,0.011,1.001
2026/05/14 10:33:43.253,-0.027,0.004,1.003
2026/05/14 10:33:43.272,-0.024,0.008,1.0
2026/05/14 10:33:43.291,-0.025,0.006,1.003
2026/05/14 10:33:43.311,-0.025,0.008,1.004
2026/05/14 10:33:43.330,-0.027,0.008,1.0
2026/05/14 10:33:43.349,-0.025,0.01,1.0
2026/05/14 10:33:43.368,-0.023,0.008,1.001
2026/05/14 10:33:43.388,-0.024,0.008,1.002
2026/05/14 10:33:43.407,-0.029,0.008,0.996
2026/05/14 10:33:43.426,-0.026,0.005,0.998
2026/05/14 10:33:43.445,-0.027,0.007,0.999
2026/05/14 10:33:43.465,-0.027,0.009,1.002
2026/05/14 10:33:43.484,-0.028,0.01,1.001
2026/05/14 10:33:43.503,-0.026,0.008,1.001
2026/05/14 10:33:43.522,-0.023,0.008,0.996
2026/05/14 10:33:43.541,-0.026,0.008,1.0
2026/05/14 10:33:43.561,-0.027,0.006,1.005
2026/05/14 10:33:43.580,-0.023,0.01,1.005
2026/05/14 10:33:43.599,-0.024,0.007,1.004
2026/05/14 10:33:43.618,-0.026,0.006,1.0
2026/05/14 10:33:43.638,-0.031,0.009,1.002
2026/05/14 10:33:43.657,-0.027,0.006,1.002
2026/05/14 10:33:43.676,-0.028,0.012,1.002
2026/05/14 10:33:43.695,-0.029,0.009,1.003
2026/05/14 10:33:43.715,-0.025,0.007,1.001
2026/05/14 10:33:43.734,-0.028,0.008,1.003
2026/05/14 10:33:43.753,-0.029,0.008,1.001
2026/05/14 10:33:43.772,-0.026,0.009,1.0
2026/05/14 10:33:43.791,-0.024,0.009,1.001
2026/05/14 10:33:43.811,-0.027,0.008,1.003
2026/05/14 10:33:43.830,-0.028,0.013,1.002
2026/05/14 10:33:43.849,-0.023,0.008,1.003
2026/05/14 10:33:43.868,-0.026,0.008,1.002
2026/05/14 10:33:43.888,-0.029,0.006,1.001
2026/05/14 10:33:43.907,-0.024,0.006,1.002
2026/05/14 10:33:43.926,-0.028,0.008,0.999
2026/05/14 10:33:43.945,-0.025,0.004,1.001
2026/05/14 10:33:43.965,-0.026,0.011,1.003
2026/05/14 10:33:43.984,-0.027,0.005,1.005
2026/05/14 10:33:44.003,-0.025,0.007,1.001
2026/05/14 10:33:44.022,-0.027,0.008,0.999
2026/05/14 10:33:44.041,-0.027,0.008,1.004
2026/05/14 10:33:44.061,-0.024,0.004,1.0
2026/05/14 10:33:44.080,-0.025,0.008,1.001
2026/05/14 10:33:44.099,-0.026,0.008,1.002
2026/05/14 10:33:44.118,-0.028,0.007,1.003
2026/05/14 10:33:44.138,-0.022,0.009,1.004
2026/05/14 10:33:44.157,-0.026,0.009,1.001
2026/05/14 10:33:44.176,-0.022,0.011,1.0
2026/05/14 10:33:44.195,-0.027,0.01,1.004
2026/05/14 10:33:44.215,-0.022,0.009,0.999
2026/05/14 10:33:44.234,-0.025,0.009,1.002
2026/05/14 10:33:44.253,-0.025,0.008,0.998
2026/05/14 10:33:44.272,-0.022,0.007,1.003
2026/05/14 10:33:44.291,-0.026,0.01,1.0
2026/05/14 10:33:44.311,-0.028,0.012,1.002
2026/05/14 10:33:44.331,-0.029,0.009,0.998
2026/05/14 10:33:44.350,-0.029,0.007,0.999
2026/05/14 10:33:44.370,-0.021,0.008,1.005
2026/05/14 10:33:44.389,-0.026,0.01,1.0
2026/05/14 10:33:44.409,-0.026,0.005,1.0
2026/05/14 10:33:44.429,-0.027,0.005,1.004
2026/05/14 10:33:44.448,-0.028,0.009,1.003
2026/05/14 10:33:44.468,-0.027,0.004,1.001
2026/05/14 10:33:44.487,-0.022,0.006,1.002
2026/05/14 10:33:44.507,-0.024,0.001,1.004
2026/05/14 10:33:44.527,-0.027,0.004,1.0
2026/05/14 10:33:44.546,-0.023,0.008,1.006
2026/05/14 10:33:44.566,-0.024,0.006,1.0
2026/05/14 10:33:44.585,-0.025,0.007,1.002
2026/05/14 10:33:44.605,-0.027,0.009,1.001
2026/05/14 10:33:44.625,-0.025,0.008,1.003
2026/05/14 10:33:44.644,-0.026,0.012,1.001
2026/05/14 10:33:44.664,-0.026,0.008,1.002
2026/05/14 10:33:44.683,-0.024,0.007,1.001
2026/05/14 10:33:44.703,-0.025,0.01,1.003
2026/05/14 10:33:44.723,-0.028,0.006,1.001
2026/05/14 10:33:44.742,-0.023,0.004,1.0
2026/05/14 10:33:44.762,-0.026,0.007,1.001
2026/05/14 10:33:44.781,-0.028,0.005,0.997
2026/05/14 10:33:44.801,-0.025,0.011,1.001
2026/05/14 10:33:44.821,-0.027,0.01,0.999
2026/05/14 10:33:44.840,-0.026,0.012,0.999
2026/05/14 10:33:44.860,-0.025,0.007,1.003
2026/05/14 10:33:44.879,-0.024,0.013,1.0
2026/05/14 10:33:44.899,-0.027,0.007,1.0
2026/05/14 10:33:44.919,-0.029,0.007,1.002
2026/05/14 10:33:44.938,-0.025,0.01,1.004
2026/05/14 10:33:44.958,0.002,-0.134,1.148
2026/05/14 10:33:44.977,-0.211,0.064,1.079
2026/05/14 10:33:44.997,-0.046,0.118,1.047
2026/05/14 10:33:45.017,-0.053,0.245,0.888
2026/05/14 10:33:45.036,-0.033,0.056,0.818
2026/05/14 10:33:45.056,-0.072,-0.055,1.19
2026/05/14 10:33:45.075,-0.052,-0.048,0.924
2026/05/14 10:33:45.095,-0.014,-0.002,0.986
2026/05/14 10:33:45.115,-0.033,0.032,1.248
2026/05/14 10:33:45.134,-0.039,0.034,1.052
2026/05/14 10:33:45.154,-0.006,0.033,0.969
2026/05/14 10:33:45.173,-0.022,0.051,1.017
2026/05/14 10:33:45.193,-0.016,-0.008,0.894
2026/05/14 10:33:45.212,-0.014,0.006,1.035
2026/05/14 10:33:45.232,-0.022,0.007,1.025
2026/05/14 10:33:45.252,-0.029,0.024,1.035
2026/05/14 10:33:45.271,-0.026,0.02,1.053
2026/05/14 10:33:45.291,-0.033,-0.003,0.971
2026/05/14 10:33:45.310,-0.032,-0.003,0.948
2026/05/14 10:33:45.330,-0.027,-0.001,0.944
2026/05/14 10:33:45.350,-0.027,-0.001,1.014
2026/05/14 10:33:45.369,-0.026,0.017,1.029
2026/05/14 10:33:45.389,-0.022,0.031,1.023
2026/05/14 10:33:45.408,-0.023,0.021,1.022
2026/05/14 10:33:45.428,-0.028,0.004,1.004
2026/05/14 10:33:45.448,-0.029,-0.013,0.994
2026/05/14 10:33:45.467,-0.023,-0.007,0.982
2026/05/14 10:33:45.487,-0.022,0.002,0.995
2026/05/14 10:33:45.506,-0.023,0.019,1.015
2026/05/14 10:33:45.526,-0.022,0.024,1.012
2026/05/14 10:33:45.546,-0.017,0.022,0.997
2026/05/14 10:33:45.565,-0.03,0.004,1.003
2026/05/14 10:33:45.585,-0.031,-0.006,1.013
2026/05/14 10:33:45.604,-0.029,0.004,0.992
2026/05/14 10:33:45.624,-0.028,0.009,0.976
2026/05/14 10:33:45.644,-0.029,0.01,1.007
2026/05/14 10:33:45.663,-0.027,0.007,1.007
2026/05/14 10:33:45.683,-0.026,0.009,0.997
2026/05/14 10:33:45.702,-0.022,0.008,0.993
2026/05/14 10:33:45.722,-0.021,0.002,1.006
2026/05/14 10:33:45.742,-0.024,0.009,1.014
2026/05/14 10:33:45.761,-0.026,0.011,0.999
2026/05/14 10:33:45.781,-0.025,0.007,0.992
2026/05/14 10:33:45.800,-0.025,0.004,1.001
2026/05/14 10:33:45.820,-0.027,0.005,1.008
2026/05/14 10:33:45.840,-0.029,0.013,0.996
2026/05/14 10:33:45.859,-0.024,0.018,1.001
2026/05/14 10:33:45.879,-0.029,0.015,1.007
2026/05/14 10:33:45.898,-0.03,0.008,1.004
2026/05/14 10:33:45.918,-0.026,0.005,1.0
2026/05/14 10:33:45.938,-0.026,-0.003,1.002
2026/05/14 10:33:45.957,-0.027,0.001,1.005
2026/05/14 10:33:45.977,-0.023,0.008,1.003
2026/05/14 10:33:45.996,-0.022,0.013,0.995
2026/05/14 10:33:46.016,-0.021,0.009,1.004
2026/05/14 10:33:46.035,-0.024,0.006,1.005
2026/05/14 10:33:46.055,-0.028,0.002,0.998
2026/05/14 10:33:46.075,-0.029,0.007,0.995
2026/05/14 10:33:46.094,-0.031,0.009,1.001
2026/05/14 10:33:46.114,-0.028,0.009,1.004
2026/05/14 10:33:46.133,-0.027,0.012,0.996
2026/05/14 10:33:46.153,-0.027,0.008,1.001
2026/05/14 10:33:46.173,-0.024,0.005,1.008
2026/05/14 10:33:46.192,-0.023,0.007,1.0
2026/05/14 10:33:46.212,-0.022,0.008,1.0
2026/05/14 10:33:46.231,-0.023,0.01,0.995
2026/05/14 10:33:46.251,-0.022,0.007,1.007
2026/05/14 10:33:46.271,-0.027,0.008,1.002
2026/05/14 10:33:46.290,-0.024,0.006,1.0
2026/05/14 10:33:46.310,-0.029,0.01,1.002
2026/05/14 10:33:46.329,-0.028,0.011,1.006
2026/05/14 10:33:46.349,-0.025,0.013,1.004
2026/05/14 10:33:46.369,-0.029,0.009,0.999
2026/05/14 10:33:46.388,-0.027,0.004,1.004
2026/05/14 10:33:46.408,-0.029,0.007,1.001
2026/05/14 10:33:46.427,-0.028,0.007,1.001
2026/05/14 10:33:46.447,-0.025,0.009,1.002
2026/05/14 10:33:46.467,-0.022,0.007,1.005
2026/05/14 10:33:46.486,-0.024,0.009,1.005
2026/05/14 10:33:46.506,-0.024,0.009,1.0
2026/05/14 10:33:46.525,-0.026,0.001,1.002
2026/05/14 10:33:46.545,-0.027,0.009,1.007
2026/05/14 10:33:46.565,-0.03,0.007,1.0
2026/05/14 10:33:46.584,-0.025,0.009,0.997
2026/05/14 10:33:46.604,-0.028,0.009,1.003
2026/05/14 10:33:46.623,-0.03,0.011,1.002
2026/05/14 10:33:46.643,-0.025,0.008,1.002
2026/05/14 10:33:46.663,-0.026,0.008,0.997
2026/05/14 10:33:46.682,-0.024,0.007,1.006
2026/05/14 10:33:46.702,-0.028,0.004,1.0
2026/05/14 10:33:46.721,-0.021,0.012,1.002
2026/05/14 10:33:46.741,-0.025,0.009,0.997
2026/05/14 10:33:46.761,-0.024,0.007,1.006
2026/05/14 10:33:46.780,-0.024,0.006,1.003
2026/05/14 10:33:46.800,-0.024,0.009,1.0
2026/05/14 10:33:46.819,-0.026,0.009,0.999
2026/05/14 10:33:46.839,-0.028,0.01,1.001
2026/05/14 10:33:46.859,-0.025,0.006,1.003
2026/05/14 10:33:46.878,-0.026,0.002,1.0
2026/05/14 10:33:46.898,-0.026,0.009,0.996
2026/05/14 10:33:46.917,-0.023,0.009,1.004
2026/05/14 10:33:46.937,-0.023,0.007,1.007
2026/05/14 10:33:46.956,-0.025,0.009,0.998
2026/05/14 10:33:46.976,-0.025,0.009,1.004
2026/05/14 10:33:46.996,-0.03,0.007,1.003
2026/05/14 10:33:47.015,-0.022,0.009,1.004
2026/05/14 10:33:47.035,-0.026,0.01,0.999
2026/05/14 10:33:47.054,-0.025,0.01,0.997
2026/05/14 10:33:47.074,-0.024,0.008,1.002
2026/05/14 10:33:47.094,-0.028,0.007,1.001
2026/05/14 10:33:47.113,-0.027,0.006,0.998
2026/05/14 10:33:47.133,-0.027,0.01,0.998
2026/05/14 10:33:47.152,-0.025,0.008,0.999
2026/05/14 10:33:47.172,-0.028,0.01,0.997
2026/05/14 10:33:47.192,-0.027,0.007,1.003
2026/05/14 10:33:47.211,-0.023,0.011,1.006
2026/05/14 10:33:47.231,-0.026,0.008,1.004
2026/05/14 10:33:47.250,-0.023,0.006,1.001
2026/05/14 10:33:47.270,-0.023,0.009,1.003
2026/05/14 10:33:47.290,-0.024,0.008,1.001
2026/05/14 10:33:47.309,-0.028,0.008,1.0
2026/05/14 10:33:47.329,-0.028,0.008,0.999
2026/05/14 10:33:47.348,-0.026,0.009,1.002
2026/05/14 10:33:47.368,-0.024,0.006,1.0
2026/05/14 10:33:47.388,-0.027,0.008,1.001
2026/05/14 10:33:47.407,-0.023,0.006,1.0
2026/05/14 10:33:47.427,-0.026,0.007,1.002
2026/05/14 10:33:47.446,-0.025,0.005,1.002
2026/05/14 10:33:47.466,-0.022,0.007,0.999
2026/05/14 10:33:47.486,-0.028,0.008,0.998
2026/05/14 10:33:47.505,-0.023,0.007,1.005
2026/05/14 10:33:47.525,-0.025,0.009,1.002
2026/05/14 10:33:47.544,-0.025,0.008,1.001
2026/05/14 10:33:47.564,-0.027,0.008,0.999
2026/05/14 10:33:47.584,-0.028,0.007,1.003
2026/05/14 10:33:47.603,-0.023,0.008,1.002
2026/05/14 10:33:47.623,-0.024,0.009,1.003
2026/05/14 10:33:47.642,-0.027,0.009,1.002
2026/05/14 10:33:47.662,-0.029,0.006,1.001
2026/05/14 10:33:47.682,-0.023,0.007,0.999
2026/05/14 10:33:47.701,-0.027,0.006,0.999
2026/05/14 10:33:47.721,-0.028,0.009,1.003
2026/05/14 10:33:47.740,-0.025,0.004,1.002
2026/05/14 10:33:47.760,-0.026,0.01,1.0
2026/05/14 10:33:47.780,-0.027,0.01,1.001
2026/05/14 10:33:47.799,-0.023,0.007,1.002
2026/05/14 10:33:47.819,-0.029,0.009,1.005
2026/05/14 10:33:47.838,-0.028,0.008,1.001
2026/05/14 10:33:47.858,-0.026,0.009,1.004
2026/05/14 10:33:47.877,-0.027,0.011,1.002
2026/05/14 10:33:47.897,-0.024,0.007,1.001
2026/05/14 10:33:47.917,-0.025,0.009,1.002
2026/05/14 10:33:47.936,-0.024,0.007,1.001
2026/05/14 10:33:47.956,-0.027,0.009,1.001
2026/05/14 10:33:47.975,-0.028,0.008,1.001
2026/05/14 10:33:47.995,-0.027,0.011,1.0
2026/05/14 10:33:48.015,-0.028,0.009,1.002
2026/05/14 10:33:48.034,-0.026,0.011,1.002
2026/05/14 10:33:48.054,-0.027,0.005,1.001
2026/05/14 10:33:48.073,-0.027,0.005,1.001
2026/05/14 10:33:48.093,-0.024,0.01,1.003
2026/05/14 10:33:48.113,-0.022,0.007,1.004
2026/05/14 10:33:48.132,-0.026,0.008,1.004
2026/05/14 10:33:48.152,-0.023,0.008,1.005
2026/05/14 10:33:48.171,-0.027,0.004,1.0
2026/05/14 10:33:48.191,-0.031,0.008,1.0
2026/05/14 10:33:48.211,-0.026,0.003,1.0
2026/05/14 10:33:48.230,-0.025,0.006,0.998
2026/05/14 10:33:48.250,-0.026,0.005,0.999
2026/05/14 10:33:48.269,-0.028,0.012,1.002
2026/05/14 10:33:48.289,-0.026,0.011,1.002
2026/05/14 10:33:48.309,-0.027,0.009,0.998
2026/05/14 10:33:48.328,-0.028,0.006,1.001
2026/05/14 10:33:48.348,-0.026,0.01,1.005
2026/05/14 10:33:48.367,-0.026,0.005,1.002
2026/05/14 10:33:48.387,-0.025,0.005,1.0
2026/05/14 10:33:48.407,-0.03,0.009,1.001
2026/05/14 10:33:48.426,-0.025,0.007,1.001
2026/05/14 10:33:48.446,-0.03,0.01,1.001
2026/05/14 10:33:48.465,-0.023,0.008,1.0
2026/05/14 10:33:48.485,-0.029,0.009,0.999
2026/05/14 10:33:48.505,-0.029,0.005,1.004
2026/05/14 10:33:48.524,-0.025,0.011,1.003
2026/05/14 10:33:48.544,-0.025,0.008,1.004
2026/05/14 10:33:48.563,-0.028,0.008,1.0
2026/05/14 10:33:48.583,-0.023,0.006,1.004
2026/05/14 10:33:48.603,-0.023,0.006,1.003
2026/05/14 10:33:48.622,-0.027,0.008,1.0
2026/05/14 10:33:48.642,-0.025,0.005,1.001
2026/05/14 10:33:48.661,-0.028,0.005,1.001
2026/05/14 10:33:48.681,-0.027,0.003,1.001
2026/05/14 10:33:48.701,-0.025,0.005,1.002
2026/05/14 10:33:48.720,-0.025,0.011,1.0
2026/05/14 10:33:48.740,-0.027,0.011,1.003
2026/05/14 10:33:48.759,-0.023,0.008,1.005
2026/05/14 10:33:48.779,-0.026,0.006,1.001
2026/05/14 10:33:48.798,-0.026,0.004,1.0
2026/05/14 10:33:48.818,-0.025,0.008,1.002
2026/05/14 10:33:48.838,-0.025,0.009,1.003
2026/05/14 10:33:48.857,-0.025,0.007,1.0
2026/05/14 10:33:48.877,-0.023,0.009,1.0
2026/05/14 10:33:48.896,-0.026,0.008,1.003
2026/05/14 10:33:48.916,-0.024,0.005,1.003
2026/05/14 10:33:48.936,-0.024,0.009,1.006
2026/05/14 10:33:48.955,-0.026,0.007,1.002
2026/05/14 10:33:48.975,-0.027,0.009,1.002
2026/05/14 10:33:48.994,-0.027,0.007,0.997
2026/05/14 10:33:49.014,-0.025,0.009,1.002
2026/05/14 10:33:49.034,-0.021,0.008,1.001
2026/05/14 10:33:49.053,-0.023,0.009,1.001
2026/05/14 10:33:49.073,-0.023,0.007,1.003
2026/05/14 10:33:49.092,-0.027,0.006,1.0
2026/05/14 10:33:49.112,-0.025,0.004,1.001
2026/05/14 10:33:49.132,-0.024,0.009,1.004
2026/05/14 10:33:49.151,-0.028,0.007,1.004
2026/05/14 10:33:49.171,-0.03,0.009,0.997
2026/05/14 10:33:49.190,-0.026,0.008,0.998
2026/05/14 10:33:49.210,-0.026,0.005,1.002
2026/05/14 10:33:49.230,-0.027,0.006,1.004
2026/05/14 10:33:49.249,-0.024,0.011,1.003
2026/05/14 10:33:49.269,-0.027,0.013,1.004
2026/05/14 10:33:49.288,-0.026,0.009,0.996
2026/05/14 10:33:49.308,-0.025,0.011,1.007
2026/05/14 10:33:49.328,-0.023,0.007,0.998
2026/05/14 10:33:49.347,-0.027,0.002,0.999
2026/05/14 10:33:49.367,-0.023,0.001,0.996
2026/05/14 10:33:49.386,-0.025,0.009,0.998
2026/05/14 10:33:49.406,-0.026,0.012,0.997
2026/05/14 10:33:49.426,-0.026,0.013,1.0
2026/05/14 10:33:49.445,-0.025,0.011,1.005
2026/05/14 10:33:49.465,-0.027,0.012,0.998
2026/05/14 10:33:49.484,-0.027,0.007,1.0
2026/05/14 10:33:49.504,-0.025,0.004,1.005
2026/05/14 10:33:49.524,-0.029,0.009,1.001
2026/05/14 10:33:49.543,-0.027,0.008,1.002
2026/05/14 10:33:49.563,-0.027,0.005,1.004
2026/05/14 10:33:49.582,-0.028,0.006,0.996
2026/05/14 10:33:49.602,-0.026,0.012,1.003
2026/05/14 10:33:49.622,-0.022,0.01,1.003
2026/05/14 10:33:49.641,-0.028,0.009,1.001
2026/05/14 10:33:49.661,-0.028,0.006,0.999
2026/05/14 10:33:49.680,-0.027,0.005,1.005
2026/05/14 10:33:49.700,-0.025,0.006,0.996
2026/05/14 10:33:49.719,-0.025,0.009,1.0
2026/05/14 10:33:49.739,-0.025,0.009,1.003
2026/05/14 10:33:49.759,-0.028,0.01,1.002
2026/05/14 10:33:49.778,-0.025,0.009,0.999
2026/05/14 10:33:49.798,-0.029,0.007,1.0
2026/05/14 10:33:49.817,-0.023,0.006,0.999
2026/05/14 10:33:49.837,-0.026,0.006,1.0
2026/05/14 10:33:49.857,-0.021,0.007,1.001
2026/05/14 10:33:49.876,-0.025,0.008,1.004
2026/05/14 10:33:49.896,-0.026,0.011,1.002
2026/05/14 10:33:49.915,-0.028,0.006,1.001
2026/05/14 10:33:49.935,-0.022,0.009,1.001
2026/05/14 10:33:49.955,-0.026,0.005,1.001
2026/05/14 10:33:49.974,-0.029,0.005,1.002
2026/05/14 10:33:49.994,-0.023,0.007,1.0
2026/05/14 10:33:50.013,-0.026,0.008,0.999
2026/05/14 10:33:50.033,-0.025,0.007,1.002
2026/05/14 10:33:50.053,-0.025,0.008,1.001
2026/05/14 10:33:50.072,-0.028,0.006,1.0
2026/05/14 10:33:50.092,-0.025,0.006,0.999
2026/05/14 10:33:50.111,-0.025,0.008,1.0
2026/05/14 10:33:50.131,-0.027,0.007,1.003
2026/05/14 10:33:50.151,-0.028,0.005,1.002
2026/05/14 10:33:50.170,-0.028,0.006,1.0
2026/05/14 10:33:50.190,-0.023,0.009,1.004
2026/05/14 10:33:50.209,-0.022,0.011,1.001
2026/05/14 10:33:50.229,-0.027,0.012,1.001
2026/05/14 10:33:50.249,-0.024,0.007,1.001
2026/05/14 10:33:50.268,-0.028,0.008,0.999
2026/05/14 10:33:50.288,-0.028,0.013,0.999
2026/05/14 10:33:50.307,-0.025,0.01,0.998
2026/05/14 10:33:50.327,-0.027,0.005,1.002
2026/05/14 10:33:50.347,-0.026,0.009,1.002
2026/05/14 10:33:50.366,-0.025,0.008,1.0
2026/05/14 10:33:50.386,-0.024,0.005,0.996
2026/05/14 10:33:50.405,-0.03,0.009,0.998
2026/05/14 10:33:50.425,-0.025,0.005,1.002
2026/05/14 10:33:50.445,-0.027,0.006,1.001
2026/05/14 10:33:50.464,-0.027,0.012,1.0
2026/05/14 10:33:50.484,-0.026,0.008,1.004
2026/05/14 10:33:50.503,-0.025,0.007,1.002
2026/05/14 10:33:50.523,-0.025,0.006,1.002
2026/05/14 10:33:50.543,-0.026,0.006,0.995
2026/05/14 10:33:50.562,-0.027,0.006,0.996
2026/05/14 10:33:50.582,-0.026,0.009,0.998
2026/05/14 10:33:50.601,-0.029,0.007,1.0
2026/05/14 10:33:50.621,-0.026,0.006,1.0
2026/05/14 10:33:50.640,-0.024,0.009,1.001
2026/05/14 10:33:50.660,-0.027,0.007,1.004
2026/05/14 10:33:50.680,-0.026,0.007,1.0
2026/05/14 10:33:50.699,-0.024,0.005,0.999
2026/05/14 10:33:50.719,-0.027,0.011,0.998
2026/05/14 10:33:50.738,-0.021,0.006,1.0
2026/05/14 10:33:50.758,-0.026,0.004,0.999
2026/05/14 10:33:50.778,-0.026,0.007,1.0
2026/05/14 10:33:50.797,-0.03,0.007,1.0
2026/05/14 10:33:50.817,-0.027,0.008,1.0
2026/05/14 10:33:50.836,-0.025,0.006,1.001
2026/05/14 10:33:50.856,-0.025,0.007,1.002
2026/05/14 10:33:50.876,-0.026,0.006,0.998
2026/05/14 10:33:50.895,-0.024,0.006,0.999
2026/05/14 10:33:50.915,-0.026,0.01,0.999
2026/05/14 10:33:50.934,-0.026,0.01,1.001
2026/05/14 10:33:50.954,-0.026,0.006,1.0
2026/05/14 10:33:50.974,-0.026,0.014,1.003
2026/05/14 10:33:50.993,-0.031,0.006,1.001
2026/05/14 10:33:51.013,-0.029,0.005,0.999
2026/05/14 10:33:51.032,-0.025,0.011,0.998
2026/05/14 10:33:51.052,-0.028,0.005,0.999
2026/05/14 10:33:51.072,-0.026,0.009,1.0
2026/05/14 10:33:51.091,-0.024,0.007,1.0
2026/05/14 10:33:51.111,-0.029,0.007,1.003
2026/05/14 10:33:51.130,-0.027,0.007,1.001
2026/05/14 10:33:51.150,-0.026,0.006,0.996
2026/05/14 10:33:51.170,-0.028,0.008,1.0
2026/05/14 10:33:51.189,-0.026,0.01,0.998
2026/05/14 10:33:51.209,-0.026,0.008,0.999
2026/05/14 10:33:51.228,-0.026,0.009,1.002
2026/05/14 10:33:51.248,-0.025,0.008,1.002
2026/05/14 10:33:51.268,-0.029,0.008,0.999
2026/05/14 10:33:51.287,-0.026,0.006,0.998
2026/05/14 10:33:51.307,-0.029,0.008,0.999
2026/05/14 10:33:51.326,-0.024,0.006,0.998
2026/05/14 10:33:51.346,-0.028,0.006,1.0
2026/05/14 10:33:51.366,-0.025,0.008,1.005
2026/05/14 10:33:51.385,-0.021,0.009,1.003
2026/05/14 10:33:51.405,-0.028,0.007,1.002
2026/05/14 10:33:51.424,-0.028,0.006,0.997
2026/05/14 10:33:51.444,-0.024,0.007,1.003
2026/05/14 10:33:51.464,-0.028,0.008,0.999
2026/05/14 10:33:51.483,-0.027,0.006,1.0
2026/05/14 10:33:51.503,-0.027,0.009,0.999
2026/05/14 10:33:51.522,-0.025,0.007,0.998
2026/05/14 10:33:51.542,-0.024,0.005,1.003
2026/05/14 10:33:51.562,-0.027,0.009,1.004
2026/05/14 10:33:51.581,-0.027,0.006,1.002
2026/05/14 10:33:51.601,-0.024,0.011,1.004
2026/05/14 10:33:51.620,-0.021,0.01,1.001
2026/05/14 10:33:51.640,-0.027,0.01,0.998
2026/05/14 10:33:51.659,-0.03,0.009,0.999
2026/05/14 10:33:51.679,-0.026,0.008,1.0
2026/05/14 10:33:51.699,-0.026,0.006,1.001
2026/05/14 10:33:51.718,-0.028,0.008,1.002
2026/05/14 10:33:51.738,-0.025,0.008,1.004
2026/05/14 10:33:51.757,-0.024,0.009,0.997
2026/05/14 10:33:51.777,-0.023,0.003,0.997
2026/05/14 10:33:51.797,-0.023,0.006,1.005
2026/05/14 10:33:51.816,-0.023,0.006,1.002
2026/05/14 10:33:51.836,-0.026,0.01,1.0
2026/05/14 10:33:51.855,-0.025,0.009,1.004
2026/05/14 10:33:51.875,-0.029,0.004,0.998
2026/05/14 10:33:51.895,-0.026,0.003,0.996
2026/05/14 10:33:51.914,-0.027,0.008,1.002
2026/05/14 10:33:51.934,-0.026,0.006,1.001
2026/05/14 10:33:51.953,-0.01,-0.004,0.96
2026/05/14 10:33:51.973,-0.03,0.03,0.886
2026/05/14 10:33:51.993,-0.02,0.032,1.003
2026/05/14 10:33:52.012,-0.02,0.056,0.956
2026/05/14 10:33:52.032,-0.031,0.004,0.993
2026/05/14 10:33:52.051,-0.03,0.03,1.015
2026/05/14 10:33:52.071,-0.032,-0.002,1.026
2026/05/14 10:33:52.091,-0.032,0.003,1.033
2026/05/14 10:33:52.110,-0.028,-0.003,0.958
2026/05/14 10:33:52.130,-0.02,0.014,0.99
2026/05/14 10:33:52.149,-0.018,0.012,1.003
2026/05/14 10:33:52.169,-0.016,0.012,0.998
2026/05/14 10:33:52.189,-0.017,0.016,0.995
2026/05/14 10:33:52.208,-0.025,0.007,0.994
2026/05/14 10:33:52.228,-0.026,0.003,1.016
2026/05/14 10:33:52.247,-0.03,0.004,1.005
2026/05/14 10:33:52.267,-0.032,0.01,0.992
2026/05/14 10:33:52.287,-0.027,0.001,0.992
2026/05/14 10:33:52.306,-0.028,0.003,1.004
2026/05/14 10:33:52.326,-0.026,0.009,0.997
2026/05/14 10:33:52.345,-0.022,0.015,0.995
2026/05/14 10:33:52.365,-0.024,0.013,1.003
2026/05/14 10:33:52.385,-0.026,0.004,1.009
2026/05/14 10:33:52.404,-0.027,0.0,1.004
2026/05/14 10:33:52.424,-0.027,-0.004,0.987
2026/05/14 10:33:52.443,-0.024,0.001,1.003
2026/05/14 10:33:52.463,-0.021,0.006,1.006
2026/05/14 10:33:52.483,-0.021,0.014,0.999
2026/05/14 10:33:52.502,-0.022,0.014,1.003
2026/05/14 10:33:52.522,-0.027,0.007,1.003
2026/05/14 10:33:52.541,-0.031,0.002,1.003
2026/05/14 10:33:52.561,-0.031,0.002,0.991
2026/05/14 10:33:52.580,-0.029,0.006,1.002
2026/05/14 10:33:52.600,-0.025,0.009,1.004
2026/05/14 10:33:52.620,-0.021,0.009,1.002
2026/05/14 10:33:52.639,-0.024,0.016,0.999
2026/05/14 10:33:52.659,-0.018,0.009,1.003
2026/05/14 10:33:52.678,-0.024,0.003,1.006
2026/05/14 10:33:52.698,-0.025,0.007,0.996
2026/05/14 10:33:52.718,-0.027,0.008,0.993
2026/05/14 10:33:52.737,-0.028,0.007,1.0
2026/05/14 10:33:52.757,-0.031,0.008,1.004
2026/05/14 10:33:52.776,-0.025,0.01,0.995
2026/05/14 10:33:52.796,-0.025,0.009,1.001
2026/05/14 10:33:52.816,-0.027,0.007,1.004
2026/05/14 10:33:52.835,-0.025,0.009,1.005
2026/05/14 10:33:52.855,-0.029,0.006,1.0
2026/05/14 10:33:52.874,-0.028,0.009,1.002
2026/05/14 10:33:52.894,-0.028,0.005,1.006
2026/05/14 10:33:52.914,-0.02,0.007,1.001
2026/05/14 10:33:52.933,-0.024,0.006,1.003
2026/05/14 10:33:52.953,-0.027,0.011,0.997
2026/05/14 10:33:52.972,-0.032,0.006,1.002
2026/05/14 10:33:52.992,-0.025,0.008,1.0
2026/05/14 10:33:53.012,-0.027,0.01,1.0
2026/05/14 10:33:53.031,-0.023,0.001,1.003
2026/05/14 10:33:53.051,-0.028,0.004,1.005
2026/05/14 10:33:53.070,-0.024,0.003,1.005
2026/05/14 10:33:53.090,-0.029,0.003,0.997
2026/05/14 10:33:53.110,-0.028,0.003,1.005
2026/05/14 10:33:53.129,-0.021,0.005,1.003
2026/05/14 10:33:53.149,-0.028,0.01,1.002
2026/05/14 10:33:53.168,-0.023,0.009,0.997
2026/05/14 10:33:53.188,-0.025,0.005,1.002
2026/05/14 10:33:53.208,-0.021,0.003,1.002
2026/05/14 10:33:53.227,-0.021,0.005,0.997
2026/05/14 10:33:53.247,-0.027,0.009,1.005
2026/05/14 10:33:53.266,-0.03,0.01,1.003
2026/05/14 10:33:53.286,-0.025,0.008,1.003
2026/05/14 10:33:53.306,-0.026,0.007,0.999
2026/05/14 10:33:53.325,-0.028,0.005,1.001
2026/05/14 10:33:53.345,-0.024,0.009,0.999
2026/05/14 10:33:53.364,-0.023,0.005,1.002
2026/05/14 10:33:53.384,-0.026,0.009,0.998
2026/05/14 10:33:53.404,-0.026,0.007,1.001
2026/05/14 10:33:53.423,-0.025,0.005,1.002
2026/05/14 10:33:53.443,-0.028,0.009,0.999
2026/05/14 10:33:53.462,-0.026,0.006,0.998
2026/05/14 10:33:53.482,-0.025,0.011,1.002
2026/05/14 10:33:53.502,-0.025,0.012,1.0
2026/05/14 10:33:53.521,-0.026,0.009,0.997
2026/05/14 10:33:53.541,-0.026,0.007,0.999
2026/05/14 10:33:53.560,-0.03,0.006,1.001
2026/05/14 10:33:53.580,-0.026,0.006,1.002
2026/05/14 10:33:53.599,-0.027,0.004,0.994
2026/05/14 10:33:53.619,-0.03,0.004,1.0
2026/05/14 10:33:53.639,-0.027,0.009,1.002
2026/05/14 10:33:53.658,-0.026,0.01,0.998
2026/05/14 10:33:53.678,-0.026,0.008,1.0
2026/05/14 10:33:53.697,-0.025,0.007,1.003
2026/05/14 10:33:53.717,-0.026,0.006,1.003
2026/05/14 10:33:53.737,-0.027,0.008,1.001
2026/05/14 10:33:53.756,-0.027,0.006,0.994
2026/05/14 10:33:53.776,-0.025,0.005,1.005
2026/05/14 10:33:53.795,-0.027,0.007,1.004
2026/05/14 10:33:53.815,-0.028,0.01,1.0
2026/05/14 10:33:53.835,-0.025,0.007,0.999
2026/05/14 10:33:53.854,-0.027,0.009,1.002
2026/05/14 10:33:53.874,-0.027,0.005,0.998
2026/05/14 10:33:53.893,-0.025,0.006,0.997
2026/05/14 10:33:53.913,-0.023,0.007,1.002
2026/05/14 10:33:53.933,-0.025,0.009,1.001
2026/05/14 10:33:53.952,-0.027,0.007,0.998
2026/05/14 10:33:53.972,-0.024,0.005,1.002
2026/05/14 10:33:53.991,-0.027,0.009,0.998
2026/05/14 10:33:54.011,-0.023,0.01,1.003
2026/05/14 10:33:54.031,-0.027,0.005,1.001
2026/05/14 10:33:54.050,-0.023,0.008,1.001
2026/05/14 10:33:54.070,-0.022,0.008,1.004
2026/05/14 10:33:54.089,-0.023,0.009,1.002
2026/05/14 10:33:54.109,-0.026,0.009,1.003
2026/05/14 10:33:54.129,-0.027,0.007,0.994
2026/05/14 10:33:54.148,-0.025,0.005,1.001
2026/05/14 10:33:54.168,-0.026,0.006,0.998
2026/05/14 10:33:54.187,-0.023,0.008,0.996
2026/05/14 10:33:54.207,-0.027,0.007,1.002
2026/05/14 10:33:54.227,-0.025,0.008,1.002
2026/05/14 10:33:54.246,-0.026,0.011,0.998
2026/05/14 10:33:54.266,-0.026,0.007,0.998
2026/05/14 10:33:54.285,-0.028,0.01,1.001
2026/05/14 10:33:54.305,-0.025,0.009,1.001
2026/05/14 10:33:54.325,-0.028,0.007,0.997
2026/05/14 10:33:54.344,-0.024,0.008,1.0
2026/05/14 10:33:54.364,-0.025,0.009,1.0
2026/05/14 10:33:54.383,-0.025,0.007,1.002
2026/05/14 10:33:54.403,-0.024,0.007,1.001
2026/05/14 10:33:54.423,-0.027,0.009,0.996
2026/05/14 10:33:54.442,-0.027,0.005,0.999
2026/05/14 10:33:54.462,-0.026,0.012,1.005
2026/05/14 10:33:54.481,-0.027,0.006,1.0
2026/05/14 10:33:54.501,-0.028,0.008,1.0
2026/05/14 10:33:54.520,-0.025,0.008,1.003
2026/05/14 10:33:54.540,-0.026,0.009,0.999
2026/05/14 10:33:54.560,-0.023,0.01,1.001
2026/05/14 10:33:54.579,-0.023,0.007,1.0
2026/05/14 10:33:54.599,-0.023,0.008,0.997
2026/05/14 10:33:54.618,-0.025,0.006,1.002
2026/05/14 10:33:54.638,-0.027,0.006,0.997
2026/05/14 10:33:54.658,-0.021,0.007,1.001
2026/05/14 10:33:54.677,-0.027,0.005,0.999
2026/05/14 10:33:54.697,-0.024,0.007,1.002
2026/05/14 10:33:54.716,-0.027,0.006,1.002
2026/05/14 10:33:54.736,-0.028,0.004,1.001
2026/05/14 10:33:54.756,-0.026,0.008,1.0
2026/05/14 10:33:54.775,-0.029,0.009,1.002
2026/05/14 10:33:54.795,-0.022,0.011,1.002
2026/05/14 10:33:54.814,-0.023,0.005,0.997
2026/05/14 10:33:54.834,-0.023,0.007,1.005
2026/05/14 10:33:54.854,-0.023,0.007,0.998
2026/05/14 10:33:54.873,-0.025,0.006,0.997
2026/05/14 10:33:54.893,-0.021,0.009,1.003
2026/05/14 10:33:54.912,-0.028,0.007,1.0
2026/05/14 10:33:54.932,-0.024,0.009,1.004
2026/05/14 10:33:54.952,-0.024,0.014,1.001
2026/05/14 10:33:54.971,-0.025,0.003,1.001
2026/05/14 10:33:54.991,-0.027,0.004,1.002
2026/05/14 10:33:55.010,-0.025,0.007,1.001
2026/05/14 10:33:55.030,-0.025,0.006,1.0
2026/05/14 10:33:55.050,-0.028,0.009,1.0
2026/05/14 10:33:55.069,-0.024,0.005,0.999
2026/05/14 10:33:55.089,-0.025,0.011,1.006
2026/05/14 10:33:55.108,-0.031,0.005,1.0
2026/05/14 10:33:55.128,-0.027,0.005,1.0
2026/05/14 10:33:55.148,-0.028,0.004,1.001
2026/05/14 10:33:55.167,-0.023,0.006,0.999
2026/05/14 10:33:55.187,-0.03,0.005,1.0
2026/05/14 10:33:55.206,-0.025,0.006,1.004
2026/05/14 10:33:55.226,-0.026,0.008,1.0
2026/05/14 10:33:55.246,-0.026,0.005,1.0
2026/05/14 10:33:55.265,-0.024,0.006,1.006
2026/05/14 10:33:55.285,-0.025,0.008,0.996
2026/05/14 10:33:55.304,-0.028,0.01,0.998
2026/05/14 10:33:55.324,-0.028,0.009,1.002
2026/05/14 10:33:55.344,-0.026,0.007,0.999
2026/05/14 10:33:55.363,-0.026,0.005,1.003
2026/05/14 10:33:55.383,-0.027,0.009,0.998
2026/05/14 10:33:55.402,-0.026,0.005,1.002
2026/05/14 10:33:55.422,-0.024,0.004,1.002
2026/05/14 10:33:55.441,-0.024,0.005,1.001
2026/05/14 10:33:55.461,-0.022,0.004,0.999
2026/05/14 10:33:55.481,-0.027,0.008,1.002
2026/05/14 10:33:55.500,-0.026,0.007,1.006
2026/05/14 10:33:55.520,-0.028,0.01,0.996
2026/05/14 10:33:55.539,-0.028,0.01,0.998
2026/05/14 10:33:55.559,-0.027,0.01,1.003
2026/05/14 10:33:55.579,-0.026,0.006,1.0
2026/05/14 10:33:55.598,-0.027,0.004,0.998
2026/05/14 10:33:55.618,-0.023,0.006,0.999
2026/05/14 10:33:55.637,-0.02,0.008,0.998
2026/05/14 10:33:55.657,-0.027,0.005,1.0
2026/05/14 10:33:55.677,-0.022,0.004,1.0
2026/05/14 10:33:55.696,-0.025,0.008,0.999
2026/05/14 10:33:55.716,-0.024,0.004,0.999
2026/05/14 10:33:55.735,-0.028,0.007,1.001
2026/05/14 10:33:55.755,-0.03,0.009,1.002
2026/05/14 10:33:55.775,-0.026,0.011,0.997
2026/05/14 10:33:55.794,-0.031,0.009,1.001
2026/05/14 10:33:55.814,-0.026,0.009,1.011
2026/05/14 10:33:55.833,-0.024,0.01,1.001
2026/05/14 10:33:55.853,-0.027,0.003,1.002
2026/05/14 10:33:55.873,-0.023,0.009,0.998
2026/05/14 10:33:55.892,-0.025,0.007,0.999
2026/05/14 10:33:55.912,-0.024,0.008,1.008
2026/05/14 10:33:55.931,-0.027,0.008,0.998
2026/05/14 10:33:55.951,-0.031,0.005,1.001
2026/05/14 10:33:55.971,-0.024,0.001,1.0
2026/05/14 10:33:55.990,-0.027,0.005,1.003
2026/05/14 10:33:56.010,-0.027,0.009,0.996
2026/05/14 10:33:56.029,-0.025,0.01,1.001
2026/05/14 10:33:56.049,-0.024,0.008,1.002
2026/05/14 10:33:56.069,-0.026,0.009,1.0
2026/05/14 10:33:56.088,-0.026,0.007,0.996
2026/05/14 10:33:56.108,-0.024,0.004,1.001
2026/05/14 10:33:56.127,-0.025,0.01,0.997
2026/05/14 10:33:56.147,-0.03,0.006,0.999
2026/05/14 10:33:56.167,-0.025,0.007,1.011
2026/05/14 10:33:56.186,-0.026,0.007,1.007
2026/05/14 10:33:56.206,-0.023,0.009,0.995
2026/05/14 10:33:56.225,-0.021,0.006,1.002
2026/05/14 10:33:56.245,-0.026,0.006,1.005
2026/05/14 10:33:56.265,-0.028,0.01,0.999
2026/05/14 10:33:56.284,-0.024,0.008,0.995
2026/05/14 10:33:56.304,-0.022,0.007,0.993
2026/05/14 10:33:56.323,-0.025,0.007,0.99
2026/05/14 10:33:56.343,-0.023,0.004,1.004
2026/05/14 10:33:56.362,-0.026,0.005,0.998
2026/05/14 10:33:56.382,-0.024,0.004,1.0
2026/05/14 10:33:56.402,-0.03,0.006,0.996
2026/05/14 10:33:56.421,-0.029,0.006,0.998
2026/05/14 10:33:56.441,-0.027,0.009,1.003
2026/05/14 10:33:56.460,-0.029,0.008,1.003
2026/05/14 10:33:56.480,-0.026,0.01,1.0
2026/05/14 10:33:56.500,-0.03,0.007,0.998
2026/05/14 10:33:56.519,-0.027,0.004,0.999
2026/05/14 10:33:56.539,-0.03,0.009,1.001
2026/05/14 10:33:56.558,-0.024,0.005,1.002
2026/05/14 10:33:56.578,-0.024,0.012,1.005
2026/05/14 10:33:56.598,-0.024,0.008,0.997
2026/05/14 10:33:56.617,-0.021,0.005,1.001
2026/05/14 10:33:56.637,-0.026,0.004,0.999
2026/05/14 10:33:56.656,-0.024,0.006,1.001
2026/05/14 10:33:56.676,-0.023,0.007,0.999
2026/05/14 10:33:56.696,-0.026,0.007,0.999
2026/05/14 10:33:56.715,-0.026,0.009,0.999
2026/05/14 10:33:56.735,-0.026,0.007,0.998
2026/05/14 10:33:56.754,-0.025,0.004,0.997
2026/05/14 10:33:56.774,-0.026,0.006,1.01
2026/05/14 10:33:56.794,-0.03,0.007,0.99
2026/05/14 10:33:56.813,-0.025,0.005,1.006
2026/05/14 10:33:56.833,-0.027,0.005,1.002
2026/05/14 10:33:56.852,-0.027,0.006,0.991
2026/05/14 10:33:56.872,-0.026,0.009,0.985
2026/05/14 10:33:56.892,-0.027,0.008,0.992
2026/05/14 10:33:56.911,-0.024,0.007,0.999
2026/05/14 10:33:56.931,-0.031,0.008,0.998
2026/05/14 10:33:56.950,-0.023,0.006,0.997
2026/05/14 10:33:56.970,-0.027,0.007,1.005
2026/05/14 10:33:56.990,-0.025,0.008,0.996
2026/05/14 10:33:57.009,-0.026,0.006,0.989
2026/05/14 10:33:57.029,-0.026,0.008,1.01
2026/05/14 10:33:57.048,-0.023,0.006,0.999
2026/05/14 10:33:57.068,-0.022,0.01,0.999
2026/05/14 10:33:57.088,-0.026,0.007,0.996
2026/05/14 10:33:57.107,-0.027,0.006,1.0
2026/05/14 10:33:57.127,-0.024,0.007,1.002
2026/05/14 10:33:57.146,-0.023,0.008,1.005
2026/05/14 10:33:57.166,-0.022,0.006,1.001
2026/05/14 10:33:57.185,-0.024,0.009,1.003
2026/05/14 10:33:57.205,-0.028,0.009,1.015
2026/05/14 10:33:57.225,-0.03,0.005,1.003
2026/05/14 10:33:57.244,-0.03,0.006,0.995
2026/05/14 10:33:57.264,-0.023,0.005,1.0
2026/05/14 10:33:57.283,-0.027,0.01,0.993
2026/05/14 10:33:57.303,-0.026,0.006,0.997
2026/05/14 10:33:57.323,-0.027,0.004,1.001
2026/05/14 10:33:57.342,-0.022,0.004,0.998
2026/05/14 10:33:57.362,-0.023,0.006,1.005
2026/05/14 10:33:57.381,-0.028,0.008,1.006
2026/05/14 10:33:57.401,-0.026,0.011,0.999
2026/05/14 10:33:57.421,-0.027,0.011,1.0
2026/05/14 10:33:57.440,-0.031,0.013,1.002
2026/05/14 10:33:57.460,-0.025,0.011,1.003
2026/05/14 10:33:57.479,-0.028,0.01,0.996
2026/05/14 10:33:57.499,-0.029,0.008,1.0
2026/05/14 10:33:57.519,-0.027,0.005,1.004
2026/05/14 10:33:57.538,-0.027,0.009,1.0
2026/05/14 10:33:57.558,-0.028,0.008,1.002
2026/05/14 10:33:57.577,-0.021,0.005,1.002
2026/05/14 10:33:57.597,-0.021,0.007,1.0
2026/05/14 10:33:57.617,-0.024,0.008,1.001
2026/05/14 10:33:57.636,-0.025,0.003,0.995
2026/05/14 10:33:57.656,-0.029,0.009,1.0
2026/05/14 10:33:57.675,-0.027,0.005,1.0
2026/05/14 10:33:57.695,-0.027,0.009,1.0
2026/05/14 10:33:57.715,-0.024,0.009,0.997
2026/05/14 10:33:57.734,-0.027,0.008,1.0
2026/05/14 10:33:57.754,-0.024,0.007,1.0
2026/05/14 10:33:57.773,-0.028,0.006,0.996
2026/05/14 10:33:57.793,-0.027,0.008,1.0
2026/05/14 10:33:57.813,-0.025,0.002,1.002
2026/05/14 10:33:57.832,-0.022,0.007,0.996
2026/05/14 10:33:57.852,-0.025,0.006,0.997
2026/05/14 10:33:57.871,-0.024,0.007,1.002
2026/05/14 10:33:57.891,-0.025,0.01,0.998
2026/05/14 10:33:57.911,-0.03,0.007,1.002
2026/05/14 10:33:57.930,-0.026,0.012,1.001
2026/05/14 10:33:57.950,-0.023,0.007,1.0
2026/05/14 10:33:57.969,-0.026,0.003,1.002
2026/05/14 10:33:57.989,-0.023,0.007,0.999
2026/05/14 10:33:58.008,-0.023,0.006,0.997
2026/05/14 10:33:58.028,-0.026,0.007,1.001
2026/05/14 10:33:58.048,-0.023,0.008,1.002
2026/05/14 10:33:58.067,-0.025,0.009,0.998
2026/05/14 10:33:58.087,-0.026,0.005,0.999
2026/05/14 10:33:58.106,-0.024,0.004,0.996
2026/05/14 10:33:58.126,-0.029,0.008,0.999
2026/05/14 10:33:58.146,-0.028,0.008,0.999
2026/05/14 10:33:58.165,-0.025,0.005,1.0
2026/05/14 10:33:58.185,-0.029,0.007,0.999
2026/05/14 10:33:58.204,-0.029,0.009,1.004
2026/05/14 10:33:58.224,-0.03,0.004,1.002
2026/05/14 10:33:58.244,-0.027,0.009,1.001
2026/05/14 10:33:58.263,-0.024,0.008,1.002
2026/05/14 10:33:58.283,-0.025,0.002,1.004
2026/05/14 10:33:58.302,-0.025,0.008,1.0
2026/05/14 10:33:58.322,-0.028,0.007,1.0
2026/05/14 10:33:58.342,-0.03,0.006,0.997
2026/05/14 10:33:58.361,-0.025,0.012,1.002
2026/05/14 10:33:58.381,-0.03,0.013,1.0
2026/05/14 10:33:58.400,-0.028,0.008,1.0
2026/05/14 10:33:58.420,-0.03,0.007,1.001
2026/05/14 10:33:58.440,-0.025,0.007,0.998
2026/05/14 10:33:58.459,-0.024,0.008,0.999
2026/05/14 10:33:58.479,-0.016,0.007,1.003
2026/05/14 10:33:58.498,-0.022,0.006,1.001
2026/05/14 10:33:58.518,-0.023,0.008,1.002
2026/05/14 10:33:58.538,-0.023,0.01,1.002
2026/05/14 10:33:58.557,-0.026,0.009,1.001
2026/05/14 10:33:58.577,-0.028,0.008,0.997
2026/05/14 10:33:58.596,-0.028,0.006,1.003
2026/05/14 10:33:58.616,-0.033,0.018,1.003
2026/05/14 10:33:58.636,-0.028,0.01,1.033
2026/05/14 10:33:58.655,-0.021,0.011,1.013
2026/05/14 10:33:58.675,-0.02,0.007,0.999
2026/05/14 10:33:58.694,-0.024,-0.007,1.027
2026/05/14 10:33:58.714,-0.037,-0.014,0.999
2026/05/14 10:33:58.734,-0.034,0.001,1.005
2026/05/14 10:33:58.753,-0.026,0.011,0.986
2026/05/14 10:33:58.773,-0.029,0.021,0.994
2026/05/14 10:33:58.792,-0.028,0.017,1.02
2026/05/14 10:33:58.812,-0.034,0.015,0.986
2026/05/14 10:33:58.831,-0.026,0.013,0.992
2026/05/14 10:33:58.851,-0.029,0.004,1.007
2026/05/14 10:33:58.871,-0.026,-0.006,1.003
2026/05/14 10:33:58.890,-0.017,-0.007,0.999
2026/05/14 10:33:58.910,-0.016,0.002,0.999
2026/05/14 10:33:58.929,-0.012,0.008,0.999
2026/05/14 10:33:58.949,-0.012,0.013,1.01
2026/05/14 10:33:58.969,-0.014,0.011,1.008
2026/05/14 10:33:58.988,-0.024,0.005,0.99
2026/05/14 10:33:59.008,-0.029,0.004,0.998
2026/05/14 10:33:59.027,-0.036,-0.002,0.999
2026/05/14 10:33:59.047,-0.043,0.007,1.0
2026/05/14 10:33:59.067,-0.036,0.01,0.995
2026/05/14 10:33:59.086,-0.032,0.012,0.998
2026/05/14 10:33:59.106,-0.03,0.011,1.001
2026/05/14 10:33:59.125,-0.025,0.005,1.0
2026/05/14 10:33:59.145,-0.018,0.007,1.002
2026/05/14 10:33:59.165,-0.018,0.006,0.995
2026/05/14 10:33:59.184,-0.016,0.004,0.998
2026/05/14 10:33:59.204,-0.017,-0.001,1.005
2026/05/14 10:33:59.223,-0.014,0.006,1.002
2026/05/14 10:33:59.243,-0.021,0.004,1.003
2026/05/14 10:33:59.263,-0.023,0.006,1.003
2026/05/14 10:33:59.282,-0.032,0.009,0.998
2026/05/14 10:33:59.302,-0.034,0.013,0.997
2026/05/14 10:33:59.321,-0.035,0.011,0.995
2026/05/14 10:33:59.341,-0.035,0.006,1.0
2026/05/14 10:33:59.361,-0.03,0.003,0.999
2026/05/14 10:33:59.380,-0.023,0.003,0.998
2026/05/14 10:33:59.400,-0.019,0.008,0.999
2026/05/14 10:33:59.419,-0.017,0.004,1.0
2026/05/14 10:33:59.439,-0.015,0.003,1.004
2026/05/14 10:33:59.459,-0.019,0.005,0.999
2026/05/14 10:33:59.478,-0.021,0.003,1.003
2026/05/14 10:33:59.498,-0.025,0.004,1.001
2026/05/14 10:33:59.517,-0.033,0.01,1.004
2026/05/14 10:33:59.537,-0.029,0.004,1.003
2026/05/14 10:33:59.557,-0.03,0.012,0.996
2026/05/14 10:33:59.576,-0.036,0.01,0.997
2026/05/14 10:33:59.596,-0.03,0.004,0.999
2026/05/14 10:33:59.615,-0.03,0.003,1.001
2026/05/14 10:33:59.635,-0.021,0.0,0.998
2026/05/14 10:33:59.655,-0.02,0.005,1.003
2026/05/14 10:33:59.674,-0.02,0.006,1.004
2026/05/14 10:33:59.694,-0.021,0.008,1.001
2026/05/14 10:33:59.713,-0.027,0.011,1.001
2026/05/14 10:33:59.733,-0.029,0.007,1.001
2026/05/14 10:33:59.752,-0.029,0.008,1.002
2026/05/14 10:33:59.772,-0.027,0.003,0.999
2026/05/14 10:33:59.792,-0.028,0.005,0.999
2026/05/14 10:33:59.811,-0.026,0.01,1.0
2026/05/14 10:33:59.831,-0.03,0.005,0.998
2026/05/14 10:33:59.850,-0.028,0.006,1.0
2026/05/14 10:33:59.870,-0.024,0.005,0.999
2026/05/14 10:33:59.890,-0.022,0.008,1.003
2026/05/14 10:33:59.909,-0.025,0.004,1.002
2026/05/14 10:33:59.929,-0.023,0.004,1.001
2026/05/14 10:33:59.948,-0.027,0.003,0.998
2026/05/14 10:33:59.968,-0.025,0.009,1.003
2026/05/14 10:33:59.988,-0.029,0.007,1.002
2026/05/14 10:34:00.007,-0.024,0.012,1.0
2026/05/14 10:34:00.027,-0.027,0.007,0.993
2026/05/14 10:34:00.046,-0.028,0.005,0.998
2026/05/14 10:34:00.066,-0.028,0.002,1.0
2026/05/14 10:34:00.086,-0.025,0.001,1.002
2026/05/14 10:34:00.105,-0.026,0.009,1.001
2026/05/14 10:34:00.125,-0.023,0.01,1.003
2026/05/14 10:34:00.144,-0.021,0.007,1.001
2026/05/14 10:34:00.164,-0.022,0.004,0.999
2026/05/14 10:34:00.184,-0.026,0.004,0.997
2026/05/14 10:34:00.203,-0.029,0.001,1.0
2026/05/14 10:34:00.223,-0.023,0.003,1.001
2026/05/14 10:34:00.242,-0.026,0.006,1.001
2026/05/14 10:34:00.262,-0.026,0.007,1.004
2026/05/14 10:34:00.282,-0.025,0.008,1.001
2026/05/14 10:34:00.301,-0.027,0.01,1.002
2026/05/14 10:34:00.321,-0.029,0.006,1.003
2026/05/14 10:34:00.340,-0.029,0.006,1.005
2026/05/14 10:34:00.360,-0.026,0.007,0.999
2026/05/14 10:34:00.380,-0.024,0.008,0.997
2026/05/14 10:34:00.399,-0.025,0.008,0.999
2026/05/14 10:34:00.419,-0.022,0.007,1.0
2026/05/14 10:34:00.438,-0.023,0.003,1.001
2026/05/14 10:34:00.458,-0.026,0.006,0.997
2026/05/14 10:34:00.478,-0.029,0.007,0.998
2026/05/14 10:34:00.497,-0.028,0.008,1.006
2026/05/14 10:34:00.517,-0.022,0.007,1.0
2026/05/14 10:34:00.536,-0.025,0.004,0.993
2026/05/14 10:34:00.556,-0.025,0.003,0.999
2026/05/14 10:34:00.575,-0.024,0.007,1.003
2026/05/14 10:34:00.595,-0.026,0.002,1.005
2026/05/14 10:34:00.615,-0.02,0.003,1.002
2026/05/14 10:34:00.634,-0.019,0.005,0.998
2026/05/14 10:34:00.654,-0.022,0.003,0.997
2026/05/14 10:34:00.673,-0.029,0.009,0.994
2026/05/14 10:34:00.693,-0.032,0.014,1.02
2026/05/14 10:34:00.713,-0.032,0.018,1.024
2026/05/14 10:34:00.732,-0.033,0.003,1.001
2026/05/14 10:34:00.752,-0.034,0.001,0.997
2026/05/14 10:34:00.771,-0.032,0.004,1.001
2026/05/14 10:34:00.791,-0.021,0.007,0.993
2026/05/14 10:34:00.811,-0.017,0.005,1.007
2026/05/14 10:34:00.830,-0.013,0.011,1.005
2026/05/14 10:34:00.850,-0.018,0.006,1.002
2026/05/14 10:34:00.869,-0.015,0.004,1.0
2026/05/14 10:34:00.889,-0.024,-0.002,0.998
2026/05/14 10:34:00.909,-0.025,0.004,1.006
2026/05/14 10:34:00.928,-0.033,0.008,0.995
2026/05/14 10:34:00.948,-0.037,0.009,1.004
2026/05/14 10:34:00.967,-0.029,0.004,1.008
2026/05/14 10:34:00.987,-0.036,-0.001,0.99
2026/05/14 10:34:01.007,-0.025,0.004,0.988
2026/05/14 10:34:01.026,-0.029,-0.002,1.001
2026/05/14 10:34:01.046,-0.024,0.001,1.004
2026/05/14 10:34:01.065,-0.023,0.002,0.993
2026/05/14 10:34:01.085,-0.025,-0.042,0.898
2026/05/14 10:34:01.105,-0.017,0.008,0.983
2026/05/14 10:34:01.124,-0.015,0.012,1.017
2026/05/14 10:34:01.144,-0.028,0.009,1.008
2026/05/14 10:34:01.163,-0.024,0.008,1.003
2026/05/14 10:34:01.183,-0.036,0.008,1.0
2026/05/14 10:34:01.203,-0.034,0.006,1.004
2026/05/14 10:34:01.222,-0.033,0.005,0.992
2026/05/14 10:34:01.242,-0.024,0.008,1.001
2026/05/14 10:34:01.261,-0.019,-0.002,1.03
2026/05/14 10:34:01.281,-0.014,0.004,0.983
2026/05/14 10:34:01.301,-0.014,0.006,1.006
2026/05/14 10:34:01.320,-0.015,0.019,0.965
2026/05/14 10:34:01.340,-0.026,-0.002,0.92
2026/05/14 10:34:01.359,-0.032,0.001,1.001
2026/05/14 10:34:01.379,-0.032,0.004,0.986
2026/05/14 10:34:01.398,-0.031,0.011,0.995
2026/05/14 10:34:01.418,-0.034,0.011,1.006
2026/05/14 10:34:01.438,-0.03,0.011,1.0
2026/05/14 10:34:01.457,-0.027,0.013,0.999
2026/05/14 10:34:01.477,-0.025,0.007,1.003
2026/05/14 10:34:01.496,-0.023,-0.002,0.96
2026/05/14 10:34:01.516,-0.018,0.015,1.075
2026/05/14 10:34:01.536,-0.024,-0.001,0.974
2026/05/14 10:34:01.555,-0.004,0.02,1.016
2026/05/14 10:34:01.575,-0.02,0.004,1.017
2026/05/14 10:34:01.594,-0.023,-0.001,1.009
2026/05/14 10:34:01.614,-0.031,0.002,1.012
2026/05/14 10:34:01.634,-0.057,-0.017,0.933
2026/05/14 10:34:01.653,-0.036,0.021,1.011
2026/05/14 10:34:01.673,-0.037,0.021,0.996
2026/05/14 10:34:01.692,-0.032,0.025,1.011
2026/05/14 10:34:01.712,-0.03,0.01,1.0
2026/05/14 10:34:01.732,-0.022,0.003,0.996
2026/05/14 10:34:01.751,-0.017,0.0,0.995
2026/05/14 10:34:01.771,-0.017,-0.001,1.005
2026/05/14 10:34:01.790,-0.018,0.003,1.006
2026/05/14 10:34:01.810,-0.016,0.004,0.999
2026/05/14 10:34:01.830,-0.022,0.009,0.996
2026/05/14 10:34:01.849,-0.028,0.008,1.003
2026/05/14 10:34:01.869,-0.032,0.01,0.998
2026/05/14 10:34:01.888,-0.036,0.013,0.996
2026/05/14 10:34:01.908,-0.037,0.014,0.996
2026/05/14 10:34:01.928,-0.031,0.004,1.004
2026/05/14 10:34:01.947,-0.03,0.003,1.001
2026/05/14 10:34:01.967,-0.026,0.007,0.996
2026/05/14 10:34:01.986,-0.02,0.004,1.005
2026/05/14 10:34:02.006,-0.021,0.002,1.005
2026/05/14 10:34:02.026,-0.018,0.004,1.003
2026/05/14 10:34:02.045,-0.015,0.008,0.997
2026/05/14 10:34:02.065,-0.024,0.002,1.002
2026/05/14 10:34:02.084,-0.027,0.002,1.001
2026/05/14 10:34:02.104,-0.029,0.008,0.999
2026/05/14 10:34:02.124,-0.032,0.005,0.997
2026/05/14 10:34:02.143,-0.037,0.009,0.998
2026/05/14 10:34:02.163,-0.037,0.012,1.001
2026/05/14 10:34:02.182,-0.028,0.006,0.995
2026/05/14 10:34:02.202,-0.023,0.003,0.999
2026/05/14 10:34:02.221,-0.022,0.004,1.0
2026/05/14 10:34:02.241,-0.02,0.006,1.006
2026/05/14 10:34:02.261,-0.013,0.003,0.998
2026/05/14 10:34:02.280,-0.018,0.004,0.998
2026/05/14 10:34:02.300,-0.016,0.006,1.001
2026/05/14 10:34:02.319,-0.02,0.007,1.003
2026/05/14 10:34:02.339,-0.024,0.01,0.996
2026/05/14 10:34:02.359,-0.032,0.011,1.0
2026/05/14 10:34:02.378,-0.033,0.01,1.003
2026/05/14 10:34:02.398,-0.032,0.008,0.996
2026/05/14 10:34:02.417,-0.031,0.007,0.993
2026/05/14 10:34:02.437,-0.027,0.003,0.997
2026/05/14 10:34:02.457,-0.022,0.006,1.001
2026/05/14 10:34:02.476,-0.024,0.007,0.999
2026/05/14 10:34:02.496,-0.021,0.004,0.998
2026/05/14 10:34:02.515,-0.02,0.002,1.0
2026/05/14 10:34:02.535,-0.021,0.001,0.999
2026/05/14 10:34:02.555,-0.025,0.003,0.996
2026/05/14 10:34:02.574,-0.029,0.007,0.998
2026/05/14 10:34:02.594,-0.029,0.007,1.0
2026/05/14 10:34:02.613,-0.029,0.011,1.0
2026/05/14 10:34:02.633,-0.027,0.012,0.998
2026/05/14 10:34:02.653,-0.031,0.009,1.001
2026/05/14 10:34:02.672,-0.027,0.009,1.003
2026/05/14 10:34:02.692,-0.025,0.009,1.001
2026/05/14 10:34:02.711,-0.022,0.008,1.001
2026/05/14 10:34:02.731,-0.021,0.007,1.003
2026/05/14 10:34:02.751,-0.019,0.005,1.0
2026/05/14 10:34:02.770,-0.02,0.005,0.996
2026/05/14 10:34:02.790,-0.023,0.007,0.999
2026/05/14 10:34:02.809,-0.024,0.01,1.003
2026/05/14 10:34:02.829,-0.027,0.011,1.001
2026/05/14 10:34:02.849,-0.028,0.009,0.999
2026/05/14 10:34:02.868,-0.033,0.006,1.0
2026/05/14 10:34:02.888,-0.029,0.007,0.999
2026/05/14 10:34:02.907,-0.03,0.007,1.002
2026/05/14 10:34:02.927,-0.021,0.009,0.996
2026/05/14 10:34:02.947,-0.021,0.006,0.999
2026/05/14 10:34:02.966,-0.024,0.007,0.999
2026/05/14 10:34:02.986,-0.021,0.003,1.0
2026/05/14 10:34:03.005,-0.022,0.005,1.001
2026/05/14 10:34:03.025,-0.022,0.006,1.0
2026/05/14 10:34:03.045,-0.024,0.009,0.997
2026/05/14 10:34:03.064,-0.03,0.01,0.998
2026/05/14 10:34:03.084,-0.027,0.009,1.0
2026/05/14 10:34:03.103,-0.03,0.006,1.0
2026/05/14 10:34:03.123,-0.031,0.011,1.002
2026/05/14 10:34:03.142,-0.026,0.01,1.0
2026/05/14 10:34:03.162,-0.03,0.008,0.998
2026/05/14 10:34:03.182,-0.023,0.007,1.002
2026/05/14 10:34:03.201,-0.021,0.007,0.996
2026/05/14 10:34:03.221,-0.018,0.002,1.002
2026/05/14 10:34:03.240,-0.023,0.005,0.999
2026/05/14 10:34:03.260,-0.024,0.005,1.004
2026/05/14 10:34:03.280,-0.023,0.008,0.998
2026/05/14 10:34:03.299,-0.023,0.007,0.998
2026/05/14 10:34:03.319,-0.026,0.007,1.003
2026/05/14 10:34:03.338,-0.025,0.009,0.996
2026/05/14 10:34:03.358,-0.031,0.009,0.998
2026/05/14 10:34:03.378,-0.027,0.004,1.0
2026/05/14 10:34:03.397,-0.028,0.008,1.0
2026/05/14 10:34:03.417,-0.026,0.005,0.997
2026/05/14 10:34:03.436,-0.024,0.006,0.999
2026/05/14 10:34:03.456,-0.02,0.008,1.001
2026/05/14 10:34:03.476,-0.024,0.005,1.003
2026/05/14 10:34:03.495,-0.024,0.007,1.0
2026/05/14 10:34:03.515,-0.026,0.006,1.0
2026/05/14 10:34:03.534,-0.026,0.009,1.004
2026/05/14 10:34:03.554,-0.028,0.007,1.005
2026/05/14 10:34:03.574,-0.029,0.008,1.002
2026/05/14 10:34:03.593,-0.03,0.009,1.0
2026/05/14 10:34:03.613,-0.034,0.008,0.995
2026/05/14 10:34:03.632,-0.027,0.007,0.997
2026/05/14 10:34:03.652,-0.029,0.008,1.0
2026/05/14 10:34:03.672,-0.024,0.005,1.0
2026/05/14 10:34:03.691,-0.024,0.004,0.998
2026/05/14 10:34:03.711,-0.021,0.004,1.001
2026/05/14 10:34:03.730,-0.023,0.002,1.003
2026/05/14 10:34:03.750,-0.023,0.011,0.996
2026/05/14 10:34:03.770,-0.025,0.009,0.999
2026/05/14 10:34:03.789,-0.029,0.007,0.999
2026/05/14 10:34:03.809,-0.028,0.009,1.001
2026/05/14 10:34:03.828,-0.028,0.01,1.001
2026/05/14 10:34:03.848,-0.028,0.012,1.0
2026/05/14 10:34:03.868,-0.03,0.009,1.001
2026/05/14 10:34:03.887,-0.028,0.008,0.998
2026/05/14 10:34:03.907,-0.026,0.007,0.999
2026/05/14 10:34:03.926,-0.024,0.006,0.997
2026/05/14 10:34:03.946,-0.023,0.006,0.998
2026/05/14 10:34:03.966,-0.021,0.002,1.004
2026/05/14 10:34:03.985,-0.025,0.005,1.001
2026/05/14 10:34:04.005,-0.027,0.005,0.999
2026/05/14 10:34:04.024,-0.023,0.007,0.997
2026/05/14 10:34:04.044,-0.024,0.007,1.007
2026/05/14 10:34:04.064,-0.025,0.009,1.0
2026/05/14 10:34:04.083,-0.026,0.011,0.995
2026/05/14 10:34:04.103,-0.029,0.004,1.005
2026/05/14 10:34:04.122,-0.024,0.005,1.002
2026/05/14 10:34:04.142,-0.027,0.012,1.0
2026/05/14 10:34:04.161,-0.024,0.009,1.002
2026/05/14 10:34:04.181,-0.024,0.01,0.998
2026/05/14 10:34:04.201,-0.026,0.003,0.999
2026/05/14 10:34:04.220,-0.022,0.008,1.002
2026/05/14 10:34:04.240,-0.026,0.004,0.997
2026/05/14 10:34:04.259,-0.028,0.008,1.0
2026/05/14 10:34:04.279,-0.027,0.008,1.0
2026/05/14 10:34:04.299,-0.028,0.006,1.004
2026/05/14 10:34:04.318,-0.027,0.005,0.999
2026/05/14 10:34:04.338,-0.027,0.006,0.997
2026/05/14 10:34:04.357,-0.028,0.005,1.0
2026/05/14 10:34:04.377,-0.027,0.008,1.0
2026/05/14 10:34:04.397,-0.026,0.005,0.998
2026/05/14 10:34:04.416,-0.02,0.004,1.005
2026/05/14 10:34:04.436,-0.024,0.005,1.0
2026/05/14 10:34:04.455,-0.025,0.005,1.001
2026/05/14 10:34:04.475,-0.024,0.009,1.004
2026/05/14 10:34:04.495,-0.024,0.004,1.0
2026/05/14 10:34:04.514,-0.024,0.004,0.999
2026/05/14 10:34:04.534,-0.029,0.005,0.999
2026/05/14 10:34:04.553,-0.029,0.007,1.001
2026/05/14 10:34:04.573,-0.03,0.006,1.004
2026/05/14 10:34:04.593,-0.026,0.006,0.997
2026/05/14 10:34:04.612,-0.028,0.008,1.003
2026/05/14 10:34:04.632,-0.027,0.005,0.998
2026/05/14 10:34:04.651,-0.025,0.008,0.998
2026/05/14 10:34:04.671,-0.022,0.007,0.999
2026/05/14 10:34:04.691,-0.022,0.006,0.999
2026/05/14 10:34:04.710,-0.024,0.007,0.997
2026/05/14 10:34:04.730,-0.028,0.01,0.999
2026/05/14 10:34:04.749,-0.025,0.009,0.997
2026/05/14 10:34:04.769,-0.027,0.007,0.998
2026/05/14 10:34:04.789,-0.028,0.008,1.003
2026/05/14 10:34:04.808,-0.027,0.005,0.998
2026/05/14 10:34:04.828,-0.026,0.007,1.003
2026/05/14 10:34:04.847,-0.024,0.008,1.001
2026/05/14 10:34:04.867,-0.028,0.007,1.003
2026/05/14 10:34:04.887,-0.025,0.006,1.004
2026/05/14 10:34:04.906,-0.023,0.011,0.999
2026/05/14 10:34:04.926,-0.027,0.004,1.001
2026/05/14 10:34:04.945,-0.023,0.005,1.003
2026/05/14 10:34:04.965,-0.024,0.005,0.997
2026/05/14 10:34:04.985,-0.027,0.007,0.998
2026/05/14 10:34:05.004,-0.024,0.006,1.0
2026/05/14 10:34:05.024,-0.028,0.006,0.999
2026/05/14 10:34:05.043,-0.028,0.006,1.0
2026/05/14 10:34:05.063,-0.029,0.006,0.997
2026/05/14 10:34:05.083,-0.028,0.005,1.0
2026/05/14 10:34:05.102,-0.024,0.006,1.001
2026/05/14 10:34:05.122,-0.021,0.007,0.998
2026/05/14 10:34:05.141,-0.025,0.01,1.0
2026/05/14 10:34:05.161,-0.024,0.007,0.999
2026/05/14 10:34:05.180,-0.024,0.01,1.003
2026/05/14 10:34:05.200,-0.023,0.005,1.0
2026/05/14 10:34:05.220,-0.026,0.009,0.999
2026/05/14 10:34:05.239,-0.03,0.011,1.004
2026/05/14 10:34:05.259,-0.027,0.005,0.998
2026/05/14 10:34:05.278,-0.026,0.01,0.994
2026/05/14 10:34:05.298,-0.024,0.009,1.0
2026/05/14 10:34:05.318,-0.027,0.008,0.997
2026/05/14 10:34:05.337,-0.027,0.006,0.996
2026/05/14 10:34:05.357,-0.023,0.005,0.997
2026/05/14 10:34:05.376,-0.023,0.005,0.998
2026/05/14 10:34:05.396,-0.024,0.007,1.002
2026/05/14 10:34:05.416,-0.023,0.007,0.998
2026/05/14 10:34:05.435,-0.027,0.004,1.0
2026/05/14 10:34:05.455,-0.025,0.006,0.999
2026/05/14 10:34:05.474,-0.022,0.007,0.999
2026/05/14 10:34:05.494,-0.024,0.006,0.997
2026/05/14 10:34:05.514,-0.023,0.005,0.998
2026/05/14 10:34:05.533,-0.027,0.007,1.001
2026/05/14 10:34:05.553,-0.025,0.01,0.999
2026/05/14 10:34:05.572,-0.024,0.005,1.004
2026/05/14 10:34:05.592,-0.023,0.005,1.003
2026/05/14 10:34:05.612,-0.026,0.007,1.003
2026/05/14 10:34:05.631,-0.027,0.006,1.0
2026/05/14 10:34:05.651,-0.024,0.004,0.998
2026/05/14 10:34:05.670,-0.022,0.005,0.996
2026/05/14 10:34:05.690,-0.022,0.006,0.997
2026/05/14 10:34:05.710,-0.024,0.011,1.0
2026/05/14 10:34:05.729,-0.028,0.007,1.001
2026/05/14 10:34:05.749,-0.024,0.006,1.001
2026/05/14 10:34:05.768,-0.022,0.008,1.003
2026/05/14 10:34:05.788,-0.025,0.009,1.0
2026/05/14 10:34:05.808,-0.028,0.006,0.998
2026/05/14 10:34:05.827,-0.025,0.007,1.0
2026/05/14 10:34:05.847,-0.023,0.009,0.997
2026/05/14 10:34:05.866,-0.023,0.006,1.0
2026/05/14 10:34:05.886,-0.025,0.003,0.997
2026/05/14 10:34:05.906,-0.022,0.008,1.0
2026/05/14 10:34:05.925,-0.024,0.007,1.004
2026/05/14 10:34:05.945,-0.029,0.006,0.997
2026/05/14 10:34:05.964,-0.026,0.009,0.998
2026/05/14 10:34:05.984,-0.027,0.008,0.997
2026/05/14 10:34:06.004,-0.026,0.004,0.999
2026/05/14 10:34:06.023,-0.028,0.007,0.996
2026/05/14 10:34:06.043,-0.023,0.007,1.001
2026/05/14 10:34:06.062,-0.022,0.01,0.999
2026/05/14 10:34:06.082,-0.027,0.006,1.0
2026/05/14 10:34:06.102,-0.025,0.005,1.001
2026/05/14 10:34:06.121,-0.025,0.004,1.002
2026/05/14 10:34:06.141,-0.026,0.007,0.999
2026/05/14 10:34:06.160,-0.025,0.005,0.999
2026/05/14 10:34:06.180,-0.028,0.005,0.999
2026/05/14 10:34:06.199,-0.024,0.01,1.0
2026/05/14 10:34:06.219,-0.026,0.004,0.999
2026/05/14 10:34:06.239,-0.027,0.008,1.001
2026/05/14 10:34:06.258,-0.024,0.006,0.996
2026/05/14 10:34:06.278,-0.029,0.01,0.998
2026/05/14 10:34:06.297,-0.025,0.005,0.997
2026/05/14 10:34:06.317,-0.022,0.009,1.004
2026/05/14 10:34:06.337,-0.027,0.002,1.0
2026/05/14 10:34:06.356,-0.025,0.011,1.0
2026/05/14 10:34:06.376,-0.026,0.007,1.0
2026/05/14 10:34:06.395,-0.027,0.007,1.0
2026/05/14 10:34:06.415,-0.025,0.006,0.997
2026/05/14 10:34:06.435,-0.025,0.007,1.006
2026/05/14 10:34:06.454,-0.028,0.005,1.002
2026/05/14 10:34:06.474,-0.031,0.004,0.996
2026/05/14 10:34:06.493,-0.026,0.007,0.994
2026/05/14 10:34:06.513,-0.026,0.006,0.997
2026/05/14 10:34:06.533,-0.026,0.006,1.001
2026/05/14 10:34:06.552,-0.021,0.012,0.998
2026/05/14 10:34:06.572,-0.025,0.004,1.001
2026/05/14 10:34:06.591,-0.024,0.008,1.001
2026/05/14 10:34:06.611,-0.026,0.009,1.002
2026/05/14 10:34:06.631,-0.026,0.008,0.998
2026/05/14 10:34:06.650,-0.026,0.007,0.993
2026/05/14 10:34:06.670,-0.027,0.007,0.998
2026/05/14 10:34:06.689,-0.023,0.006,0.997
2026/05/14 10:34:06.709,-0.025,0.005,0.998
2026/05/14 10:34:06.729,-0.025,0.008,0.993
2026/05/14 10:34:06.748,-0.026,0.005,1.004
2026/05/14 10:34:06.768,-0.025,0.01,1.0
2026/05/14 10:34:06.787,-0.027,0.008,0.996
2026/05/14 10:34:06.807,-0.024,0.005,0.998
2026/05/14 10:34:06.827,-0.029,0.007,1.001
2026/05/14 10:34:06.846,-0.026,0.009,1.0
2026/05/14 10:34:06.866,-0.024,0.009,0.997
2026/05/14 10:34:06.885,-0.025,0.009,1.004
2026/05/14 10:34:06.905,-0.024,0.008,1.002
2026/05/14 10:34:06.925,-0.023,0.008,0.998
2026/05/14 10:34:06.944,-0.025,0.007,1.002
2026/05/14 10:34:06.964,-0.024,0.006,1.005
2026/05/14 10:34:06.983,-0.024,0.008,0.999
2026/05/14 10:34:07.003,-0.027,0.008,0.996
2026/05/14 10:34:07.023,-0.025,0.004,1.001
2026/05/14 10:34:07.042,-0.025,0.005,1.003
2026/05/14 10:34:07.062,-0.026,0.006,0.996
2026/05/14 10:34:07.081,-0.023,0.009,0.999
2026/05/14 10:34:07.101,-0.025,0.008,1.0
2026/05/14 10:34:07.121,-0.025,0.005,1.001
2026/05/14 10:34:07.140,-0.024,0.008,0.999
2026/05/14 10:34:07.160,-0.021,0.006,1.004
2026/05/14 10:34:07.179,-0.027,0.006,1.004
2026/05/14 10:34:07.199,-0.026,0.007,0.997
2026/05/14 10:34:07.219,-0.025,0.008,0.994
2026/05/14 10:34:07.238,-0.027,0.006,1.003
2026/05/14 10:34:07.258,-0.023,0.006,1.002
2026/05/14 10:34:07.277,-0.026,0.009,0.999
2026/05/14 10:34:07.297,-0.029,0.004,0.998
2026/05/14 10:34:07.316,-0.026,0.01,1.0
2026/05/14 10:34:07.336,-0.029,0.004,1.0
2026/05/14 10:34:07.356,-0.026,0.008,0.998
2026/05/14 10:34:07.375,-0.028,0.002,0.998
2026/05/14 10:34:07.395,-0.025,0.005,1.001
2026/05/14 10:34:07.414,-0.023,0.009,1.001
2026/05/14 10:34:07.434,-0.022,0.012,1.005
2026/05/14 10:34:07.454,-0.027,0.006,0.99
2026/05/14 10:34:07.473,-0.027,0.003,0.999
2026/05/14 10:34:07.493,-0.03,0.001,1.013
2026/05/14 10:34:07.512,-0.025,0.01,0.996
2026/05/14 10:34:07.532,-0.023,0.017,0.991
2026/05/14 10:34:07.552,-0.026,0.006,1.0
2026/05/14 10:34:07.571,-0.024,0.003,1.004
2026/05/14 10:34:07.591,-0.027,0.009,0.987
2026/05/14 10:34:07.610,-0.021,0.003,0.995
2026/05/14 10:34:07.630,-0.027,0.008,1.01
2026/05/14 10:34:07.650,-0.026,0.013,1.003
2026/05/14 10:34:07.669,-0.027,0.013,1.0
2026/05/14 10:34:07.689,-0.025,0.003,0.999
2026/05/14 10:34:07.708,-0.03,0.004,1.004
2026/05/14 10:34:07.728,-0.03,0.011,0.993
2026/05/14 10:34:07.748,-0.03,0.011,0.997
2026/05/14 10:34:07.767,-0.031,0.009,0.999
2026/05/14 10:34:07.787,-0.027,0.008,1.003
2026/05/14 10:34:07.806,-0.025,0.003,0.995
2026/05/14 10:34:07.826,-0.022,0.004,0.996
2026/05/14 10:34:07.846,-0.019,0.009,1.003
2026/05/14 10:34:07.865,-0.023,0.008,1.001
2026/05/14 10:34:07.885,-0.023,0.011,0.997
2026/05/14 10:34:07.904,-0.025,0.005,1.0
2026/05/14 10:34:07.924,-0.026,0.002,1.002
2026/05/14 10:34:07.944,-0.027,0.003,0.999
2026/05/14 10:34:07.963,-0.027,0.01,0.996
2026/05/14 10:34:07.983,-0.029,0.006,1.004
2026/05/14 10:34:08.002,-0.023,0.012,0.999
2026/05/14 10:34:08.022,-0.026,0.007,0.984
2026/05/14 10:34:08.042,-0.024,0.003,0.996
2026/05/14 10:34:08.061,-0.03,-0.003,1.018
2026/05/14 10:34:08.081,-0.027,0.007,0.999
2026/05/14 10:34:08.100,-0.022,0.019,0.99
2026/05/14 10:34:08.120,-0.024,0.011,1.003
2026/05/14 10:34:08.140,-0.021,0.003,1.006
2026/05/14 10:34:08.159,-0.024,0.004,0.988
2026/05/14 10:34:08.179,-0.019,0.0,0.994
2026/05/14 10:34:08.198,-0.025,0.001,1.009
2026/05/14 10:34:08.218,-0.027,0.008,1.005
2026/05/14 10:34:08.238,-0.024,0.011,0.999
2026/05/14 10:34:08.257,-0.026,0.007,0.999
2026/05/14 10:34:08.277,-0.024,0.006,1.002
2026/05/14 10:34:08.296,-0.026,0.002,1.0
2026/05/14 10:34:08.316,-0.023,0.01,0.989
2026/05/14 10:34:08.336,-0.026,0.009,1.002
2026/05/14 10:34:08.355,-0.024,0.005,1.007
2026/05/14 10:34:08.375,-0.021,0.007,0.998
2026/05/14 10:34:08.394,-0.022,0.007,1.0
2026/05/14 10:34:08.414,-0.026,0.005,1.006
2026/05/14 10:34:08.433,-0.022,0.005,1.005
2026/05/14 10:34:08.453,-0.025,0.012,0.992
2026/05/14 10:34:08.473,-0.026,0.007,0.996
2026/05/14 10:34:08.492,-0.029,0.004,1.003
2026/05/14 10:34:08.512,-0.024,0.006,0.996
2026/05/14 10:34:08.531,-0.027,0.005,0.997
2026/05/14 10:34:08.551,-0.028,0.002,1.001
2026/05/14 10:34:08.571,-0.027,0.007,1.006
2026/05/14 10:34:08.590,-0.027,0.01,1.0
2026/05/14 10:34:08.610,-0.026,0.012,1.0
2026/05/14 10:34:08.629,-0.031,0.007,1.003
2026/05/14 10:34:08.649,-0.024,0.006,1.003
2026/05/14 10:34:08.669,-0.022,0.007,0.994
2026/05/14 10:34:08.688,-0.02,0.008,0.997
2026/05/14 10:34:08.708,-0.022,0.008,1.006
2026/05/14 10:34:08.727,-0.019,0.007,1.0
2026/05/14 10:34:08.747,-0.022,0.013,0.998
2026/05/14 10:34:08.767,-0.024,0.007,1.002
2026/05/14 10:34:08.786,-0.028,0.004,1.003
2026/05/14 10:34:08.806,-0.033,0.0,1.001
2026/05/14 10:34:08.825,-0.029,0.007,0.994
2026/05/14 10:34:08.845,-0.031,0.008,1.003
2026/05/14 10:34:08.865,-0.025,0.008,1.008
2026/05/14 10:34:08.884,-0.027,0.014,1.0
2026/05/14 10:34:08.904,-0.025,0.014,0.992
2026/05/14 10:34:08.923,-0.025,0.0,1.007
2026/05/14 10:34:08.943,-0.025,0.0,1.002
2026/05/14 10:34:08.963,-0.021,0.005,0.998
2026/05/14 10:34:08.982,-0.023,0.003,0.997
2026/05/14 10:34:09.002,-0.022,0.01,1.003
2026/05/14 10:34:09.021,-0.021,0.011,1.001
2026/05/14 10:34:09.041,-0.027,0.011,0.974
2026/05/14 10:34:09.061,-0.031,0.001,0.998
2026/05/14 10:34:09.080,-0.036,0.0,1.018
2026/05/14 10:34:09.100,-0.031,0.011,0.991
2026/05/14 10:34:09.119,-0.024,0.018,0.994
2026/05/14 10:34:09.139,-0.027,0.01,1.009
2026/05/14 10:34:09.159,-0.023,0.004,1.008
2026/05/14 10:34:09.178,-0.019,0.003,0.984
2026/05/14 10:34:09.198,-0.02,0.002,0.997
2026/05/14 10:34:09.217,-0.024,0.002,1.007
2026/05/14 10:34:09.237,-0.021,0.01,0.999
2026/05/14 10:34:09.257,-0.022,0.014,0.993
2026/05/14 10:34:09.276,-0.025,0.009,1.003
2026/05/14 10:34:09.296,-0.03,0.009,1.008
2026/05/14 10:34:09.315,-0.027,0.005,0.992
2026/05/14 10:34:09.335,-0.029,0.006,0.991
2026/05/14 10:34:09.355,-0.029,0.005,1.003
2026/05/14 10:34:09.374,-0.025,0.007,1.003
2026/05/14 10:34:09.394,-0.021,0.01,0.99
2026/05/14 10:34:09.413,-0.02,0.012,1.0
2026/05/14 10:34:09.433,-0.025,0.006,1.008
2026/05/14 10:34:09.453,-0.026,0.006,1.002
2026/05/14 10:34:09.472,-0.023,0.008,0.993
2026/05/14 10:34:09.492,-0.025,0.002,1.004
2026/05/14 10:34:09.511,-0.024,0.004,1.004
2026/05/14 10:34:09.531,-0.028,0.009,0.998
2026/05/14 10:34:09.550,-0.026,0.013,0.99
2026/05/14 10:34:09.570,-0.028,0.007,1.007
2026/05/14 10:34:09.590,-0.027,0.007,1.004
2026/05/14 10:34:09.609,-0.029,0.004,0.983
2026/05/14 10:34:09.629,-0.031,0.004,0.999
2026/05/14 10:34:09.648,-0.028,-0.004,1.008
2026/05/14 10:34:09.668,-0.022,0.007,0.997
2026/05/14 10:34:09.688,-0.024,0.017,0.996
2026/05/14 10:34:09.707,-0.023,0.009,1.009
2026/05/14 10:34:09.727,-0.023,0.007,1.004
2026/05/14 10:34:09.746,-0.022,0.006,0.993
2026/05/14 10:34:09.766,-0.025,0.002,0.994
2026/05/14 10:34:09.786,-0.026,0.005,1.008
2026/05/14 10:34:09.805,-0.024,0.013,0.997
2026/05/14 10:34:09.825,-0.029,0.01,0.991
2026/05/14 10:34:09.844,-0.031,0.004,1.002
2026/05/14 10:34:09.864,-0.03,0.005,1.006
2026/05/14 10:34:09.884,-0.026,0.01,1.001
2026/05/14 10:34:09.903,-0.023,0.01,0.992
2026/05/14 10:34:09.923,-0.026,0.007,1.003
2026/05/14 10:34:09.942,-0.025,0.005,1.007
2026/05/14 10:34:09.962,-0.023,0.006,0.996
2026/05/14 10:34:09.982,-0.023,0.004,0.992
2026/05/14 10:34:10.001,-0.023,0.005,1.005
2026/05/14 10:34:10.021,-0.023,0.006,1.005
2026/05/14 10:34:10.040,-0.02,0.013,1.004
2026/05/14 10:34:10.060,-0.026,0.009,0.994
2026/05/14 10:34:10.080,-0.03,0.003,0.996
2026/05/14 10:34:10.099,-0.034,0.001,1.002
2026/05/14 10:34:10.119,-0.03,0.009,0.992
2026/05/14 10:34:10.138,-0.026,0.01,0.995
2026/05/14 10:34:10.158,-0.026,0.01,1.006
2026/05/14 10:34:10.178,-0.025,0.008,1.003
2026/05/14 10:34:10.197,-0.021,0.008,0.993
2026/05/14 10:34:10.217,-0.025,0.001,1.001
2026/05/14 10:34:10.236,-0.025,-0.001,1.003
2026/05/14 10:34:10.256,-0.025,0.009,1.006
2026/05/14 10:34:10.276,-0.022,0.015,0.999
2026/05/14 10:34:10.295,-0.025,0.012,0.998
2026/05/14 10:34:10.315,-0.027,0.002,1.001
2026/05/14 10:34:10.334,-0.031,0.0,0.996
2026/05/14 10:34:10.354,-0.031,0.002,0.99
2026/05/14 10:34:10.374,-0.031,0.011,0.998
2026/05/14 10:34:10.393,-0.028,0.012,1.007
2026/05/14 10:34:10.413,-0.021,0.014,1.003
2026/05/14 10:34:10.432,-0.024,0.009,0.998
2026/05/14 10:34:10.452,-0.02,0.002,1.0
2026/05/14 10:34:10.472,-0.024,0.003,1.003
2026/05/14 10:34:10.491,-0.023,0.004,0.998
2026/05/14 10:34:10.511,-0.019,0.011,1.002
2026/05/14 10:34:10.530,-0.026,0.007,0.998
2026/05/14 10:34:10.550,-0.028,0.003,1.006
2026/05/14 10:34:10.570,-0.031,0.004,1.007
2026/05/14 10:34:10.589,-0.029,0.012,1.0
2026/05/14 10:34:10.609,-0.025,0.012,0.999
2026/05/14 10:34:10.628,-0.026,0.012,1.005
2026/05/14 10:34:10.648,-0.023,0.005,1.003
2026/05/14 10:34:10.667,-0.023,0.009,0.988
2026/05/14 10:34:10.687,-0.022,-0.004,0.998
2026/05/14 10:34:10.707,-0.026,-0.002,1.004
2026/05/14 10:34:10.726,-0.025,0.006,0.998
2026/05/14 10:34:10.746,-0.022,0.014,0.997
2026/05/14 10:34:10.765,-0.028,0.009,1.005
2026/05/14 10:34:10.785,-0.026,0.011,1.007
2026/05/14 10:34:10.805,-0.026,0.009,0.998
2026/05/14 10:34:10.824,-0.027,0.006,0.997
2026/05/14 10:34:10.844,-0.027,0.0,0.996
2026/05/14 10:34:10.863,-0.028,0.002,1.004
2026/05/14 10:34:10.883,-0.025,0.004,0.997
2026/05/14 10:34:10.903,-0.023,0.013,1.001
2026/05/14 10:34:10.922,-0.02,0.01,1.008
2026/05/14 10:34:10.942,-0.019,0.012,1.0
2026/05/14 10:34:10.961,-0.025,0.009,0.996
2026/05/14 10:34:10.981,-0.026,0.0,0.999
2026/05/14 10:34:11.001,-0.031,-0.002,1.002
2026/05/14 10:34:11.020,-0.027,0.0,0.997
2026/05/14 10:34:11.040,-0.019,0.011,1.007
2026/05/14 10:34:11.059,-0.023,0.012,1.002
2026/05/14 10:34:11.079,-0.029,0.011,0.994
2026/05/14 10:34:11.099,-0.031,0.002,1.004
2026/05/14 10:34:11.118,-0.029,0.006,0.996
2026/05/14 10:34:11.138,-0.025,0.011,0.988
2026/05/14 10:34:11.157,-0.021,0.004,1.002
2026/05/14 10:34:11.177,-0.026,0.006,1.009
2026/05/14 10:34:11.197,-0.023,0.006,0.998
2026/05/14 10:34:11.216,-0.02,0.011,0.995
2026/05/14 10:34:11.236,-0.023,0.001,1.007
2026/05/14 10:34:11.255,-0.028,0.01,1.012
2026/05/14 10:34:11.275,-0.021,0.014,0.994
2026/05/14 10:34:11.295,-0.028,0.012,0.992
2026/05/14 10:34:11.314,-0.028,0.004,1.004
2026/05/14 10:34:11.334,-0.029,0.0,1.002
2026/05/14 10:34:11.353,-0.028,0.008,0.991
2026/05/14 10:34:11.373,-0.021,0.01,0.995
2026/05/14 10:34:11.393,-0.024,0.014,1.009
2026/05/14 10:34:11.412,-0.026,0.011,1.004
2026/05/14 10:34:11.432,-0.021,0.007,0.994
2026/05/14 10:34:11.451,-0.024,0.003,1.0
2026/05/14 10:34:11.471,-0.028,-0.002,1.002
2026/05/14 10:34:11.490,-0.026,0.009,0.993
2026/05/14 10:34:11.510,-0.018,0.016,1.015
2026/05/14 10:34:11.530,-0.026,0.011,1.004
2026/05/14 10:34:11.549,-0.032,0.005,0.998
2026/05/14 10:34:11.569,-0.029,-0.002,1.003
2026/05/14 10:34:11.588,-0.032,0.004,0.986
2026/05/14 10:34:11.608,-0.029,0.011,0.985
2026/05/14 10:34:11.628,-0.026,0.011,1.005
2026/05/14 10:34:11.647,-0.025,0.006,1.005
2026/05/14 10:34:11.667,-0.02,0.01,0.996
2026/05/14 10:34:11.686,-0.017,0.004,0.995
2026/05/14 10:34:11.706,-0.02,0.001,1.011
2026/05/14 10:34:11.726,-0.017,0.006,1.005
2026/05/14 10:34:11.745,-0.024,0.015,0.998
2026/05/14 10:34:11.765,-0.028,0.008,0.996
2026/05/14 10:34:11.784,-0.03,0.003,0.998
2026/05/14 10:34:11.804,-0.035,-0.002,0.997
2026/05/14 10:34:11.824,-0.03,0.007,0.995
2026/05/14 10:34:11.843,-0.03,0.016,1.003
2026/05/14 10:34:11.863,-0.026,0.02,1.01
2026/05/14 10:34:11.882,-0.024,0.016,1.0
2026/05/14 10:34:11.902,-0.026,0.008,1.001
2026/05/14 10:34:11.922,-0.024,-0.006,1.0
2026/05/14 10:34:11.941,-0.023,-0.007,0.999
2026/05/14 10:34:11.961,-0.025,0.007,0.995
2026/05/14 10:34:11.980,-0.02,0.014,0.999
2026/05/14 10:34:12.000,-0.027,0.015,1.004
2026/05/14 10:34:12.020,-0.025,0.016,1.001
2026/05/14 10:34:12.039,-0.027,0.008,0.993
2026/05/14 10:34:12.059,-0.027,0.001,0.996
2026/05/14 10:34:12.078,-0.03,0.003,0.999
2026/05/14 10:34:12.098,-0.033,0.009,0.996
2026/05/14 10:34:12.118,-0.028,0.01,1.001
2026/05/14 10:34:12.137,-0.028,0.011,0.999
2026/05/14 10:34:12.157,-0.026,0.008,0.999
2026/05/14 10:34:12.176,-0.025,0.007,0.998
2026/05/14 10:34:12.196,-0.025,0.007,1.004
2026/05/14 10:34:12.216,-0.018,0.006,1.002
2026/05/14 10:34:12.235,-0.026,0.01,0.998
2026/05/14 10:34:12.255,-0.024,0.003,0.997
2026/05/14 10:34:12.274,-0.028,0.0,0.997
2026/05/14 10:34:12.294,-0.027,0.006,1.001
2026/05/14 10:34:12.314,-0.03,0.006,0.997
2026/05/14 10:34:12.333,-0.028,0.011,0.999
2026/05/14 10:34:12.353,-0.027,0.015,0.998
2026/05/14 10:34:12.372,-0.027,0.007,1.0
2026/05/14 10:34:12.392,-0.027,0.003,0.994
2026/05/14 10:34:12.411,-0.023,0.002,1.001
2026/05/14 10:34:12.431,-0.021,0.0,1.003
2026/05/14 10:34:12.451,-0.019,0.006,1.0
2026/05/14 10:34:12.470,-0.022,0.008,1.001
2026/05/14 10:34:12.490,-0.022,0.006,1.003
2026/05/14 10:34:12.509,-0.028,0.005,1.001
2026/05/14 10:34:12.529,-0.028,0.007,0.998
2026/05/14 10:34:12.549,-0.024,0.003,0.996
2026/05/14 10:34:12.568,-0.028,0.007,0.996
2026/05/14 10:34:12.588,-0.029,0.006,0.997
2026/05/14 10:34:12.607,-0.027,0.012,0.999
2026/05/14 10:34:12.627,-0.026,0.006,1.0
2026/05/14 10:34:12.647,-0.026,0.005,1.002
2026/05/14 10:34:12.666,-0.024,0.006,0.996
2026/05/14 10:34:12.686,-0.021,0.008,0.998
2026/05/14 10:34:12.705,-0.024,0.004,1.004
2026/05/14 10:34:12.725,-0.025,0.007,1.002
2026/05/14 10:34:12.745,-0.022,0.005,0.998
2026/05/14 10:34:12.764,-0.025,0.007,1.0
2026/05/14 10:34:12.784,-0.028,0.01,1.002
2026/05/14 10:34:12.803,-0.028,0.007,0.999
2026/05/14 10:34:12.823,-0.03,0.006,0.999
2026/05/14 10:34:12.843,-0.028,0.004,0.999
2026/05/14 10:34:12.862,-0.031,0.007,1.001
2026/05/14 10:34:12.882,-0.027,0.004,1.001
2026/05/14 10:34:12.901,-0.024,0.009,0.996
2026/05/14 10:34:12.921,-0.029,0.006,1.0
2026/05/14 10:34:12.941,-0.024,0.006,0.998
2026/05/14 10:34:12.960,-0.02,0.006,1.003
2026/05/14 10:34:12.980,-0.024,0.005,1.0
2026/05/14 10:34:12.999,-0.027,0.007,0.998
2026/05/14 10:34:13.019,-0.029,0.004,1.005
2026/05/14 10:34:13.039,-0.027,0.011,0.999
2026/05/14 10:34:13.058,-0.026,0.006,0.997
2026/05/14 10:34:13.078,-0.03,0.004,0.999
2026/05/14 10:34:13.097,-0.026,0.005,0.997
2026/05/14 10:34:13.117,-0.026,0.004,1.001
2026/05/14 10:34:13.137,-0.027,0.003,1.002
2026/05/14 10:34:13.156,-0.028,0.006,1.002
2026/05/14 10:34:13.176,-0.024,0.009,1.0
2026/05/14 10:34:13.195,-0.026,0.007,1.001
2026/05/14 10:34:13.215,-0.018,0.009,1.0
2026/05/14 10:34:13.234,-0.024,0.005,0.999
2026/05/14 10:34:13.254,-0.026,0.004,1.0
2026/05/14 10:34:13.274,-0.028,0.008,0.999
2026/05/14 10:34:13.293,-0.027,0.007,1.0
2026/05/14 10:34:13.313,-0.028,0.009,0.997
2026/05/14 10:34:13.332,-0.03,0.006,0.999
2026/05/14 10:34:13.352,-0.028,0.005,1.002
2026/05/14 10:34:13.372,-0.024,0.004,1.0
2026/05/14 10:34:13.391,-0.026,0.013,1.0
2026/05/14 10:34:13.411,-0.022,0.007,1.0
2026/05/14 10:34:13.430,-0.026,0.008,1.0
2026/05/14 10:34:13.450,-0.026,0.008,1.0
2026/05/14 10:34:13.470,-0.023,0.004,1.0
2026/05/14 10:34:13.489,-0.025,0.007,0.999
2026/05/14 10:34:13.509,-0.027,0.007,1.003
2026/05/14 10:34:13.528,-0.027,0.009,1.001
2026/05/14 10:34:13.548,-0.025,0.004,1.002
2026/05/14 10:34:13.568,-0.028,0.007,1.001
2026/05/14 10:34:13.587,-0.03,0.008,0.996
2026/05/14 10:34:13.607,-0.028,0.009,0.997
2026/05/14 10:34:13.626,-0.027,0.007,1.0
2026/05/14 10:34:13.646,-0.023,0.005,0.999
2026/05/14 10:34:13.666,-0.022,0.007,1.0
2026/05/14 10:34:13.685,-0.024,0.01,0.998
2026/05/14 10:34:13.705,-0.025,0.004,1.003
2026/05/14 10:34:13.724,-0.023,0.006,0.997
2026/05/14 10:34:13.744,-0.027,0.006,1.001
2026/05/14 10:34:13.764,-0.031,0.008,1.002
2026/05/14 10:34:13.783,-0.022,0.011,1.001
2026/05/14 10:34:13.803,-0.032,0.007,0.996
2026/05/14 10:34:13.822,-0.027,0.004,0.996
2026/05/14 10:34:13.842,-0.025,0.006,1.007
2026/05/14 10:34:13.862,-0.02,0.011,1.003
2026/05/14 10:34:13.881,-0.022,0.014,0.998
2026/05/14 10:34:13.901,-0.022,0.008,1.004
2026/05/14 10:34:13.920,-0.024,0.006,1.004
2026/05/14 10:34:13.940,-0.024,0.003,0.998
2026/05/14 10:34:13.960,-0.027,0.002,0.995
2026/05/14 10:34:13.979,-0.025,0.003,1.005
2026/05/14 10:34:13.999,-0.027,0.012,1.004
2026/05/14 10:34:14.018,-0.023,0.016,1.002
2026/05/14 10:34:14.038,-0.026,0.011,1.0
2026/05/14 10:34:14.058,-0.026,0.009,1.002
2026/05/14 10:34:14.077,-0.032,0.004,0.995
2026/05/14 10:34:14.097,-0.031,0.004,0.998
2026/05/14 10:34:14.116,-0.025,0.003,1.001
2026/05/14 10:34:14.136,-0.019,0.006,1.0
2026/05/14 10:34:14.155,-0.022,0.007,0.993
2026/05/14 10:34:14.175,-0.024,0.01,1.001
2026/05/14 10:34:14.195,-0.027,0.003,1.0
2026/05/14 10:34:14.214,-0.028,0.007,0.993
2026/05/14 10:34:14.234,-0.029,0.005,0.998
2026/05/14 10:34:14.253,-0.028,0.009,1.003
2026/05/14 10:34:14.273,-0.027,0.006,1.004
2026/05/14 10:34:14.293,-0.021,0.012,0.995
2026/05/14 10:34:14.312,-0.022,0.005,1.001
2026/05/14 10:34:14.332,-0.025,0.004,1.005
2026/05/14 10:34:14.351,-0.023,0.007,1.001
2026/05/14 10:34:14.371,-0.023,0.007,0.996
2026/05/14 10:34:14.391,-0.024,0.006,1.001
2026/05/14 10:34:14.410,-0.027,0.008,0.998
2026/05/14 10:34:14.430,-0.03,0.006,0.992
2026/05/14 10:34:14.449,-0.029,0.006,1.0
2026/05/14 10:34:14.469,-0.028,0.005,1.011
2026/05/14 10:34:14.489,-0.024,0.011,0.997
2026/05/14 10:34:14.508,-0.017,0.015,0.996
2026/05/14 10:34:14.528,-0.022,0.011,1.01
2026/05/14 10:34:14.547,-0.026,0.007,1.005
2026/05/14 10:34:14.567,-0.022,0.002,0.991
2026/05/14 10:34:14.587,-0.021,-0.006,0.996
2026/05/14 10:34:14.606,-0.025,-0.001,1.005
2026/05/14 10:34:14.626,-0.024,0.007,0.999
2026/05/14 10:34:14.645,-0.027,0.015,0.996
2026/05/14 10:34:14.665,-0.025,0.014,1.0
2026/05/14 10:34:14.685,-0.023,0.013,1.005
2026/05/14 10:34:14.704,-0.03,0.006,0.994
2026/05/14 10:34:14.724,-0.03,0.0,1.006
2026/05/14 10:34:14.743,-0.035,-0.003,0.996
2026/05/14 10:34:14.763,-0.031,0.002,1.002
2026/05/14 10:34:14.783,-0.024,0.007,0.999
2026/05/14 10:34:14.802,-0.021,0.011,0.998
2026/05/14 10:34:14.822,-0.014,0.014,1.002
2026/05/14 10:34:14.841,-0.021,0.011,1.006
2026/05/14 10:34:14.861,-0.025,0.004,0.999
2026/05/14 10:34:14.881,-0.025,0.005,0.994
2026/05/14 10:34:14.900,-0.028,-0.001,0.998
2026/05/14 10:34:14.920,-0.028,0.0,1.003
2026/05/14 10:34:14.939,-0.03,0.009,0.998
2026/05/14 10:34:14.959,-0.025,0.014,1.0
2026/05/14 10:34:14.979,-0.027,0.013,1.006
2026/05/14 10:34:14.998,-0.024,0.01,1.005
2026/05/14 10:34:15.018,-0.022,0.006,0.999
2026/05/14 10:34:15.037,-0.03,-0.002,0.992
2026/05/14 10:34:15.057,-0.032,-0.001,1.006
2026/05/14 10:34:15.076,-0.023,0.001,1.007
2026/05/14 10:34:15.096,-0.015,0.008,0.992
2026/05/14 10:34:15.116,-0.019,0.017,1.002
2026/05/14 10:34:15.135,-0.021,0.013,1.016
2026/05/14 10:34:15.155,-0.026,0.007,1.003
2026/05/14 10:34:15.174,-0.023,0.008,0.994
2026/05/14 10:34:15.194,-0.029,-0.001,0.998
2026/05/14 10:34:15.214,-0.031,-0.004,1.007
2026/05/14 10:34:15.233,-0.03,0.007,0.999
2026/05/14 10:34:15.253,-0.027,0.012,0.994
2026/05/14 10:34:15.272,-0.021,0.014,1.006
2026/05/14 10:34:15.292,-0.022,0.011,1.009
2026/05/14 10:34:15.312,-0.025,0.007,0.997
2026/05/14 10:34:15.331,-0.026,0.002,0.993
2026/05/14 10:34:15.351,-0.025,0.0,1.003
2026/05/14 10:34:15.370,-0.027,0.002,0.997
2026/05/14 10:34:15.390,-0.027,0.005,0.997
2026/05/14 10:34:15.410,-0.026,0.011,1.0
2026/05/14 10:34:15.429,-0.026,0.009,1.009
2026/05/14 10:34:15.449,-0.027,0.009,1.003
2026/05/14 10:34:15.468,-0.025,0.009,0.997
2026/05/14 10:34:15.488,-0.025,0.007,0.998
2026/05/14 10:34:15.508,-0.028,0.002,1.002
2026/05/14 10:34:15.527,-0.025,0.005,0.998
2026/05/14 10:34:15.547,-0.028,0.006,0.998
2026/05/14 10:34:15.566,-0.023,0.01,1.003
2026/05/14 10:34:15.586,-0.021,0.009,1.001
2026/05/14 10:34:15.606,-0.024,0.007,0.999
2026/05/14 10:34:15.625,-0.024,0.006,0.997
2026/05/14 10:34:15.645,-0.024,0.0,1.003
2026/05/14 10:34:15.664,-0.028,0.002,0.998
2026/05/14 10:34:15.684,-0.028,0.008,0.996
2026/05/14 10:34:15.704,-0.026,0.01,1.002
2026/05/14 10:34:15.723,-0.026,0.011,1.007
2026/05/14 10:34:15.743,-0.025,0.012,1.005
2026/05/14 10:34:15.762,-0.026,0.009,0.998
2026/05/14 10:34:15.782,-0.027,0.004,1.0
2026/05/14 10:34:15.802,-0.025,0.001,1.002
2026/05/14 10:34:15.821,-0.028,0.001,0.998
2026/05/14 10:34:15.841,-0.026,0.005,0.997
2026/05/14 10:34:15.860,-0.024,0.008,1.0
2026/05/14 10:34:15.880,-0.024,0.009,1.002
2026/05/14 10:34:15.900,-0.026,0.007,1.0
2026/05/14 10:34:15.919,-0.022,0.007,1.001
2026/05/14 10:34:15.939,-0.028,0.001,1.004
2026/05/14 10:34:15.958,-0.027,0.007,1.002
2026/05/14 10:34:15.978,-0.028,0.007,1.004
2026/05/14 10:34:15.998,-0.026,0.007,1.006
2026/05/14 10:34:16.017,-0.029,0.011,1.002
2026/05/14 10:34:16.037,-0.022,0.01,1.005
2026/05/14 10:34:16.056,-0.023,0.007,1.0
2026/05/14 10:34:16.076,-0.026,0.01,0.996
2026/05/14 10:34:16.095,-0.026,0.005,1.004
2026/05/14 10:34:16.115,-0.023,0.007,0.997
2026/05/14 10:34:16.135,-0.027,0.004,0.993
2026/05/14 10:34:16.154,-0.027,0.008,1.0
2026/05/14 10:34:16.174,-0.025,0.011,1.001
2026/05/14 10:34:16.193,-0.024,0.006,0.996
2026/05/14 10:34:16.213,-0.025,0.009,1.002
2026/05/14 10:34:16.233,-0.026,0.006,1.001
2026/05/14 10:34:16.252,-0.028,0.006,0.998
2026/05/14 10:34:16.272,-0.027,0.006,0.999
2026/05/14 10:34:16.291,-0.024,0.004,1.001
2026/05/14 10:34:16.311,-0.026,0.009,1.001
2026/05/14 10:34:16.331,-0.025,0.006,0.999
2026/05/14 10:34:16.350,-0.026,0.005,0.998
2026/05/14 10:34:16.370,-0.028,0.004,0.997
2026/05/14 10:34:16.389,-0.025,0.009,1.002
2026/05/14 10:34:16.409,-0.027,0.007,1.0
2026/05/14 10:34:16.429,-0.025,0.008,0.997
2026/05/14 10:34:16.448,-0.028,0.007,1.001
2026/05/14 10:34:16.468,-0.024,0.005,1.002
2026/05/14 10:34:16.487,-0.026,0.009,0.998
2026/05/14 10:34:16.507,-0.026,0.006,1.0
2026/05/14 10:34:16.527,-0.028,0.01,1.0
2026/05/14 10:34:16.546,-0.023,0.009,1.004
2026/05/14 10:34:16.566,-0.024,0.007,1.004
2026/05/14 10:34:16.585,-0.024,0.005,0.997
2026/05/14 10:34:16.605,-0.025,0.005,1.001
2026/05/14 10:34:16.625,-0.029,0.007,0.998
2026/05/14 10:34:16.644,-0.028,0.007,0.999
2026/05/14 10:34:16.664,-0.03,0.01,0.998
2026/05/14 10:34:16.683,-0.028,0.01,1.001
2026/05/14 10:34:16.703,-0.025,0.006,0.999
2026/05/14 10:34:16.723,-0.025,0.008,0.997
2026/05/14 10:34:16.742,-0.025,0.009,0.999
2026/05/14 10:34:16.762,-0.024,0.008,1.0
2026/05/14 10:34:16.781,-0.026,0.007,0.996
2026/05/14 10:34:16.801,-0.026,0.002,1.003
2026/05/14 10:34:16.821,-0.029,0.008,1.001
2026/05/14 10:34:16.840,-0.028,0.007,0.999
2026/05/14 10:34:16.860,-0.027,0.005,0.999
2026/05/14 10:34:16.879,-0.024,0.004,1.003
2026/05/14 10:34:16.899,-0.025,0.006,0.996
2026/05/14 10:34:16.919,-0.023,0.008,0.999
2026/05/14 10:34:16.938,-0.029,0.006,1.001
2026/05/14 10:34:16.958,-0.029,0.006,1.0
2026/05/14 10:34:16.977,-0.025,0.011,0.999
2026/05/14 10:34:16.997,-0.027,0.008,1.0
2026/05/14 10:34:17.017,-0.026,0.008,1.001
2026/05/14 10:34:17.036,-0.027,0.009,1.0
2026/05/14 10:34:17.056,-0.025,0.006,1.001
2026/05/14 10:34:17.075,-0.022,0.009,0.998
2026/05/14 10:34:17.095,-0.026,0.006,1.0
2026/05/14 10:34:17.114,-0.03,0.004,0.999
2026/05/14 10:34:17.134,-0.025,0.004,0.999
2026/05/14 10:34:17.154,-0.027,0.007,1.0
2026/05/14 10:34:17.173,-0.023,0.004,1.0
2026/05/14 10:34:17.193,-0.029,0.005,0.996
2026/05/14 10:34:17.212,-0.027,0.008,1.001
2026/05/14 10:34:17.232,-0.025,0.007,1.0
2026/05/14 10:34:17.252,-0.024,0.005,1.002
2026/05/14 10:34:17.271,-0.025,0.007,1.002
2026/05/14 10:34:17.291,-0.026,0.005,1.004
2026/05/14 10:34:17.310,-0.027,0.008,1.001
2026/05/14 10:34:17.330,-0.026,0.007,1.0
2026/05/14 10:34:17.350,-0.026,0.005,1.001
2026/05/14 10:34:17.369,-0.024,0.006,1.0
2026/05/14 10:34:17.389,-0.025,0.008,1.001
2026/05/14 10:34:17.408,-0.027,0.007,0.998
2026/05/14 10:34:17.428,-0.024,0.005,1.0
2026/05/14 10:34:17.448,-0.025,0.009,0.999
2026/05/14 10:34:17.467,-0.023,0.01,0.999
2026/05/14 10:34:17.487,-0.027,0.007,1.002
2026/05/14 10:34:17.506,-0.022,0.003,1.003
2026/05/14 10:34:17.526,-0.019,0.01,1.008
2026/05/14 10:34:17.546,-0.02,0.011,1.008
2026/05/14 10:34:17.565,-0.026,0.01,1.003
2026/05/14 10:34:17.585,-0.032,0.007,1.02
2026/05/14 10:34:17.604,-0.032,0.008,1.005
2026/05/14 10:34:17.624,-0.033,0.009,0.972
2026/05/14 10:34:17.644,-0.03,0.003,0.988
2026/05/14 10:34:17.663,-0.03,0.005,1.006
2026/05/14 10:34:17.683,-0.024,0.012,0.993
2026/05/14 10:34:17.702,-0.023,0.011,0.988
2026/05/14 10:34:17.722,-0.02,0.0,1.01
2026/05/14 10:34:17.742,-0.025,0.005,1.007
2026/05/14 10:34:17.761,-0.023,0.01,0.998
2026/05/14 10:34:17.781,-0.026,0.011,0.992
2026/05/14 10:34:17.800,-0.026,0.005,1.004
2026/05/14 10:34:17.820,-0.029,0.005,0.997
2026/05/14 10:34:17.840,-0.027,0.008,0.992
2026/05/14 10:34:17.859,-0.031,0.007,1.001
2026/05/14 10:34:17.879,-0.025,0.008,1.005
2026/05/14 10:34:17.898,-0.026,0.008,0.995
2026/05/14 10:34:17.918,-0.023,0.008,0.998
2026/05/14 10:34:17.938,-0.022,0.009,1.005
2026/05/14 10:34:17.957,-0.029,0.004,1.003
2026/05/14 10:34:17.977,-0.024,0.012,0.996
2026/05/14 10:34:17.996,-0.027,0.007,0.995
2026/05/14 10:34:18.016,-0.03,0.005,1.006
2026/05/14 10:34:18.036,-0.03,0.005,1.0
2026/05/14 10:34:18.055,-0.024,0.009,0.998
2026/05/14 10:34:18.075,-0.026,0.007,0.999
2026/05/14 10:34:18.094,-0.025,0.005,1.006
2026/05/14 10:34:18.114,-0.024,0.006,0.999
2026/05/14 10:34:18.134,-0.022,0.007,0.995
2026/05/14 10:34:18.153,-0.023,0.004,1.002
2026/05/14 10:34:18.173,-0.023,0.005,1.003
2026/05/14 10:34:18.192,-0.025,0.006,0.998
2026/05/14 10:34:18.212,-0.025,0.011,0.997
2026/05/14 10:34:18.231,-0.025,0.008,1.0
2026/05/14 10:34:18.251,-0.028,0.01,1.002
2026/05/14 10:34:18.271,-0.026,0.012,0.996
2026/05/14 10:34:18.290,-0.03,0.009,0.999
2026/05/14 10:34:18.310,-0.025,0.005,0.999
2026/05/14 10:34:18.329,-0.025,0.005,0.999
2026/05/14 10:34:18.349,-0.025,0.008,0.996
2026/05/14 10:34:18.369,-0.025,0.009,0.999
2026/05/14 10:34:18.388,-0.025,0.011,1.0
2026/05/14 10:34:18.408,-0.027,0.01,1.006
2026/05/14 10:34:18.427,-0.025,0.01,0.996
2026/05/14 10:34:18.447,-0.028,0.004,0.997
2026/05/14 10:34:18.467,-0.032,0.004,1.001
2026/05/14 10:34:18.486,-0.03,0.006,1.0
2026/05/14 10:34:18.506,-0.026,0.011,1.0
2026/05/14 10:34:18.525,-0.027,0.008,1.006
2026/05/14 10:34:18.545,-0.024,0.004,0.999
2026/05/14 10:34:18.565,-0.019,0.005,0.997
2026/05/14 10:34:18.584,-0.021,0.002,1.004
2026/05/14 10:34:18.604,-0.021,0.008,1.0
2026/05/14 10:34:18.623,-0.029,0.009,0.99
2026/05/14 10:34:18.643,-0.026,0.007,0.999
2026/05/14 10:34:18.663,-0.028,0.006,1.002
2026/05/14 10:34:18.682,-0.027,0.011,1.001
2026/05/14 10:34:18.702,-0.029,0.009,0.998
2026/05/14 10:34:18.721,-0.027,0.009,1.003
2026/05/14 10:34:18.741,-0.023,0.004,1.001
2026/05/14 10:34:18.761,-0.031,0.003,0.999
2026/05/14 10:34:18.780,-0.024,0.001,0.994
2026/05/14 10:34:18.800,-0.024,0.008,1.004
2026/05/14 10:34:18.819,-0.022,0.007,1.001
2026/05/14 10:34:18.839,-0.019,0.015,0.999
2026/05/14 10:34:18.859,-0.026,0.005,0.997
2026/05/14 10:34:18.878,-0.029,0.002,1.007
2026/05/14 10:34:18.898,-0.029,0.003,1.0
2026/05/14 10:34:18.917,-0.029,0.003,0.995
2026/05/14 10:34:18.937,-0.028,0.01,1.005
2026/05/14 10:34:18.957,-0.027,0.01,1.003
2026/05/14 10:34:18.976,-0.025,0.01,0.995
2026/05/14 10:34:18.996,-0.027,0.006,0.997
2026/05/14 10:34:19.015,-0.027,0.005,1.005
2026/05/14 10:34:19.035,-0.027,0.002,1.001
2026/05/14 10:34:19.055,-0.024,0.009,0.999
2026/05/14 10:34:19.074,-0.027,0.004,1.002
2026/05/14 10:34:19.094,-0.024,0.007,1.004
2026/05/14 10:34:19.113,-0.027,0.007,0.997
2026/05/14 10:34:19.133,-0.03,0.006,1.0
2026/05/14 10:34:19.153,-0.025,0.008,1.0
2026/05/14 10:34:19.172,-0.027,0.007,1.0
2026/05/14 10:34:19.192,-0.027,0.009,0.998
2026/05/14 10:34:19.211,-0.028,0.007,0.999
2026/05/14 10:34:19.231,-0.023,0.006,1.002
2026/05/14 10:34:19.250,-0.028,0.005,1.004
2026/05/14 10:34:19.270,-0.022,0.01,0.996
2026/05/14 10:34:19.290,-0.026,0.005,1.001
2026/05/14 10:34:19.309,-0.025,0.006,0.998
2026/05/14 10:34:19.329,-0.031,0.006,0.997
2026/05/14 10:34:19.348,-0.028,0.008,1.0
2026/05/14 10:34:19.368,-0.03,0.009,0.995
2026/05/14 10:34:19.388,-0.028,0.008,0.998
2026/05/14 10:34:19.407,-0.025,0.009,1.0
2026/05/14 10:34:19.427,-0.028,0.013,1.0
2026/05/14 10:34:19.446,-0.025,0.008,0.999
2026/05/14 10:34:19.466,-0.027,0.006,1.001
2026/05/14 10:34:19.486,-0.025,0.007,0.999
2026/05/14 10:34:19.505,-0.025,0.008,0.998
2026/05/14 10:34:19.525,-0.025,0.006,0.999
2026/05/14 10:34:19.544,-0.023,0.008,1.001
2026/05/14 10:34:19.564,-0.027,0.008,1.001
2026/05/14 10:34:19.584,-0.026,0.005,1.005
2026/05/14 10:34:19.603,-0.025,0.009,1.002
2026/05/14 10:34:19.623,-0.026,0.008,1.005
2026/05/14 10:34:19.642,-0.023,0.009,1.0
2026/05/14 10:34:19.662,-0.028,0.005,0.988
2026/05/14 10:34:19.682,-0.032,0.002,1.001
2026/05/14 10:34:19.701,-0.032,0.003,1.003
2026/05/14 10:34:19.721,-0.031,0.009,0.993
2026/05/14 10:34:19.740,-0.025,0.014,0.997
2026/05/14 10:34:19.760,-0.03,0.004,1.006
2026/05/14 10:34:19.780,-0.021,0.003,1.004
2026/05/14 10:34:19.799,-0.023,0.005,0.995
2026/05/14 10:34:19.819,-0.02,0.003,0.998
2026/05/14 10:34:19.838,-0.019,0.005,1.003
2026/05/14 10:34:19.858,-0.025,0.01,0.997
2026/05/14 10:34:19.878,-0.029,0.002,0.997
2026/05/14 10:34:19.897,-0.027,0.01,1.003
2026/05/14 10:34:19.917,-0.03,0.004,1.003
2026/05/14 10:34:19.936,-0.028,0.008,1.002
2026/05/14 10:34:19.956,-0.028,0.012,0.994
2026/05/14 10:34:19.976,-0.027,0.011,1.003
2026/05/14 10:34:19.995,-0.029,0.004,1.001
2026/05/14 10:34:20.015,-0.027,0.007,0.997
2026/05/14 10:34:20.034,-0.024,0.006,0.998
2026/05/14 10:34:20.054,-0.021,0.007,1.004
2026/05/14 10:34:20.074,-0.02,0.007,1.003
2026/05/14 10:34:20.093,-0.022,0.005,0.998
2026/05/14 10:34:20.113,-0.026,0.007,1.003
2026/05/14 10:34:20.132,-0.025,0.007,1.004
2026/05/14 10:34:20.152,-0.028,0.004,0.998
2026/05/14 10:34:20.172,-0.029,0.007,0.999
2026/05/14 10:34:20.191,-0.029,0.007,1.0
2026/05/14 10:34:20.211,-0.029,0.008,1.003
2026/05/14 10:34:20.230,-0.025,0.012,0.996
2026/05/14 10:34:20.250,-0.029,0.008,1.004
2026/05/14 10:34:20.270,-0.023,0.004,1.004
2026/05/14 10:34:20.289,-0.024,0.003,1.003
2026/05/14 10:34:20.309,-0.02,0.005,1.0
2026/05/14 10:34:20.328,-0.022,0.009,0.999
2026/05/14 10:34:20.348,-0.025,0.003,1.003
2026/05/14 10:34:20.367,-0.029,0.009,0.997
2026/05/14 10:34:20.387,-0.022,0.008,1.0
2026/05/14 10:34:20.407,-0.029,0.007,1.0
2026/05/14 10:34:20.426,-0.029,0.01,1.006
2026/05/14 10:34:20.446,-0.028,0.008,1.006
2026/05/14 10:34:20.465,-0.027,0.009,0.995
2026/05/14 10:34:20.485,-0.026,0.005,0.998
2026/05/14 10:34:20.505,-0.023,0.005,1.004
2026/05/14 10:34:20.524,-0.024,0.006,0.995
2026/05/14 10:34:20.544,-0.024,0.009,0.999
2026/05/14 10:34:20.563,-0.027,0.002,1.001
2026/05/14 10:34:20.583,-0.022,0.005,0.998
2026/05/14 10:34:20.603,-0.021,0.009,0.998
2026/05/14 10:34:20.622,-0.022,0.006,1.003
2026/05/14 10:34:20.642,-0.028,0.008,1.005
2026/05/14 10:34:20.661,-0.027,0.01,0.998
2026/05/14 10:34:20.681,-0.029,0.008,1.0
2026/05/14 10:34:20.701,-0.027,0.007,1.0
2026/05/14 10:34:20.720,-0.028,0.001,1.003
2026/05/14 10:34:20.740,-0.024,0.006,0.997
2026/05/14 10:34:20.759,-0.023,0.005,0.999
2026/05/14 10:34:20.779,-0.023,0.009,1.004
2026/05/14 10:34:20.799,-0.023,0.009,0.999
2026/05/14 10:34:20.818,-0.023,0.006,0.999
2026/05/14 10:34:20.838,-0.024,0.003,1.004
2026/05/14 10:34:20.857,-0.026,0.006,1.003
2026/05/14 10:34:20.877,-0.024,0.01,1.002
2026/05/14 10:34:20.897,-0.027,0.008,1.001
2026/05/14 10:34:20.916,-0.029,0.007,1.001
2026/05/14 10:34:20.936,-0.028,0.008,0.999
2026/05/14 10:34:20.955,-0.025,0.008,0.999
2026/05/14 10:34:20.975,-0.029,0.008,1.0
2026/05/14 10:34:20.995,-0.025,0.009,1.002
2026/05/14 10:34:21.014,-0.027,0.006,1.001
2026/05/14 10:34:21.034,-0.023,0.006,1.001
2026/05/14 10:34:21.053,-0.025,0.003,1.005
2026/05/14 10:34:21.073,-0.026,0.005,1.001
2026/05/14 10:34:21.093,-0.024,0.003,1.001
2026/05/14 10:34:21.112,-0.026,0.006,0.999
2026/05/14 10:34:21.132,-0.025,0.007,1.002
2026/05/14 10:34:21.151,-0.031,0.006,1.0
2026/05/14 10:34:21.171,-0.027,0.01,1.0
2026/05/14 10:34:21.191,-0.027,0.009,0.996
2026/05/14 10:34:21.210,-0.029,0.007,1.0
2026/05/14 10:34:21.230,-0.023,0.006,1.002
2026/05/14 10:34:21.249,-0.027,0.006,0.999
2026/05/14 10:34:21.269,-0.024,0.006,1.001
2026/05/14 10:34:21.288,-0.023,0.003,0.999
2026/05/14 10:34:21.308,-0.023,0.004,1.001
2026/05/14 10:34:21.328,-0.025,0.004,1.0
2026/05/14 10:34:21.347,-0.028,0.005,1.002
2026/05/14 10:34:21.367,-0.026,0.004,1.001
2026/05/14 10:34:21.386,-0.032,0.007,0.999
2026/05/14 10:34:21.406,-0.028,0.003,0.996
2026/05/14 10:34:21.426,-0.029,0.004,1.002
2026/05/14 10:34:21.445,-0.025,0.007,1.002
2026/05/14 10:34:21.465,-0.025,0.009,0.998
2026/05/14 10:34:21.484,-0.026,0.005,0.997
2026/05/14 10:34:21.504,-0.025,0.009,1.0
2026/05/14 10:34:21.524,-0.025,0.009,1.002
2026/05/14 10:34:21.543,-0.024,0.009,0.996
2026/05/14 10:34:21.563,-0.022,0.004,1.0
2026/05/14 10:34:21.582,-0.022,0.004,0.998
2026/05/14 10:34:21.602,-0.027,0.008,0.999
2026/05/14 10:34:21.622,-0.026,0.005,1.001
2026/05/14 10:34:21.641,-0.024,0.01,1.002
2026/05/14 10:34:21.661,-0.026,0.01,1.0
2026/05/14 10:34:21.680,-0.023,0.007,1.002
2026/05/14 10:34:21.700,-0.023,0.011,0.999
2026/05/14 10:34:21.720,-0.026,0.005,1.0
2026/05/14 10:34:21.739,-0.028,0.006,1.0
2026/05/14 10:34:21.759,-0.026,0.008,1.0
2026/05/14 10:34:21.778,-0.024,0.006,1.001
2026/05/14 10:34:21.798,-0.025,0.005,1.0
2026/05/14 10:34:21.818,-0.025,0.002,0.996
2026/05/14 10:34:21.837,-0.024,0.005,0.998
2026/05/14 10:34:21.857,-0.028,0.009,1.002
2026/05/14 10:34:21.876,-0.027,0.005,1.0
2026/05/14 10:34:21.896,-0.025,0.008,1.004
2026/05/14 10:34:21.916,-0.025,0.01,1.001
2026/05/14 10:34:21.935,-0.025,0.008,1.0
2026/05/14 10:34:21.955,-0.025,0.01,1.002
2026/05/14 10:34:21.974,-0.024,0.006,0.999
2026/05/14 10:34:21.994,-0.023,0.007,1.002
2026/05/14 10:34:22.014,-0.026,0.004,1.001
2026/05/14 10:34:22.033,-0.026,0.006,1.0
2026/05/14 10:34:22.053,-0.024,0.008,1.002
2026/05/14 10:34:22.072,-0.028,0.009,0.996
2026/05/14 10:34:22.092,-0.027,0.007,1.002
2026/05/14 10:34:22.112,-0.024,0.006,0.997
2026/05/14 10:34:22.131,-0.026,0.011,0.996
2026/05/14 10:34:22.151,-0.026,0.007,1.001
2026/05/14 10:34:22.170,-0.026,0.008,1.002
2026/05/14 10:34:22.190,-0.029,0.011,1.003
2026/05/14 10:34:22.210,-0.026,0.005,0.999
2026/05/14 10:34:22.229,-0.029,0.003,0.997
2026/05/14 10:34:22.249,-0.028,0.008,1.0
2026/05/14 10:34:22.268,-0.024,0.006,1.0
2026/05/14 10:34:22.288,-0.027,0.01,0.997
2026/05/14 10:34:22.307,-0.028,0.007,1.0
2026/05/14 10:34:22.327,-0.023,0.009,0.996
2026/05/14 10:34:22.347,-0.025,0.004,1.002
2026/05/14 10:34:22.366,-0.025,0.004,1.0
2026/05/14 10:34:22.386,-0.025,0.007,1.001
2026/05/14 10:34:22.405,-0.025,0.008,1.0
2026/05/14 10:34:22.425,-0.026,0.007,1.001
2026/05/14 10:34:22.445,-0.024,0.006,0.995
2026/05/14 10:34:22.464,-0.025,0.011,1.0
2026/05/14 10:34:22.484,-0.025,0.007,1.003
2026/05/14 10:34:22.503,-0.025,0.009,1.0
2026/05/14 10:34:22.523,-0.025,0.003,0.998
2026/05/14 10:34:22.543,-0.028,0.009,1.003
2026/05/14 10:34:22.562,-0.025,0.01,0.999
2026/05/14 10:34:22.582,-0.027,0.006,1.0
2026/05/14 10:34:22.601,-0.025,0.008,1.001
2026/05/14 10:34:22.621,-0.025,0.009,0.999
2026/05/14 10:34:22.641,-0.026,0.007,0.999
2026/05/14 10:34:22.660,-0.027,0.011,0.999
2026/05/14 10:34:22.680,-0.026,0.008,0.995
2026/05/14 10:34:22.699,-0.028,0.008,1.002
2026/05/14 10:34:22.719,-0.024,0.006,1.0
2026/05/14 10:34:22.739,-0.022,0.007,1.001
2026/05/14 10:34:22.758,-0.027,0.007,0.997
2026/05/14 10:34:22.778,-0.025,0.003,0.997
2026/05/14 10:34:22.797,-0.025,0.007,1.0
2026/05/14 10:34:22.817,-0.027,0.01,1.002
2026/05/14 10:34:22.837,-0.025,0.008,1.001
2026/05/14 10:34:22.856,-0.026,0.006,0.999
2026/05/14 10:34:22.876,-0.025,0.007,1.002
2026/05/14 10:34:22.895,-0.024,0.008,1.0
2026/05/14 10:34:22.915,-0.026,0.004,1.001
2026/05/14 10:34:22.935,-0.026,0.01,1.001
2026/05/14 10:34:22.954,-0.027,0.007,0.999
2026/05/14 10:34:22.974,-0.029,0.006,0.998
2026/05/14 10:34:22.993,-0.026,0.005,1.001
2026/05/14 10:34:23.013,-0.028,0.007,1.003
2026/05/14 10:34:23.033,-0.025,0.004,0.999
2026/05/14 10:34:23.052,-0.027,0.009,1.0
2026/05/14 10:34:23.072,-0.028,0.008,0.997
2026/05/14 10:34:23.091,-0.026,0.005,1.0
2026/05/14 10:34:23.111,-0.023,0.01,1.002
2026/05/14 10:34:23.131,-0.027,0.007,0.999
2026/05/14 10:34:23.150,-0.024,0.005,1.001
2026/05/14 10:34:23.170,-0.028,0.006,0.999
2026/05/14 10:34:23.189,-0.022,0.007,0.996
2026/05/14 10:34:23.209,-0.022,0.008,1.002
2026/05/14 10:34:23.228,-0.026,0.008,0.996
2026/05/14 10:34:23.248,-0.025,0.005,1.001
2026/05/14 10:34:23.268,-0.028,0.007,1.0
2026/05/14 10:34:23.287,-0.025,0.007,1.002
2026/05/14 10:34:23.307,-0.026,0.008,0.998
2026/05/14 10:34:23.326,-0.026,0.008,0.996
2026/05/14 10:34:23.346,-0.025,0.009,0.997
2026/05/14 10:34:23.366,-0.025,0.01,0.998
2026/05/14 10:34:23.385,-0.02,0.007,1.003
2026/05/14 10:34:23.405,-0.028,0.01,0.999
2026/05/14 10:34:23.424,-0.025,0.011,1.001
2026/05/14 10:34:23.444,-0.025,0.007,0.998
2026/05/14 10:34:23.464,-0.027,0.007,1.0
2026/05/14 10:34:23.483,-0.024,0.01,1.0
2026/05/14 10:34:23.503,-0.025,0.002,1.002
2026/05/14 10:34:23.522,-0.023,0.006,1.002
2026/05/14 10:34:23.542,-0.026,0.007,1.001
2026/05/14 10:34:23.562,-0.025,0.01,1.0
2026/05/14 10:34:23.581,-0.028,0.004,1.002
2026/05/14 10:34:23.601,-0.029,0.003,0.999
2026/05/14 10:34:23.620,-0.023,0.004,1.001
2026/05/14 10:34:23.640,-0.023,0.008,1.0
2026/05/14 10:34:23.660,-0.026,0.008,1.003
2026/05/14 10:34:23.679,-0.027,0.008,0.997
2026/05/14 10:34:23.699,-0.023,0.007,0.998
2026/05/14 10:34:23.718,-0.022,0.008,1.001
2026/05/14 10:34:23.738,-0.025,0.003,1.002
2026/05/14 10:34:23.758,-0.026,0.008,0.999
2026/05/14 10:34:23.777,-0.022,0.007,1.001
2026/05/14 10:34:23.797,-0.026,0.006,0.998
2026/05/14 10:34:23.816,-0.026,0.01,0.998
2026/05/14 10:34:23.836,-0.027,0.009,0.999
2026/05/14 10:34:23.856,-0.021,0.008,0.996
2026/05/14 10:34:23.875,-0.024,0.007,1.0
2026/05/14 10:34:23.895,-0.022,0.003,0.999
2026/05/14 10:34:23.914,-0.026,0.009,1.0
2026/05/14 10:34:23.934,-0.024,0.011,1.002
2026/05/14 10:34:23.954,-0.025,0.007,1.001
2026/05/14 10:34:23.973,-0.025,0.007,0.998
2026/05/14 10:34:23.993,-0.025,0.002,1.0
2026/05/14 10:34:24.012,-0.023,0.006,0.997
2026/05/14 10:34:24.032,-0.023,0.011,1.002
2026/05/14 10:34:24.052,-0.024,0.008,0.998
2026/05/14 10:34:24.071,-0.024,0.004,0.999
2026/05/14 10:34:24.091,-0.022,0.003,1.001
2026/05/14 10:34:24.110,-0.026,0.008,0.999
2026/05/14 10:34:24.130,-0.026,0.009,0.996
2026/05/14 10:34:24.150,-0.028,0.005,1.003
2026/05/14 10:34:24.169,-0.024,0.004,0.999
2026/05/14 10:34:24.189,-0.025,0.003,1.003
2026/05/14 10:34:24.208,-0.025,0.008,0.998
2026/05/14 10:34:24.228,-0.025,0.006,0.998
2026/05/14 10:34:24.247,-0.028,0.007,0.997
2026/05/14 10:34:24.267,-0.024,0.006,0.999
2026/05/14 10:34:24.287,-0.026,0.008,1.0
2026/05/14 10:34:24.306,-0.026,0.004,0.996
2026/05/14 10:34:24.326,-0.021,0.003,1.003
2026/05/14 10:34:24.345,-0.021,0.007,0.995
2026/05/14 10:34:24.365,-0.023,0.007,0.998
2026/05/14 10:34:24.385,-0.022,0.006,1.009
2026/05/14 10:34:24.404,-0.027,0.006,1.003
2026/05/14 10:34:24.424,-0.03,0.009,0.999
2026/05/14 10:34:24.443,-0.032,0.006,1.004
2026/05/14 10:34:24.463,-0.033,0.008,1.0
2026/05/14 10:34:24.483,-0.028,0.009,0.998
2026/05/14 10:34:24.502,-0.025,0.006,0.994
2026/05/14 10:34:24.522,-0.027,0.004,1.005
2026/05/14 10:34:24.541,-0.024,0.005,0.997
2026/05/14 10:34:24.561,-0.024,0.01,1.001
2026/05/14 10:34:24.581,-0.024,0.005,1.006
2026/05/14 10:34:24.600,-0.02,0.003,1.009
2026/05/14 10:34:24.620,-0.022,0.01,1.0
2026/05/14 10:34:24.639,-0.023,0.006,0.996
2026/05/14 10:34:24.659,-0.029,0.007,1.005
2026/05/14 10:34:24.679,-0.029,0.008,0.998
2026/05/14 10:34:24.698,-0.029,0.009,0.992
2026/05/14 10:34:24.718,-0.033,0.009,1.004
2026/05/14 10:34:24.737,-0.031,0.009,1.009
2026/05/14 10:34:24.757,-0.026,0.014,0.997
2026/05/14 10:34:24.777,-0.024,0.009,0.996
2026/05/14 10:34:24.796,-0.022,-0.003,1.006
2026/05/14 10:34:24.816,-0.018,0.002,1.001
2026/05/14 10:34:24.835,-0.016,0.006,0.996
2026/05/14 10:34:24.855,-0.013,0.007,1.002
2026/05/14 10:34:24.875,-0.018,0.008,1.011
2026/05/14 10:34:24.894,-0.026,0.009,0.996
2026/05/14 10:34:24.914,-0.027,0.005,0.995
2026/05/14 10:34:24.933,-0.028,0.007,1.003
2026/05/14 10:34:24.953,-0.032,0.011,0.999
2026/05/14 10:34:24.973,-0.03,0.011,0.996
2026/05/14 10:34:24.992,-0.033,0.012,0.991
2026/05/14 10:34:25.012,-0.034,0.006,0.999
2026/05/14 10:34:25.031,-0.032,0.002,1.001
2026/05/14 10:34:25.051,-0.021,0.003,0.992
2026/05/14 10:34:25.071,-0.021,0.007,0.998
2026/05/14 10:34:25.090,-0.02,0.008,1.004
2026/05/14 10:34:25.110,-0.018,0.009,0.998
2026/05/14 10:34:25.129,-0.019,0.008,1.002
2026/05/14 10:34:25.149,-0.023,0.002,1.005
2026/05/14 10:34:25.169,-0.025,-0.001,1.006
2026/05/14 10:34:25.188,-0.025,0.004,0.994
2026/05/14 10:34:25.208,-0.028,0.008,0.999
2026/05/14 10:34:25.227,-0.031,0.009,1.001
2026/05/14 10:34:25.247,-0.029,0.011,0.999
2026/05/14 10:34:25.267,-0.032,0.01,0.998
2026/05/14 10:34:25.286,-0.03,0.007,0.999
2026/05/14 10:34:25.306,-0.026,0.005,1.001
2026/05/14 10:34:25.325,-0.023,0.008,1.001
2026/05/14 10:34:25.345,-0.02,0.003,1.002
2026/05/14 10:34:25.364,-0.018,0.003,1.005
2026/05/14 10:34:25.384,-0.021,0.01,1.002
2026/05/14 10:34:25.404,-0.02,0.012,0.997
2026/05/14 10:34:25.423,-0.025,0.01,1.005
2026/05/14 10:34:25.443,-0.029,0.008,1.007
2026/05/14 10:34:25.462,-0.031,0.01,0.992
2026/05/14 10:34:25.482,-0.032,0.006,0.995
2026/05/14 10:34:25.502,-0.03,0.005,1.006
2026/05/14 10:34:25.521,-0.033,0.007,1.001
2026/05/14 10:34:25.541,-0.03,0.01,0.995
2026/05/14 10:34:25.560,-0.027,0.009,1.0
2026/05/14 10:34:25.580,-0.024,0.003,1.003
2026/05/14 10:34:25.600,-0.022,0.003,1.001
2026/05/14 10:34:25.619,-0.019,0.01,1.0
2026/05/14 10:34:25.639,-0.017,0.013,1.001
2026/05/14 10:34:25.658,-0.023,0.009,1.007
2026/05/14 10:34:25.678,-0.026,-0.001,1.002
2026/05/14 10:34:25.698,-0.026,-0.002,0.993
2026/05/14 10:34:25.717,-0.029,0.0,0.997
2026/05/14 10:34:25.737,-0.027,0.003,0.999
2026/05/14 10:34:25.756,-0.028,0.019,1.001
2026/05/14 10:34:25.776,-0.03,0.017,0.999
2026/05/14 10:34:25.796,-0.032,0.009,1.003
2026/05/14 10:34:25.815,-0.029,-0.004,1.0
2026/05/14 10:34:25.835,-0.027,0.001,0.996
2026/05/14 10:34:25.854,-0.022,0.006,0.995
2026/05/14 10:34:25.874,-0.022,0.004,1.003
2026/05/14 10:34:25.894,-0.019,0.01,1.0
2026/05/14 10:34:25.913,-0.022,0.011,0.998
2026/05/14 10:34:25.933,-0.024,0.009,1.001
2026/05/14 10:34:25.952,-0.023,0.004,1.005
2026/05/14 10:34:25.972,-0.026,0.006,1.003
2026/05/14 10:34:25.992,-0.031,0.007,0.997
2026/05/14 10:34:26.011,-0.031,0.01,1.002
2026/05/14 10:34:26.031,-0.029,0.003,0.998
2026/05/14 10:34:26.050,-0.023,0.008,0.993
2026/05/14 10:34:26.070,-0.024,0.011,0.995
2026/05/14 10:34:26.090,-0.022,0.004,1.004
2026/05/14 10:34:26.109,-0.021,0.008,1.001
2026/05/14 10:34:26.129,-0.024,0.008,1.0
2026/05/14 10:34:26.148,-0.025,0.006,1.0
2026/05/14 10:34:26.168,-0.023,0.005,1.005
2026/05/14 10:34:26.188,-0.023,0.002,1.002
2026/05/14 10:34:26.207,-0.026,0.008,0.996
2026/05/14 10:34:26.227,-0.027,0.01,1.002
2026/05/14 10:34:26.246,-0.03,0.01,1.004
2026/05/14 10:34:26.266,-0.031,0.01,0.996
2026/05/14 10:34:26.286,-0.029,0.011,0.999
2026/05/14 10:34:26.305,-0.03,-0.001,1.004
2026/05/14 10:34:26.325,-0.025,0.003,0.996
2026/05/14 10:34:26.344,-0.03,0.003,0.998
2026/05/14 10:34:26.364,-0.029,0.004,1.005
2026/05/14 10:34:26.384,-0.026,0.008,1.004
2026/05/14 10:34:26.403,-0.015,0.007,1.0
2026/05/14 10:34:26.423,-0.021,0.007,1.002
2026/05/14 10:34:26.442,-0.024,0.004,1.008
2026/05/14 10:34:26.462,-0.026,0.002,1.002
2026/05/14 10:34:26.482,-0.025,0.007,0.988
2026/05/14 10:34:26.501,-0.029,0.004,0.995
2026/05/14 10:34:26.521,-0.03,0.006,1.003
2026/05/14 10:34:26.540,-0.036,0.011,0.994
2026/05/14 10:34:26.560,-0.025,0.007,0.996
2026/05/14 10:34:26.580,-0.03,0.003,0.999
2026/05/14 10:34:26.599,-0.031,0.006,0.998
2026/05/14 10:34:26.619,-0.025,0.013,0.996
2026/05/14 10:34:26.638,-0.022,0.015,1.011
2026/05/14 10:34:26.658,-0.02,0.01,1.003
2026/05/14 10:34:26.678,-0.018,0.005,0.998
2026/05/14 10:34:26.697,-0.02,-0.002,0.999
2026/05/14 10:34:26.717,-0.025,-0.001,0.996
2026/05/14 10:34:26.736,-0.026,0.003,0.999
2026/05/14 10:34:26.756,-0.028,0.005,0.998
2026/05/14 10:34:26.776,-0.026,0.013,1.004
2026/05/14 10:34:26.795,-0.028,0.018,1.001
2026/05/14 10:34:26.815,-0.032,0.007,1.002
2026/05/14 10:34:26.834,-0.034,0.007,0.997
2026/05/14 10:34:26.854,-0.031,-0.001,0.999
2026/05/14 10:34:26.873,-0.029,0.002,1.002
2026/05/14 10:34:26.893,-0.024,0.006,0.998
2026/05/14 10:34:26.913,-0.021,0.008,1.002
2026/05/14 10:34:26.932,-0.014,0.008,1.003
2026/05/14 10:34:26.952,-0.017,0.009,1.003
2026/05/14 10:34:26.971,-0.021,0.007,1.0
2026/05/14 10:34:26.991,-0.029,0.006,0.996
2026/05/14 10:34:27.011,-0.028,0.006,1.001
2026/05/14 10:34:27.030,-0.026,0.006,1.0
2026/05/14 10:34:27.050,-0.032,0.009,0.996
2026/05/14 10:34:27.069,-0.033,0.012,1.0
2026/05/14 10:34:27.089,-0.024,0.008,1.0
2026/05/14 10:34:27.109,-0.027,0.006,1.0
2026/05/14 10:34:27.128,-0.024,0.011,1.0
2026/05/14 10:34:27.148,-0.022,0.007,1.001
2026/05/14 10:34:27.167,-0.021,0.002,1.003
2026/05/14 10:34:27.187,-0.024,0.0,1.001
2026/05/14 10:34:27.207,-0.023,0.004,1.002
2026/05/14 10:34:27.226,-0.024,0.01,1.0
2026/05/14 10:34:27.246,-0.024,0.01,1.004
2026/05/14 10:34:27.265,-0.027,0.011,0.999
2026/05/14 10:34:27.285,-0.029,0.006,1.001
2026/05/14 10:34:27.305,-0.033,0.003,0.997
2026/05/14 10:34:27.324,-0.031,0.003,0.998
2026/05/14 10:34:27.344,-0.025,0.007,1.002
2026/05/14 10:34:27.363,-0.028,0.007,1.0
2026/05/14 10:34:27.383,-0.021,0.009,1.001
2026/05/14 10:34:27.403,-0.024,0.009,1.001
2026/05/14 10:34:27.422,-0.021,0.007,0.998
2026/05/14 10:34:27.442,-0.02,0.005,1.005
2026/05/14 10:34:27.461,-0.022,0.003,0.998
2026/05/14 10:34:27.481,-0.025,0.008,1.0
2026/05/14 10:34:27.501,-0.025,0.006,1.0
2026/05/14 10:34:27.520,-0.028,0.011,1.0
2026/05/14 10:34:27.540,-0.025,0.006,0.999
2026/05/14 10:34:27.559,-0.032,0.01,1.001
2026/05/14 10:34:27.579,-0.026,0.006,1.0
2026/05/14 10:34:27.599,-0.028,0.008,1.001
2026/05/14 10:34:27.618,-0.025,0.002,1.0
2026/05/14 10:34:27.638,-0.022,0.007,1.001
2026/05/14 10:34:27.657,-0.022,0.003,1.0
2026/05/14 10:34:27.677,-0.023,0.004,1.003
2026/05/14 10:34:27.697,-0.023,0.006,1.0
2026/05/14 10:34:27.716,-0.025,0.005,0.998
2026/05/14 10:34:27.736,-0.027,0.007,1.001
2026/05/14 10:34:27.755,-0.027,0.008,1.0
2026/05/14 10:34:27.775,-0.028,0.01,0.994
2026/05/14 10:34:27.795,-0.031,0.006,1.003
2026/05/14 10:34:27.814,-0.024,0.007,1.003
2026/05/14 10:34:27.834,-0.026,0.007,0.998
2026/05/14 10:34:27.853,-0.024,0.008,1.002
2026/05/14 10:34:27.873,-0.027,0.0,1.0
2026/05/14 10:34:27.893,-0.024,0.007,1.0
2026/05/14 10:34:27.912,-0.026,0.004,0.998
2026/05/14 10:34:27.932,-0.025,0.009,1.002
2026/05/14 10:34:27.951,-0.028,0.003,0.995
2026/05/14 10:34:27.971,-0.022,0.004,0.999
2026/05/14 10:34:27.991,-0.026,0.008,1.0
2026/05/14 10:34:28.010,-0.027,0.009,0.998
2026/05/14 10:34:28.030,-0.028,0.011,0.999
2026/05/14 10:34:28.049,-0.026,0.006,1.002
2026/05/14 10:34:28.069,-0.028,0.006,1.0
2026/05/14 10:34:28.089,-0.025,0.007,1.005
2026/05/14 10:34:28.108,-0.026,0.008,1.0
2026/05/14 10:34:28.128,-0.019,0.005,1.001
2026/05/14 10:34:28.147,-0.02,0.003,1.001
2026/05/14 10:34:28.167,-0.024,0.007,1.004
2026/05/14 10:34:28.187,-0.024,0.009,0.998
2026/05/14 10:34:28.206,-0.026,0.005,0.999
2026/05/14 10:34:28.226,-0.027,0.009,1.003
2026/05/14 10:34:28.245,-0.026,0.006,1.002
2026/05/14 10:34:28.265,-0.028,0.008,0.998
2026/05/14 10:34:28.285,-0.029,0.006,0.998
2026/05/14 10:34:28.304,-0.018,0.013,1.028
2026/05/14 10:34:28.324,-0.028,0.001,0.993
2026/05/14 10:34:28.343,-0.025,0.008,0.998
2026/05/14 10:34:28.363,-0.026,0.013,1.008
2026/05/14 10:34:28.383,-0.021,0.012,0.998
2026/05/14 10:34:28.402,-0.02,0.009,0.999
2026/05/14 10:34:28.422,-0.021,0.002,1.002
2026/05/14 10:34:28.441,-0.019,0.007,1.002
2026/05/14 10:34:28.461,-0.023,0.011,1.0
2026/05/14 10:34:28.481,-0.032,0.023,1.031
2026/05/14 10:34:28.500,-0.014,-0.016,1.006
2026/05/14 10:34:28.520,-0.02,0.014,0.93
2026/05/14 10:34:28.539,-0.026,-0.003,1.001
2026/05/14 10:34:28.559,-0.031,-0.009,1.003
2026/05/14 10:34:28.579,-0.035,0.008,0.973
2026/05/14 10:34:28.598,-0.048,0.021,0.962
2026/05/14 10:34:28.618,-0.065,0.0,1.005
2026/05/14 10:34:28.637,-0.065,0.004,1.001
2026/05/14 10:34:28.657,-0.036,0.013,0.994
2026/05/14 10:34:28.676,-0.021,0.016,0.982
2026/05/14 10:34:28.696,-0.028,0.029,1.004
2026/05/14 10:34:28.716,-0.021,0.012,1.009
2026/05/14 10:34:28.735,-0.008,-0.001,1.005
2026/05/14 10:34:28.755,-0.001,0.0,1.035
2026/05/14 10:34:28.774,0.001,-0.007,1.004
2026/05/14 10:34:28.794,0.005,-0.009,0.997
2026/05/14 10:34:28.814,-0.004,-0.018,0.996
2026/05/14 10:34:28.833,-0.013,-0.007,1.021
2026/05/14 10:34:28.853,-0.023,0.008,0.986
2026/05/14 10:34:28.872,-0.036,0.029,0.998
2026/05/14 10:34:28.892,-0.051,0.032,1.04
2026/05/14 10:34:28.912,-0.057,0.026,0.996
2026/05/14 10:34:28.931,-0.049,0.012,0.977
2026/05/14 10:34:28.951,-0.043,-0.011,0.999
2026/05/14 10:34:28.970,-0.039,-0.014,0.99
2026/05/14 10:34:28.990,-0.01,0.001,1.029
2026/05/14 10:34:29.010,-0.008,0.019,1.016
2026/05/14 10:34:29.029,0.01,0.022,1.006
2026/05/14 10:34:29.049,0.001,0.008,1.009
2026/05/14 10:34:29.068,-0.012,-0.011,0.998
2026/05/14 10:34:29.088,-0.026,-0.016,0.993
2026/05/14 10:34:29.108,-0.032,0.005,0.998
2026/05/14 10:34:29.127,-0.038,0.017,1.005
2026/05/14 10:34:29.147,-0.044,0.022,0.996
2026/05/14 10:34:29.166,-0.039,0.021,1.0
2026/05/14 10:34:29.186,-0.04,0.011,0.991
2026/05/14 10:34:29.206,-0.035,0.005,0.998
2026/05/14 10:34:29.225,-0.026,0.005,0.999
2026/05/14 10:34:29.245,-0.015,0.009,1.005
2026/05/14 10:34:29.264,-0.011,0.004,1.002
2026/05/14 10:34:29.284,-0.007,0.001,1.005
2026/05/14 10:34:29.304,-0.008,-0.005,1.001
2026/05/14 10:34:29.323,-0.015,0.001,0.996
2026/05/14 10:34:29.343,-0.02,0.011,0.996
2026/05/14 10:34:29.362,-0.028,0.018,1.002
2026/05/14 10:34:29.382,-0.036,0.019,0.995
2026/05/14 10:34:29.402,-0.042,0.01,0.998
2026/05/14 10:34:29.421,-0.042,0.006,0.997
2026/05/14 10:34:29.441,-0.038,0.001,0.997
2026/05/14 10:34:29.460,-0.027,0.007,1.003
2026/05/14 10:34:29.480,-0.018,0.01,1.003
2026/05/14 10:34:29.500,-0.013,0.008,1.002
2026/05/14 10:34:29.519,-0.006,0.001,1.006
2026/05/14 10:34:29.539,-0.013,-0.005,0.998
2026/05/14 10:34:29.558,-0.013,-0.004,0.998
2026/05/14 10:34:29.578,-0.023,0.005,1.001
2026/05/14 10:34:29.598,-0.026,0.014,1.003
2026/05/14 10:34:29.617,-0.03,0.016,1.006
2026/05/14 10:34:29.637,-0.034,0.012,0.996
2026/05/14 10:34:29.656,-0.038,0.008,1.0
2026/05/14 10:34:29.676,-0.037,0.006,0.996
2026/05/14 10:34:29.696,-0.027,0.006,1.003
2026/05/14 10:34:29.715,-0.02,0.009,1.0
2026/05/14 10:34:29.735,-0.012,0.008,1.004
2026/05/14 10:34:29.754,-0.014,0.006,1.002
2026/05/14 10:34:29.774,-0.014,0.001,0.997
2026/05/14 10:34:29.794,-0.018,0.003,1.003
2026/05/14 10:34:29.813,-0.019,0.006,1.001
2026/05/14 10:34:29.833,-0.029,0.012,1.002
2026/05/14 10:34:29.852,-0.032,0.011,0.997
2026/05/14 10:34:29.872,-0.032,0.007,0.995
2026/05/14 10:34:29.891,-0.032,0.007,0.998
2026/05/14 10:34:29.911,-0.028,0.002,0.997
2026/05/14 10:34:29.931,-0.027,0.007,1.0
2026/05/14 10:34:29.950,-0.022,0.009,1.003
2026/05/14 10:34:29.970,-0.017,0.007,1.002
2026/05/14 10:34:29.989,-0.013,0.002,0.999
2026/05/14 10:34:30.009,-0.018,0.001,0.997
2026/05/14 10:34:30.029,-0.017,0.002,1.001
2026/05/14 10:34:30.048,-0.022,0.009,1.0
2026/05/14 10:34:30.068,-0.029,0.008,1.001
2026/05/14 10:34:30.087,-0.029,0.004,1.001
2026/05/14 10:34:30.107,-0.033,0.006,0.996
2026/05/14 10:34:30.127,-0.036,0.004,0.995
2026/05/14 10:34:30.146,-0.027,0.011,1.0
2026/05/14 10:34:30.166,-0.025,0.01,1.0
2026/05/14 10:34:30.185,-0.022,0.009,1.006
2026/05/14 10:34:30.205,-0.016,0.007,1.005
2026/05/14 10:34:30.225,-0.015,0.001,1.0
2026/05/14 10:34:30.244,-0.021,0.003,1.0
2026/05/14 10:34:30.264,-0.019,0.006,1.003
2026/05/14 10:34:30.283,-0.026,0.005,1.001
2026/05/14 10:34:30.303,-0.028,0.007,1.0
2026/05/14 10:34:30.323,-0.031,0.014,1.0
2026/05/14 10:34:30.342,-0.029,0.01,1.001
2026/05/14 10:34:30.362,-0.029,0.007,0.996
2026/05/14 10:34:30.381,-0.032,0.006,1.005
2026/05/14 10:34:30.401,-0.023,0.006,0.996
2026/05/14 10:34:30.421,-0.023,0.005,1.002
2026/05/14 10:34:30.440,-0.022,0.007,1.001
2026/05/14 10:34:30.460,-0.017,0.002,1.001
2026/05/14 10:34:30.479,-0.021,0.006,1.001
2026/05/14 10:34:30.499,-0.022,0.006,0.999
2026/05/14 10:34:30.519,-0.025,0.004,1.003
2026/05/14 10:34:30.538,-0.025,0.006,1.003
2026/05/14 10:34:30.558,-0.027,0.008,1.0
2026/05/14 10:34:30.577,-0.031,0.008,1.0
2026/05/14 10:34:30.597,-0.03,0.009,0.999
2026/05/14 10:34:30.617,-0.028,0.008,0.999
2026/05/14 10:34:30.636,-0.025,0.007,0.998
2026/05/14 10:34:30.656,-0.022,0.003,0.999
2026/05/14 10:34:30.675,-0.021,0.005,0.998
2026/05/14 10:34:30.695,-0.018,0.001,1.0
2026/05/14 10:34:30.715,-0.019,0.003,0.999
2026/05/14 10:34:30.734,-0.023,0.007,1.004
2026/05/14 10:34:30.754,-0.027,0.006,1.001
2026/05/14 10:34:30.773,-0.026,0.01,1.002
2026/05/14 10:34:30.793,-0.03,0.006,0.997
2026/05/14 10:34:30.813,-0.03,0.009,0.996
2026/05/14 10:34:30.832,-0.028,0.005,0.998
2026/05/14 10:34:30.852,-0.027,0.006,0.999
2026/05/14 10:34:30.871,-0.026,0.01,1.0
2026/05/14 10:34:30.891,-0.022,0.007,1.002
2026/05/14 10:34:30.911,-0.021,0.009,1.001
2026/05/14 10:34:30.930,-0.02,0.004,1.0
2026/05/14 10:34:30.950,-0.021,0.007,1.006
2026/05/14 10:34:30.969,-0.021,0.007,0.998
2026/05/14 10:34:30.989,-0.025,0.007,0.999
2026/05/14 10:34:31.009,-0.025,0.008,0.999
2026/05/14 10:34:31.028,-0.029,0.008,0.996
2026/05/14 10:34:31.048,-0.028,0.007,0.997
2026/05/14 10:34:31.067,-0.028,0.008,1.001
2026/05/14 10:34:31.087,-0.025,0.004,1.0
2026/05/14 10:34:31.107,-0.023,0.009,0.999
2026/05/14 10:34:31.126,-0.026,0.008,0.998
2026/05/14 10:34:31.146,-0.018,0.006,1.003
2026/05/14 10:34:31.165,-0.025,0.005,0.999
2026/05/14 10:34:31.185,-0.025,0.008,1.001
2026/05/14 10:34:31.205,-0.024,0.005,1.001
2026/05/14 10:34:31.224,-0.022,0.005,1.001
2026/05/14 10:34:31.244,-0.027,0.006,0.999
2026/05/14 10:34:31.263,-0.028,0.007,1.0
2026/05/14 10:34:31.283,-0.029,0.005,1.002
2026/05/14 10:34:31.303,-0.027,0.007,1.0
2026/05/14 10:34:31.322,-0.025,0.006,1.0
2026/05/14 10:34:31.342,-0.025,0.003,0.997
2026/05/14 10:34:31.361,-0.022,0.008,0.996
2026/05/14 10:34:31.381,-0.022,0.003,0.997
2026/05/14 10:34:31.401,-0.02,0.005,1.002
2026/05/14 10:34:31.420,-0.025,0.008,1.001
2026/05/14 10:34:31.440,-0.023,0.009,1.003
2026/05/14 10:34:31.459,-0.027,0.006,0.993
2026/05/14 10:34:31.479,-0.028,0.009,0.985
2026/05/14 10:34:31.498,-0.026,0.005,1.004
2026/05/14 10:34:31.518,-0.025,0.007,1.002
2026/05/14 10:34:31.538,-0.022,0.004,0.998
2026/05/14 10:34:31.557,-0.021,0.01,1.002
2026/05/14 10:34:31.577,-0.019,0.014,1.009
2026/05/14 10:34:31.596,-0.022,0.012,1.0
2026/05/14 10:34:31.616,-0.024,0.003,0.999
2026/05/14 10:34:31.636,-0.025,-0.003,1.007
2026/05/14 10:34:31.655,-0.022,0.005,1.008
2026/05/14 10:34:31.675,-0.025,0.006,1.002
2026/05/14 10:34:31.694,-0.027,0.004,0.994
2026/05/14 10:34:31.714,-0.026,0.006,1.009
2026/05/14 10:34:31.734,-0.012,0.011,0.973
2026/05/14 10:34:31.753,-0.022,0.001,1.004
2026/05/14 10:34:31.773,-0.017,-0.001,1.054
2026/05/14 10:34:31.792,-0.019,0.012,0.991
2026/05/14 10:34:31.812,-0.02,0.016,0.983
2026/05/14 10:34:31.832,-0.035,-0.005,0.98
2026/05/14 10:34:31.851,-0.039,-0.009,1.035
2026/05/14 10:34:31.871,-0.035,0.005,1.004
2026/05/14 10:34:31.890,-0.013,0.018,0.979
2026/05/14 10:34:31.910,-0.03,0.018,0.982
2026/05/14 10:34:31.930,-0.028,0.01,0.993
2026/05/14 10:34:31.949,-0.022,0.012,1.026
2026/05/14 10:34:31.969,-0.023,-0.005,0.952
2026/05/14 10:34:31.988,-0.019,0.008,0.997
2026/05/14 10:34:32.008,-0.024,0.004,1.003
2026/05/14 10:34:32.028,-0.031,0.092,0.629
2026/05/14 10:34:32.047,-0.021,0.012,0.7
2026/05/14 10:34:32.067,-0.031,-0.046,1.03
2026/05/14 10:34:32.086,-0.037,-0.045,1.206
2026/05/14 10:34:32.106,-0.034,-0.007,0.885
2026/05/14 10:34:32.126,0.0,0.044,1.0
2026/05/14 10:34:32.145,-0.018,-0.01,0.935
2026/05/14 10:34:32.165,-0.022,-0.015,1.043
2026/05/14 10:34:32.184,-0.009,0.014,1.008
2026/05/14 10:34:32.204,-0.026,0.016,0.986
2026/05/14 10:34:32.224,-0.017,0.024,1.025
2026/05/14 10:34:32.243,-0.037,-0.005,1.024
2026/05/14 10:34:32.263,-0.034,-0.006,1.005
2026/05/14 10:34:32.282,-0.032,0.004,0.943
2026/05/14 10:34:32.302,-0.029,0.012,0.977
2026/05/14 10:34:32.322,-0.028,0.008,1.028
2026/05/14 10:34:32.341,-0.028,0.016,1.023
2026/05/14 10:34:32.361,-0.015,0.022,1.003
2026/05/14 10:34:32.380,-0.02,0.01,0.999
2026/05/14 10:34:32.400,-0.026,-0.016,1.01
2026/05/14 10:34:32.420,-0.025,-0.011,0.996
2026/05/14 10:34:32.439,-0.016,0.009,0.983
2026/05/14 10:34:32.459,-0.02,0.01,0.994
2026/05/14 10:34:32.478,-0.026,0.01,1.015
2026/05/14 10:34:32.498,-0.03,0.006,1.018
2026/05/14 10:34:32.518,-0.029,0.01,0.987
2026/05/14 10:34:32.537,-0.025,0.009,0.99
2026/05/14 10:34:32.557,-0.036,0.005,1.004
2026/05/14 10:34:32.576,-0.03,0.007,1.004
2026/05/14 10:34:32.596,-0.022,0.013,0.99
2026/05/14 10:34:32.616,-0.022,0.007,0.997
2026/05/14 10:34:32.635,-0.021,-0.003,1.012
2026/05/14 10:34:32.655,-0.019,0.001,1.007
2026/05/14 10:34:32.674,-0.023,0.009,0.997
2026/05/14 10:34:32.694,-0.023,0.006,0.996
2026/05/14 10:34:32.714,-0.023,0.005,1.004
2026/05/14 10:34:32.733,-0.023,0.005,1.01
2026/05/14 10:34:32.753,-0.028,0.009,0.994
2026/05/14 10:34:32.772,-0.03,0.011,0.996
2026/05/14 10:34:32.792,-0.031,0.009,1.008
2026/05/14 10:34:32.812,-0.028,0.009,1.0
2026/05/14 10:34:32.831,-0.025,0.011,0.993
2026/05/14 10:34:32.851,-0.024,0.003,0.996
2026/05/14 10:34:32.870,-0.02,-0.002,1.007
2026/05/14 10:34:32.890,-0.017,0.002,1.007
2026/05/14 10:34:32.909,-0.017,0.008,0.98
2026/05/14 10:34:32.929,-0.023,0.006,1.0
2026/05/14 10:34:32.949,-0.03,0.001,1.025
2026/05/14 10:34:32.968,-0.027,0.006,1.0
2026/05/14 10:34:32.988,-0.026,0.019,0.986
2026/05/14 10:34:33.007,-0.026,0.007,1.0
2026/05/14 10:34:33.027,-0.025,0.006,1.017
2026/05/14 10:34:33.047,-0.026,0.006,0.996
2026/05/14 10:34:33.066,-0.027,0.01,0.988
2026/05/14 10:34:33.086,-0.025,0.001,1.001
2026/05/14 10:34:33.105,-0.023,0.0,1.012
2026/05/14 10:34:33.125,-0.023,0.001,0.999
2026/05/14 10:34:33.145,-0.019,0.009,0.988
2026/05/14 10:34:33.164,-0.023,0.008,1.001
2026/05/14 10:34:33.184,-0.025,0.002,1.014
2026/05/14 10:34:33.203,-0.024,0.006,1.0
2026/05/14 10:34:33.223,-0.024,0.008,0.985
2026/05/14 10:34:33.243,-0.027,0.001,1.0
2026/05/14 10:34:33.262,-0.029,0.008,1.008
2026/05/14 10:34:33.282,-0.027,0.01,1.0
2026/05/14 10:34:33.301,-0.025,0.013,0.996
2026/05/14 10:34:33.321,-0.025,0.008,1.001
2026/05/14 10:34:33.341,-0.025,0.002,1.008
2026/05/14 10:34:33.360,-0.021,0.003,0.994
2026/05/14 10:34:33.380,-0.019,0.002,0.992
2026/05/14 10:34:33.399,-0.023,0.005,0.999
2026/05/14 10:34:33.419,-0.024,0.003,1.009
2026/05/14 10:34:33.439,-0.024,0.01,0.996
2026/05/14 10:34:33.458,-0.025,0.011,0.995
2026/05/14 10:34:33.478,-0.026,0.007,1.003
2026/05/14 10:34:33.497,-0.029,0.006,1.0
2026/05/14 10:34:33.517,-0.03,0.005,0.996
2026/05/14 10:34:33.537,-0.026,0.008,0.995
2026/05/14 10:34:33.556,-0.024,0.004,1.002
2026/05/14 10:34:33.576,-0.023,0.007,1.007
2026/05/14 10:34:33.595,-0.018,0.005,1.0
2026/05/14 10:34:33.615,-0.019,0.006,0.993
2026/05/14 10:34:33.635,-0.024,0.002,1.004
2026/05/14 10:34:33.654,-0.026,0.005,1.003
2026/05/14 10:34:33.674,-0.027,0.009,0.996
2026/05/14 10:34:33.693,-0.027,0.006,0.996
2026/05/14 10:34:33.713,-0.03,0.005,1.003
2026/05/14 10:34:33.733,-0.025,0.01,1.007
2026/05/14 10:34:33.752,-0.026,0.008,0.995
2026/05/14 10:34:33.772,-0.025,0.011,0.998
2026/05/14 10:34:33.791,-0.026,0.005,1.004
2026/05/14 10:34:33.811,-0.019,0.005,1.004
2026/05/14 10:34:33.831,-0.02,0.004,0.995
2026/05/14 10:34:33.850,-0.022,0.003,1.0
2026/05/14 10:34:33.870,-0.019,0.004,1.004
2026/05/14 10:34:33.889,-0.021,0.007,1.006
2026/05/14 10:34:33.909,-0.024,0.01,0.999
2026/05/14 10:34:33.929,-0.028,0.006,0.997
2026/05/14 10:34:33.948,-0.031,0.007,1.002
2026/05/14 10:34:33.968,-0.03,0.006,0.996
2026/05/14 10:34:33.987,-0.026,0.008,0.997
2026/05/14 10:34:34.007,-0.029,0.008,1.0
2026/05/14 10:34:34.026,-0.028,0.007,1.009
2026/05/14 10:34:34.046,-0.021,0.003,1.003
2026/05/14 10:34:34.066,-0.024,0.008,1.003
2026/05/14 10:34:34.085,-0.025,0.005,1.002
2026/05/14 10:34:34.105,-0.019,0.004,1.005
2026/05/14 10:34:34.124,-0.026,0.005,1.001
2026/05/14 10:34:34.144,-0.025,0.002,0.996
2026/05/14 10:34:34.164,-0.026,0.008,1.001
2026/05/14 10:34:34.183,-0.03,0.005,1.001
2026/05/14 10:34:34.203,-0.024,0.007,0.998
2026/05/14 10:34:34.222,-0.024,0.011,0.998
2026/05/14 10:34:34.242,-0.025,0.004,1.001
2026/05/14 10:34:34.262,-0.028,0.007,1.0
2026/05/14 10:34:34.281,-0.022,0.005,1.0
2026/05/14 10:34:34.301,-0.021,0.009,1.001
2026/05/14 10:34:34.320,-0.019,0.005,1.001
2026/05/14 10:34:34.340,-0.026,0.005,1.005
2026/05/14 10:34:34.360,-0.024,0.007,0.998
2026/05/14 10:34:34.379,-0.023,0.01,0.998
2026/05/14 10:34:34.399,-0.027,0.006,1.004
2026/05/14 10:34:34.418,-0.029,0.005,1.004
2026/05/14 10:34:34.438,-0.027,0.011,0.995
2026/05/14 10:34:34.458,-0.023,0.008,1.0
2026/05/14 10:34:34.477,-0.025,0.008,1.002
2026/05/14 10:34:34.497,-0.024,0.006,1.002
2026/05/14 10:34:34.516,-0.025,0.004,0.998
2026/05/14 10:34:34.536,-0.021,0.009,1.002
2026/05/14 10:34:34.556,-0.025,0.005,1.001
2026/05/14 10:34:34.575,-0.026,0.005,1.003
2026/05/14 10:34:34.595,-0.026,0.01,0.996
2026/05/14 10:34:34.614,-0.024,0.003,0.999
2026/05/14 10:34:34.634,-0.026,0.006,1.001
2026/05/14 10:34:34.654,-0.029,0.006,0.998
2026/05/14 10:34:34.673,-0.024,0.003,0.998
2026/05/14 10:34:34.693,-0.028,0.008,1.005
2026/05/14 10:34:34.712,-0.024,0.005,1.002
2026/05/14 10:34:34.732,-0.022,0.007,1.0
2026/05/14 10:34:34.752,-0.023,0.005,0.996
2026/05/14 10:34:34.771,-0.024,0.005,1.003
2026/05/14 10:34:34.791,-0.022,0.002,1.004
2026/05/14 10:34:34.810,-0.023,0.005,1.001
2026/05/14 10:34:34.830,-0.017,0.007,1.003
2026/05/14 10:34:34.850,-0.024,0.004,0.998
2026/05/14 10:34:34.869,-0.024,0.007,1.0
2026/05/14 10:34:34.889,-0.021,0.006,0.999
2026/05/14 10:34:34.908,-0.029,0.006,1.001
2026/05/14 10:34:34.928,-0.028,0.005,1.0
2026/05/14 10:34:34.948,-0.027,0.01,1.002
2026/05/14 10:34:34.967,-0.022,0.007,0.995
2026/05/14 10:34:34.987,-0.026,0.004,0.993
2026/05/14 10:34:35.006,-0.028,0.005,0.996
2026/05/14 10:34:35.026,-0.023,0.007,0.997
2026/05/14 10:34:35.046,-0.024,0.004,0.999
2026/05/14 10:34:35.065,-0.022,0.003,0.999
2026/05/14 10:34:35.085,-0.024,0.01,1.003
2026/05/14 10:34:35.104,-0.027,0.01,1.0
2026/05/14 10:34:35.124,-0.029,0.007,1.002
2026/05/14 10:34:35.144,-0.029,0.007,1.002
2026/05/14 10:34:35.163,-0.025,0.008,1.003
2026/05/14 10:34:35.183,-0.025,0.006,0.997
2026/05/14 10:34:35.202,-0.026,0.004,0.999
2026/05/14 10:34:35.222,-0.019,0.007,1.002
2026/05/14 10:34:35.242,-0.025,0.003,0.999
2026/05/14 10:34:35.261,-0.024,0.01,1.001
2026/05/14 10:34:35.281,-0.023,0.006,0.999
2026/05/14 10:34:35.300,-0.027,0.003,1.0
2026/05/14 10:34:35.320,-0.025,0.009,0.999
2026/05/14 10:34:35.339,-0.021,0.007,1.001
2026/05/14 10:34:35.359,-0.024,0.008,0.999
2026/05/14 10:34:35.379,-0.027,0.003,1.001
2026/05/14 10:34:35.398,-0.026,0.008,1.003
2026/05/14 10:34:35.418,-0.024,0.008,1.002
2026/05/14 10:34:35.437,-0.024,0.006,0.996
2026/05/14 10:34:35.457,-0.02,0.005,1.0
2026/05/14 10:34:35.477,-0.025,0.009,1.001
2026/05/14 10:34:35.496,-0.021,0.005,0.999
2026/05/14 10:34:35.516,-0.024,0.008,1.002
2026/05/14 10:34:35.535,-0.028,0.006,1.005
2026/05/14 10:34:35.555,-0.024,0.006,1.001
2026/05/14 10:34:35.575,-0.024,0.006,0.999
2026/05/14 10:34:35.594,-0.024,0.006,1.0
2026/05/14 10:34:35.614,-0.023,0.01,1.0
2026/05/14 10:34:35.633,-0.024,0.003,1.001
2026/05/14 10:34:35.653,-0.023,0.011,0.995
2026/05/14 10:34:35.673,-0.029,0.01,1.008
2026/05/14 10:34:35.692,-0.026,0.011,0.997
2026/05/14 10:34:35.712,-0.026,0.006,0.996
2026/05/14 10:34:35.731,-0.022,0.002,1.005
2026/05/14 10:34:35.751,-0.022,-0.001,1.0
2026/05/14 10:34:35.771,-0.02,0.005,0.997
2026/05/14 10:34:35.790,-0.02,0.002,0.993
2026/05/14 10:34:35.810,-0.024,0.008,0.998
2026/05/14 10:34:35.829,-0.024,0.007,0.999
2026/05/14 10:34:35.849,-0.027,0.003,1.002
2026/05/14 10:34:35.869,-0.034,0.011,1.002
2026/05/14 10:34:35.888,-0.031,0.007,0.998
2026/05/14 10:34:35.908,-0.029,0.012,0.999
2026/05/14 10:34:35.927,-0.033,0.013,1.002
2026/05/14 10:34:35.947,-0.023,0.008,1.001
2026/05/14 10:34:35.967,-0.024,0.002,1.0
2026/05/14 10:34:35.986,-0.02,0.006,0.999
2026/05/14 10:34:36.006,-0.018,0.004,0.999
2026/05/14 10:34:36.025,-0.016,0.006,1.0
2026/05/14 10:34:36.045,-0.018,0.007,1.003
2026/05/14 10:34:36.065,-0.025,0.005,1.0
2026/05/14 10:34:36.084,-0.027,0.008,1.003
2026/05/14 10:34:36.104,-0.028,0.012,0.999
2026/05/14 10:34:36.123,-0.032,0.007,0.997
2026/05/14 10:34:36.143,-0.028,0.009,0.997
2026/05/14 10:34:36.163,-0.029,0.007,0.998
2026/05/14 10:34:36.182,-0.027,0.01,1.0
2026/05/14 10:34:36.202,-0.022,0.004,0.997
2026/05/14 10:34:36.221,-0.025,0.004,1.002
2026/05/14 10:34:36.241,-0.02,0.002,1.001
2026/05/14 10:34:36.261,-0.025,0.003,1.0
2026/05/14 10:34:36.280,-0.023,0.002,1.001
