Timestamp,ACC X,ACC Y,ACC Z
2026/01/08 10:04:54.179,-0.017,0.053,0.994
2026/01/08 10:04:54.198,-0.015,0.048,0.994
2026/01/08 10:04:54.217,-0.016,0.051,0.992
2026/01/08 10:04:54.236,-0.019,0.047,0.994
2026/01/08 10:04:54.256,-0.015,0.045,0.993
2026/01/08 10:04:54.275,-0.017,0.049,0.997
2026/01/08 10:04:54.294,-0.015,0.051,0.994
2026/01/08 10:04:54.313,-0.017,0.048,0.996
2026/01/08 10:04:54.332,-0.018,0.052,0.994
2026/01/08 10:04:54.352,-0.017,0.052,0.994
2026/01/08 10:04:54.371,-0.013,0.052,0.994
2026/01/08 10:04:54.390,-0.014,0.047,0.992
2026/01/08 10:04:54.409,-0.019,0.05,0.997
2026/01/08 10:04:54.429,-0.015,0.05,0.996
2026/01/08 10:04:54.448,-0.015,0.048,0.997
2026/01/08 10:04:54.467,-0.015,0.047,0.994
2026/01/08 10:04:54.486,-0.015,0.049,0.996
2026/01/08 10:04:54.506,-0.012,0.048,0.995
2026/01/08 10:04:54.525,-0.017,0.047,0.992
2026/01/08 10:04:54.544,-0.017,0.05,0.992
2026/01/08 10:04:54.563,-0.014,0.049,0.995
2026/01/08 10:04:54.582,-0.015,0.049,0.994
2026/01/08 10:04:54.602,-0.017,0.049,0.993
2026/01/08 10:04:54.621,-0.014,0.044,0.996
2026/01/08 10:04:54.640,-0.016,0.05,0.996
2026/01/08 10:04:54.659,-0.012,0.05,0.996
2026/01/08 10:04:54.679,-0.011,0.044,0.998
2026/01/08 10:04:54.698,-0.014,0.049,0.994
2026/01/08 10:04:54.717,-0.017,0.047,0.992
2026/01/08 10:04:54.736,-0.015,0.051,0.995
2026/01/08 10:04:54.756,-0.014,0.047,0.995
2026/01/08 10:04:54.775,-0.016,0.05,0.991
2026/01/08 10:04:54.794,-0.016,0.051,0.993
2026/01/08 10:04:54.813,-0.017,0.046,0.997
2026/01/08 10:04:54.832,-0.015,0.049,0.993
2026/01/08 10:04:54.852,-0.021,0.05,0.998
2026/01/08 10:04:54.871,-0.02,0.046,0.994
2026/01/08 10:04:54.890,-0.014,0.048,0.995
2026/01/08 10:04:54.909,-0.02,0.048,0.989
2026/01/08 10:04:54.929,-0.017,0.045,0.993
2026/01/08 10:04:54.948,-0.016,0.048,0.995
2026/01/08 10:04:54.967,-0.016,0.049,0.995
2026/01/08 10:04:54.986,-0.011,0.044,0.999
2026/01/08 10:04:55.006,-0.014,0.048,0.995
2026/01/08 10:04:55.025,-0.019,0.049,0.996
2026/01/08 10:04:55.044,-0.013,0.049,0.993
2026/01/08 10:04:55.063,-0.014,0.049,0.996
2026/01/08 10:04:55.082,-0.016,0.045,0.994
2026/01/08 10:04:55.102,-0.015,0.048,0.995
2026/01/08 10:04:55.121,-0.017,0.049,0.993
2026/01/08 10:04:55.140,-0.018,0.05,0.995
2026/01/08 10:04:55.159,-0.009,0.048,0.993
2026/01/08 10:04:55.179,-0.016,0.049,0.996
2026/01/08 10:04:55.198,-0.015,0.05,0.996
2026/01/08 10:04:55.217,-0.014,0.05,0.999
2026/01/08 10:04:55.236,-0.016,0.049,0.991
2026/01/08 10:04:55.256,-0.016,0.052,0.991
2026/01/08 10:04:55.275,-0.016,0.047,0.992
2026/01/08 10:04:55.294,-0.016,0.047,0.995
2026/01/08 10:04:55.313,-0.021,0.049,0.995
2026/01/08 10:04:55.332,-0.016,0.051,0.993
2026/01/08 10:04:55.352,-0.015,0.049,0.997
2026/01/08 10:04:55.371,-0.015,0.046,0.994
2026/01/08 10:04:55.390,-0.016,0.052,0.994
2026/01/08 10:04:55.409,-0.015,0.047,0.996
2026/01/08 10:04:55.429,-0.014,0.047,0.992
2026/01/08 10:04:55.448,-0.018,0.049,0.994
2026/01/08 10:04:55.467,-0.016,0.05,0.99
2026/01/08 10:04:55.486,-0.017,0.049,0.992
2026/01/08 10:04:55.506,-0.017,0.048,0.994
2026/01/08 10:04:55.525,-0.013,0.048,0.994
2026/01/08 10:04:55.544,-0.017,0.046,0.995
2026/01/08 10:04:55.563,-0.015,0.051,0.995
2026/01/08 10:04:55.582,-0.016,0.048,0.996
2026/01/08 10:04:55.602,-0.017,0.047,0.995
2026/01/08 10:04:55.621,-0.02,0.048,0.996
2026/01/08 10:04:55.640,-0.016,0.046,0.995
2026/01/08 10:04:55.659,-0.015,0.044,0.994
2026/01/08 10:04:55.679,-0.016,0.048,0.993
2026/01/08 10:04:55.698,-0.017,0.049,0.997
2026/01/08 10:04:55.717,-0.014,0.049,0.994
2026/01/08 10:04:55.736,-0.016,0.045,0.998
2026/01/08 10:04:55.756,-0.014,0.049,0.995
2026/01/08 10:04:55.775,-0.013,0.051,0.994
2026/01/08 10:04:55.794,-0.015,0.055,0.994
2026/01/08 10:04:55.813,-0.017,0.044,0.998
2026/01/08 10:04:55.832,-0.013,0.05,0.993
2026/01/08 10:04:55.852,-0.016,0.048,0.998
2026/01/08 10:04:55.871,-0.011,0.054,0.996
2026/01/08 10:04:55.890,-0.017,0.05,0.995
2026/01/08 10:04:55.909,-0.017,0.046,0.997
2026/01/08 10:04:55.929,-0.018,0.048,0.995
2026/01/08 10:04:55.948,-0.012,0.047,0.988
2026/01/08 10:04:55.967,-0.017,0.046,0.999
2026/01/08 10:04:55.986,-0.014,0.05,0.995
2026/01/08 10:04:56.006,-0.017,0.045,0.999
2026/01/08 10:04:56.025,-0.017,0.049,0.993
2026/01/08 10:04:56.044,-0.018,0.048,0.993
2026/01/08 10:04:56.063,-0.016,0.046,0.998
2026/01/08 10:04:56.082,-0.017,0.049,0.998
2026/01/08 10:04:56.102,-0.015,0.049,0.995
2026/01/08 10:04:56.121,-0.016,0.044,0.994
2026/01/08 10:04:56.140,-0.014,0.051,0.993
2026/01/08 10:04:56.159,-0.015,0.049,0.996
2026/01/08 10:04:56.179,-0.016,0.051,0.991
2026/01/08 10:04:56.198,-0.016,0.052,0.992
2026/01/08 10:04:56.217,-0.015,0.048,0.992
2026/01/08 10:04:56.236,-0.017,0.047,0.997
2026/01/08 10:04:56.256,-0.017,0.053,0.994
2026/01/08 10:04:56.275,-0.012,0.047,0.995
2026/01/08 10:04:56.294,-0.018,0.049,0.998
2026/01/08 10:04:56.313,-0.017,0.051,0.997
2026/01/08 10:04:56.332,-0.013,0.051,0.992
2026/01/08 10:04:56.352,-0.017,0.047,0.996
2026/01/08 10:04:56.371,-0.012,0.051,0.993
2026/01/08 10:04:56.390,-0.018,0.052,0.995
2026/01/08 10:04:56.409,-0.017,0.049,0.991
2026/01/08 10:04:56.429,-0.017,0.047,0.997
2026/01/08 10:04:56.448,-0.013,0.048,0.996
2026/01/08 10:04:56.467,-0.017,0.045,0.993
2026/01/08 10:04:56.486,-0.017,0.051,0.994
2026/01/08 10:04:56.506,-0.015,0.049,0.994
2026/01/08 10:04:56.525,-0.017,0.047,0.992
2026/01/08 10:04:56.544,-0.014,0.05,0.992
2026/01/08 10:04:56.563,-0.017,0.048,0.994
2026/01/08 10:04:56.582,-0.018,0.047,0.995
2026/01/08 10:04:56.602,-0.017,0.049,0.994
2026/01/08 10:04:56.621,-0.017,0.048,0.994
2026/01/08 10:04:56.640,-0.01,0.048,0.992
2026/01/08 10:04:56.659,-0.016,0.052,0.99
2026/01/08 10:04:56.679,-0.016,0.049,0.993
2026/01/08 10:04:56.698,-0.016,0.051,0.993
2026/01/08 10:04:56.717,-0.013,0.047,0.997
2026/01/08 10:04:56.736,-0.015,0.049,0.992
2026/01/08 10:04:56.756,-0.014,0.046,0.994
2026/01/08 10:04:56.775,-0.02,0.053,0.993
2026/01/08 10:04:56.794,-0.016,0.051,0.994
2026/01/08 10:04:56.813,-0.018,0.049,0.993
2026/01/08 10:04:56.832,-0.015,0.049,0.994
2026/01/08 10:04:56.852,-0.014,0.049,0.99
2026/01/08 10:04:56.871,-0.016,0.046,0.995
2026/01/08 10:04:56.890,-0.015,0.048,0.995
2026/01/08 10:04:56.909,-0.019,0.049,0.994
2026/01/08 10:04:56.929,-0.017,0.051,0.995
2026/01/08 10:04:56.948,-0.014,0.048,0.993
2026/01/08 10:04:56.967,-0.015,0.053,0.991
2026/01/08 10:04:56.986,-0.019,0.05,0.994
2026/01/08 10:04:57.006,-0.018,0.049,0.992
2026/01/08 10:04:57.025,-0.016,0.051,0.995
2026/01/08 10:04:57.044,-0.017,0.052,0.991
2026/01/08 10:04:57.063,-0.014,0.048,0.994
2026/01/08 10:04:57.082,-0.012,0.05,0.997
2026/01/08 10:04:57.102,-0.018,0.048,0.994
2026/01/08 10:04:57.121,-0.013,0.049,0.991
2026/01/08 10:04:57.140,-0.015,0.048,0.995
2026/01/08 10:04:57.160,-0.015,0.049,0.993
2026/01/08 10:04:57.179,-0.016,0.046,0.992
2026/01/08 10:04:57.198,-0.016,0.046,0.991
2026/01/08 10:04:57.218,-0.013,0.049,0.994
2026/01/08 10:04:57.237,-0.012,0.05,0.996
2026/01/08 10:04:57.256,-0.015,0.05,0.993
2026/01/08 10:04:57.276,-0.017,0.048,0.996
2026/01/08 10:04:57.295,-0.017,0.048,0.994
2026/01/08 10:04:57.314,-0.016,0.046,0.992
2026/01/08 10:04:57.334,-0.018,0.047,0.994
2026/01/08 10:04:57.353,-0.014,0.046,0.995
2026/01/08 10:04:57.372,-0.016,0.051,0.994
2026/01/08 10:04:57.392,-0.015,0.048,0.996
2026/01/08 10:04:57.411,-0.015,0.051,0.997
2026/01/08 10:04:57.430,-0.014,0.05,0.994
2026/01/08 10:04:57.450,-0.015,0.051,0.994
2026/01/08 10:04:57.469,-0.018,0.047,0.991
2026/01/08 10:04:57.488,-0.017,0.05,0.995
2026/01/08 10:04:57.508,-0.014,0.052,0.994
2026/01/08 10:04:57.527,-0.015,0.051,0.993
2026/01/08 10:04:57.546,-0.018,0.046,0.999
2026/01/08 10:04:57.566,-0.016,0.051,0.996
2026/01/08 10:04:57.585,-0.017,0.049,0.997
2026/01/08 10:04:57.604,-0.018,0.047,0.997
2026/01/08 10:04:57.624,-0.015,0.048,0.995
2026/01/08 10:04:57.643,-0.017,0.051,0.994
2026/01/08 10:04:57.662,-0.014,0.049,0.992
2026/01/08 10:04:57.682,-0.014,0.048,0.993
2026/01/08 10:04:57.701,-0.013,0.049,0.995
2026/01/08 10:04:57.720,-0.015,0.053,0.995
2026/01/08 10:04:57.740,-0.019,0.048,0.992
2026/01/08 10:04:57.759,-0.015,0.052,0.994
2026/01/08 10:04:57.778,-0.017,0.049,0.992
2026/01/08 10:04:57.798,-0.015,0.051,0.992
2026/01/08 10:04:57.817,-0.018,0.048,0.993
2026/01/08 10:04:57.836,-0.016,0.047,0.996
2026/01/08 10:04:57.856,-0.015,0.05,0.99
2026/01/08 10:04:57.875,-0.013,0.05,0.993
2026/01/08 10:04:57.895,-0.017,0.049,0.991
2026/01/08 10:04:57.914,-0.014,0.05,0.992
2026/01/08 10:04:57.933,-0.015,0.049,0.996
2026/01/08 10:04:57.953,-0.013,0.048,0.993
2026/01/08 10:04:57.972,-0.018,0.05,0.996
2026/01/08 10:04:57.991,-0.014,0.048,0.993
2026/01/08 10:04:58.011,-0.018,0.048,0.995
2026/01/08 10:04:58.030,-0.014,0.052,0.991
2026/01/08 10:04:58.049,-0.016,0.047,0.993
2026/01/08 10:04:58.069,-0.014,0.048,0.989
2026/01/08 10:04:58.088,-0.017,0.049,0.996
2026/01/08 10:04:58.107,-0.02,0.047,0.991
2026/01/08 10:04:58.127,-0.017,0.048,0.992
2026/01/08 10:04:58.146,-0.013,0.05,0.992
2026/01/08 10:04:58.165,-0.013,0.046,0.989
2026/01/08 10:04:58.185,-0.017,0.049,0.994
2026/01/08 10:04:58.204,-0.015,0.047,0.992
2026/01/08 10:04:58.223,-0.012,0.047,0.989
2026/01/08 10:04:58.243,-0.014,0.045,0.992
2026/01/08 10:04:58.262,-0.02,0.049,0.996
2026/01/08 10:04:58.281,-0.017,0.049,0.992
2026/01/08 10:04:58.301,-0.013,0.05,0.992
2026/01/08 10:04:58.320,-0.015,0.053,0.996
2026/01/08 10:04:58.339,-0.017,0.046,0.996
2026/01/08 10:04:58.359,-0.016,0.046,0.992
2026/01/08 10:04:58.378,-0.012,0.046,0.992
2026/01/08 10:04:58.397,-0.015,0.051,0.999
2026/01/08 10:04:58.417,-0.016,0.054,0.997
2026/01/08 10:04:58.436,-0.016,0.05,0.994
2026/01/08 10:04:58.455,-0.017,0.049,0.993
2026/01/08 10:04:58.475,-0.018,0.05,0.993
2026/01/08 10:04:58.494,-0.019,0.048,0.995
2026/01/08 10:04:58.513,-0.014,0.051,0.992
2026/01/08 10:04:58.533,-0.016,0.05,0.994
2026/01/08 10:04:58.552,-0.016,0.05,0.993
2026/01/08 10:04:58.571,-0.017,0.047,0.996
2026/01/08 10:04:58.591,-0.017,0.047,0.992
2026/01/08 10:04:58.610,-0.012,0.047,0.994
2026/01/08 10:04:58.629,-0.016,0.051,0.995
2026/01/08 10:04:58.649,-0.018,0.051,0.991
2026/01/08 10:04:58.668,-0.015,0.052,0.992
2026/01/08 10:04:58.687,-0.019,0.052,0.999
2026/01/08 10:04:58.707,-0.015,0.047,0.993
2026/01/08 10:04:58.726,-0.015,0.049,0.99
2026/01/08 10:04:58.745,-0.019,0.05,0.99
2026/01/08 10:04:58.765,-0.019,0.048,0.996
2026/01/08 10:04:58.784,-0.015,0.05,0.998
2026/01/08 10:04:58.803,-0.014,0.047,0.995
2026/01/08 10:04:58.823,-0.013,0.049,0.994
2026/01/08 10:04:58.842,-0.019,0.047,0.991
2026/01/08 10:04:58.861,-0.014,0.051,0.992
2026/01/08 10:04:58.881,-0.017,0.047,0.997
2026/01/08 10:04:58.900,-0.017,0.047,0.994
2026/01/08 10:04:58.919,-0.016,0.051,0.99
2026/01/08 10:04:58.939,-0.017,0.05,0.995
2026/01/08 10:04:58.958,-0.015,0.05,0.998
2026/01/08 10:04:58.977,-0.012,0.046,0.995
2026/01/08 10:04:58.997,-0.017,0.046,0.989
2026/01/08 10:04:59.016,-0.016,0.053,0.992
2026/01/08 10:04:59.036,-0.015,0.049,0.992
2026/01/08 10:04:59.055,-0.016,0.046,0.996
2026/01/08 10:04:59.074,-0.015,0.047,0.992
2026/01/08 10:04:59.094,-0.017,0.048,0.99
2026/01/08 10:04:59.113,-0.013,0.048,0.992
2026/01/08 10:04:59.132,-0.016,0.048,0.999
2026/01/08 10:04:59.152,-0.016,0.048,0.994
2026/01/08 10:04:59.171,-0.016,0.047,0.997
2026/01/08 10:04:59.190,-0.019,0.047,0.992
2026/01/08 10:04:59.210,-0.016,0.047,0.995
2026/01/08 10:04:59.229,-0.02,0.048,0.992
2026/01/08 10:04:59.248,-0.013,0.048,0.994
2026/01/08 10:04:59.268,-0.014,0.049,0.992
2026/01/08 10:04:59.287,-0.016,0.047,0.992
2026/01/08 10:04:59.306,-0.021,0.05,0.995
2026/01/08 10:04:59.326,-0.017,0.048,0.992
2026/01/08 10:04:59.345,-0.016,0.049,0.996
2026/01/08 10:04:59.364,-0.015,0.047,0.993
2026/01/08 10:04:59.384,-0.017,0.049,0.994
2026/01/08 10:04:59.403,-0.016,0.05,0.996
2026/01/08 10:04:59.422,-0.014,0.05,0.994
2026/01/08 10:04:59.442,-0.019,0.048,0.992
2026/01/08 10:04:59.461,-0.016,0.048,0.996
2026/01/08 10:04:59.480,-0.014,0.05,0.991
2026/01/08 10:04:59.500,-0.015,0.047,0.998
2026/01/08 10:04:59.519,-0.017,0.051,0.994
2026/01/08 10:04:59.538,-0.015,0.05,0.994
2026/01/08 10:04:59.558,-0.017,0.05,0.996
2026/01/08 10:04:59.577,-0.016,0.047,0.993
2026/01/08 10:04:59.596,-0.017,0.051,0.996
2026/01/08 10:04:59.616,-0.014,0.048,0.992
2026/01/08 10:04:59.635,-0.022,0.048,0.993
2026/01/08 10:04:59.654,-0.015,0.049,0.993
2026/01/08 10:04:59.674,-0.015,0.048,0.99
2026/01/08 10:04:59.693,-0.011,0.05,0.996
2026/01/08 10:04:59.712,-0.017,0.049,0.993
2026/01/08 10:04:59.732,-0.017,0.052,0.996
2026/01/08 10:04:59.751,-0.018,0.043,0.995
2026/01/08 10:04:59.770,-0.011,0.046,0.989
2026/01/08 10:04:59.790,-0.015,0.05,0.992
2026/01/08 10:04:59.809,-0.016,0.047,0.995
2026/01/08 10:04:59.828,-0.018,0.048,0.996
2026/01/08 10:04:59.848,-0.014,0.051,0.993
2026/01/08 10:04:59.867,-0.013,0.054,0.994
2026/01/08 10:04:59.886,-0.012,0.049,0.993
2026/01/08 10:04:59.906,-0.014,0.05,0.991
2026/01/08 10:04:59.925,-0.017,0.051,0.993
2026/01/08 10:04:59.944,-0.015,0.051,0.995
2026/01/08 10:04:59.964,-0.016,0.048,0.997
2026/01/08 10:04:59.983,-0.019,0.047,0.997
2026/01/08 10:05:00.002,-0.017,0.05,0.998
2026/01/08 10:05:00.022,-0.016,0.048,0.992
2026/01/08 10:05:00.041,-0.016,0.045,0.994
2026/01/08 10:05:00.060,-0.011,0.053,0.994
2026/01/08 10:05:00.080,-0.015,0.05,0.987
2026/01/08 10:05:00.099,-0.015,0.047,0.992
2026/01/08 10:05:00.118,-0.012,0.049,0.995
2026/01/08 10:05:00.138,-0.014,0.05,0.994
2026/01/08 10:05:00.157,-0.017,0.048,0.991
2026/01/08 10:05:00.177,-0.017,0.048,0.994
2026/01/08 10:05:00.196,-0.019,0.048,0.995
2026/01/08 10:05:00.215,-0.016,0.048,1.0
2026/01/08 10:05:00.235,-0.017,0.049,0.992
2026/01/08 10:05:00.254,-0.019,0.05,0.989
2026/01/08 10:05:00.273,-0.016,0.046,0.995
2026/01/08 10:05:00.293,-0.018,0.05,0.992
2026/01/08 10:05:00.312,-0.015,0.051,0.992
2026/01/08 10:05:00.331,-0.015,0.049,0.992
2026/01/08 10:05:00.351,-0.018,0.051,0.99
2026/01/08 10:05:00.370,-0.015,0.048,0.993
2026/01/08 10:05:00.389,-0.012,0.048,0.996
2026/01/08 10:05:00.409,-0.014,0.052,0.992
2026/01/08 10:05:00.428,-0.017,0.047,0.993
2026/01/08 10:05:00.447,-0.019,0.049,0.995
2026/01/08 10:05:00.467,-0.015,0.048,0.993
2026/01/08 10:05:00.486,-0.016,0.047,0.998
2026/01/08 10:05:00.505,-0.019,0.047,1.0
2026/01/08 10:05:00.525,-0.015,0.044,0.999
2026/01/08 10:05:00.544,-0.011,0.049,0.99
2026/01/08 10:05:00.563,-0.015,0.047,0.996
2026/01/08 10:05:00.583,-0.016,0.049,0.993
2026/01/08 10:05:00.602,-0.016,0.048,0.993
2026/01/08 10:05:00.621,-0.016,0.045,0.996
2026/01/08 10:05:00.641,-0.018,0.05,0.992
2026/01/08 10:05:00.660,-0.017,0.049,0.992
2026/01/08 10:05:00.679,-0.016,0.05,0.992
2026/01/08 10:05:00.699,-0.018,0.05,0.995
2026/01/08 10:05:00.718,-0.014,0.048,0.995
2026/01/08 10:05:00.737,-0.017,0.048,0.999
2026/01/08 10:05:00.757,-0.014,0.043,0.996
2026/01/08 10:05:00.776,-0.018,0.051,0.994
2026/01/08 10:05:00.795,-0.016,0.052,0.993
2026/01/08 10:05:00.815,-0.014,0.048,0.995
2026/01/08 10:05:00.834,-0.015,0.048,0.991
2026/01/08 10:05:00.853,-0.014,0.05,0.996
2026/01/08 10:05:00.873,-0.015,0.05,0.992
2026/01/08 10:05:00.892,-0.015,0.046,0.993
2026/01/08 10:05:00.911,-0.02,0.046,0.997
2026/01/08 10:05:00.931,-0.017,0.047,0.994
2026/01/08 10:05:00.950,-0.014,0.051,0.992
2026/01/08 10:05:00.969,-0.015,0.046,0.995
2026/01/08 10:05:00.989,-0.017,0.05,0.992
2026/01/08 10:05:01.008,-0.017,0.048,0.995
2026/01/08 10:05:01.027,-0.011,0.052,0.988
2026/01/08 10:05:01.047,-0.015,0.048,0.986
2026/01/08 10:05:01.066,-0.015,0.05,0.992
2026/01/08 10:05:01.085,-0.018,0.049,0.992
2026/01/08 10:05:01.105,-0.017,0.048,0.994
2026/01/08 10:05:01.124,-0.017,0.05,0.991
2026/01/08 10:05:01.143,-0.015,0.05,0.992
2026/01/08 10:05:01.163,-0.014,0.05,0.993
2026/01/08 10:05:01.182,-0.015,0.053,0.995
2026/01/08 10:05:01.201,-0.014,0.051,0.994
2026/01/08 10:05:01.221,-0.015,0.05,0.989
2026/01/08 10:05:01.240,-0.014,0.046,0.996
2026/01/08 10:05:01.260,-0.015,0.056,0.992
2026/01/08 10:05:01.279,-0.017,0.048,0.996
2026/01/08 10:05:01.298,-0.016,0.049,0.993
2026/01/08 10:05:01.318,-0.017,0.053,0.996
2026/01/08 10:05:01.337,-0.017,0.05,0.998
2026/01/08 10:05:01.356,-0.015,0.047,0.991
2026/01/08 10:05:01.376,-0.017,0.045,0.996
2026/01/08 10:05:01.395,-0.014,0.05,0.99
2026/01/08 10:05:01.414,-0.013,0.049,0.99
2026/01/08 10:05:01.434,-0.016,0.048,0.992
2026/01/08 10:05:01.453,-0.017,0.051,0.994
2026/01/08 10:05:01.472,-0.017,0.05,0.992
2026/01/08 10:05:01.492,-0.012,0.053,0.995
2026/01/08 10:05:01.511,-0.016,0.049,0.996
2026/01/08 10:05:01.530,-0.014,0.051,0.995
2026/01/08 10:05:01.550,-0.019,0.047,0.992
2026/01/08 10:05:01.569,-0.016,0.053,0.993
2026/01/08 10:05:01.588,-0.019,0.049,0.993
2026/01/08 10:05:01.608,-0.013,0.047,0.991
2026/01/08 10:05:01.627,-0.014,0.051,0.995
2026/01/08 10:05:01.646,-0.018,0.047,0.992
2026/01/08 10:05:01.666,-0.018,0.049,0.991
2026/01/08 10:05:01.685,-0.013,0.05,0.99
2026/01/08 10:05:01.704,-0.017,0.052,0.993
2026/01/08 10:05:01.724,-0.015,0.049,0.988
2026/01/08 10:05:01.743,-0.016,0.048,0.994
2026/01/08 10:05:01.762,-0.016,0.05,0.992
2026/01/08 10:05:01.782,-0.016,0.048,0.996
2026/01/08 10:05:01.801,-0.015,0.053,0.997
2026/01/08 10:05:01.820,-0.015,0.057,0.992
2026/01/08 10:05:01.840,-0.015,0.049,0.995
2026/01/08 10:05:01.859,-0.015,0.05,0.991
2026/01/08 10:05:01.878,-0.016,0.051,0.994
2026/01/08 10:05:01.898,-0.015,0.048,0.991
2026/01/08 10:05:01.917,-0.019,0.05,0.997
2026/01/08 10:05:01.936,-0.017,0.047,0.995
2026/01/08 10:05:01.956,-0.017,0.047,0.993
2026/01/08 10:05:01.975,-0.017,0.052,0.995
2026/01/08 10:05:01.994,-0.017,0.045,0.992
2026/01/08 10:05:02.014,-0.015,0.048,0.994
2026/01/08 10:05:02.033,-0.015,0.054,0.996
2026/01/08 10:05:02.052,-0.015,0.046,0.994
2026/01/08 10:05:02.072,-0.012,0.054,0.994
2026/01/08 10:05:02.091,-0.011,0.049,0.994
2026/01/08 10:05:02.110,-0.016,0.051,0.994
2026/01/08 10:05:02.130,-0.016,0.046,0.995
2026/01/08 10:05:02.149,-0.015,0.05,0.993
2026/01/08 10:05:02.168,-0.014,0.05,0.993
2026/01/08 10:05:02.188,-0.019,0.05,0.99
2026/01/08 10:05:02.207,-0.014,0.048,0.993
2026/01/08 10:05:02.226,-0.015,0.049,0.991
2026/01/08 10:05:02.246,-0.013,0.05,0.991
2026/01/08 10:05:02.265,-0.019,0.045,0.993
2026/01/08 10:05:02.284,-0.012,0.049,0.991
2026/01/08 10:05:02.304,-0.019,0.046,0.993
2026/01/08 10:05:02.323,-0.019,0.049,0.995
2026/01/08 10:05:02.343,-0.015,0.048,0.996
2026/01/08 10:05:02.362,-0.018,0.052,0.995
2026/01/08 10:05:02.381,-0.017,0.049,0.992
2026/01/08 10:05:02.401,-0.015,0.048,0.993
2026/01/08 10:05:02.420,-0.014,0.05,0.992
2026/01/08 10:05:02.439,-0.015,0.047,0.992
2026/01/08 10:05:02.459,-0.018,0.052,0.997
2026/01/08 10:05:02.478,-0.013,0.049,0.996
2026/01/08 10:05:02.497,-0.016,0.051,0.994
2026/01/08 10:05:02.517,-0.018,0.047,0.995
2026/01/08 10:05:02.536,-0.019,0.047,0.993
2026/01/08 10:05:02.555,-0.019,0.047,0.991
2026/01/08 10:05:02.575,-0.02,0.051,0.996
2026/01/08 10:05:02.594,-0.017,0.047,0.994
2026/01/08 10:05:02.613,-0.018,0.05,0.996
2026/01/08 10:05:02.633,-0.016,0.049,0.994
2026/01/08 10:05:02.652,-0.014,0.052,0.994
2026/01/08 10:05:02.671,-0.02,0.047,0.993
2026/01/08 10:05:02.691,-0.017,0.049,0.997
2026/01/08 10:05:02.710,-0.014,0.047,0.995
2026/01/08 10:05:02.729,-0.014,0.051,0.995
2026/01/08 10:05:02.749,-0.016,0.048,0.995
2026/01/08 10:05:02.768,-0.016,0.048,0.992
2026/01/08 10:05:02.787,-0.016,0.047,0.995
2026/01/08 10:05:02.807,-0.013,0.05,0.993
2026/01/08 10:05:02.826,-0.018,0.047,0.991
2026/01/08 10:05:02.845,-0.018,0.048,0.991
2026/01/08 10:05:02.865,-0.018,0.047,0.991
2026/01/08 10:05:02.884,-0.014,0.049,0.995
2026/01/08 10:05:02.903,-0.012,0.046,0.996
2026/01/08 10:05:02.923,-0.019,0.051,0.993
2026/01/08 10:05:02.942,-0.018,0.048,0.993
2026/01/08 10:05:02.961,-0.017,0.05,0.992
2026/01/08 10:05:02.981,-0.015,0.05,0.989
2026/01/08 10:05:03.000,-0.015,0.046,0.992
2026/01/08 10:05:03.019,-0.014,0.048,0.992
2026/01/08 10:05:03.039,-0.018,0.045,0.994
2026/01/08 10:05:03.058,-0.015,0.048,0.989
2026/01/08 10:05:03.077,-0.015,0.048,0.995
2026/01/08 10:05:03.097,-0.015,0.046,0.992
2026/01/08 10:05:03.116,-0.016,0.044,0.991
2026/01/08 10:05:03.135,-0.014,0.047,0.992
2026/01/08 10:05:03.155,-0.016,0.05,0.992
2026/01/08 10:05:03.174,-0.017,0.047,0.992
2026/01/08 10:05:03.193,-0.015,0.049,0.992
2026/01/08 10:05:03.213,-0.014,0.047,0.991
2026/01/08 10:05:03.232,-0.014,0.048,0.992
2026/01/08 10:05:03.251,-0.016,0.049,0.993
2026/01/08 10:05:03.271,-0.016,0.046,0.992
2026/01/08 10:05:03.290,-0.016,0.047,0.991
2026/01/08 10:05:03.309,-0.01,0.047,0.997
2026/01/08 10:05:03.329,-0.013,0.047,0.991
2026/01/08 10:05:03.348,-0.011,0.049,0.994
2026/01/08 10:05:03.368,-0.013,0.044,0.997
2026/01/08 10:05:03.387,-0.019,0.053,0.994
2026/01/08 10:05:03.406,-0.016,0.052,0.99
2026/01/08 10:05:03.426,-0.012,0.047,0.991
2026/01/08 10:05:03.445,-0.016,0.052,0.996
2026/01/08 10:05:03.464,-0.018,0.05,0.998
2026/01/08 10:05:03.484,-0.01,0.047,0.995
2026/01/08 10:05:03.503,-0.012,0.053,0.995
2026/01/08 10:05:03.522,-0.016,0.053,0.997
2026/01/08 10:05:03.542,-0.014,0.051,0.996
2026/01/08 10:05:03.561,-0.013,0.047,0.995
2026/01/08 10:05:03.580,-0.015,0.049,0.992
2026/01/08 10:05:03.600,-0.017,0.05,0.99
2026/01/08 10:05:03.619,-0.014,0.049,0.996
2026/01/08 10:05:03.638,-0.013,0.05,0.992
2026/01/08 10:05:03.658,-0.015,0.05,0.994
2026/01/08 10:05:03.677,-0.019,0.049,0.993
2026/01/08 10:05:03.696,-0.018,0.05,0.994
2026/01/08 10:05:03.716,-0.014,0.047,0.994
2026/01/08 10:05:03.735,-0.018,0.048,0.996
2026/01/08 10:05:03.754,-0.015,0.054,0.997
2026/01/08 10:05:03.774,-0.015,0.047,0.994
2026/01/08 10:05:03.793,-0.016,0.048,0.99
2026/01/08 10:05:03.812,-0.019,0.05,0.994
2026/01/08 10:05:03.832,-0.014,0.046,0.993
2026/01/08 10:05:03.851,-0.017,0.048,0.995
2026/01/08 10:05:03.870,-0.019,0.05,0.992
2026/01/08 10:05:03.890,-0.012,0.047,0.994
2026/01/08 10:05:03.909,-0.02,0.046,0.993
2026/01/08 10:05:03.928,-0.018,0.045,0.991
2026/01/08 10:05:03.948,-0.016,0.051,0.992
2026/01/08 10:05:03.967,-0.015,0.049,0.993
2026/01/08 10:05:03.986,-0.015,0.048,0.993
2026/01/08 10:05:04.006,-0.011,0.046,0.993
2026/01/08 10:05:04.025,-0.013,0.051,0.993
2026/01/08 10:05:04.044,-0.016,0.048,0.995
2026/01/08 10:05:04.064,-0.015,0.048,0.993
2026/01/08 10:05:04.083,-0.016,0.047,0.992
2026/01/08 10:05:04.102,-0.017,0.05,0.996
2026/01/08 10:05:04.122,-0.016,0.047,0.996
2026/01/08 10:05:04.141,-0.018,0.049,0.991
2026/01/08 10:05:04.160,-0.017,0.051,0.993
2026/01/08 10:05:04.180,-0.019,0.046,0.993
2026/01/08 10:05:04.199,-0.012,0.051,0.993
2026/01/08 10:05:04.218,-0.015,0.049,0.996
2026/01/08 10:05:04.238,-0.017,0.049,0.993
2026/01/08 10:05:04.257,-0.016,0.05,0.994
2026/01/08 10:05:04.276,-0.021,0.049,0.994
2026/01/08 10:05:04.296,-0.019,0.05,0.996
2026/01/08 10:05:04.315,-0.015,0.05,0.994
2026/01/08 10:05:04.334,-0.017,0.052,0.993
2026/01/08 10:05:04.354,-0.016,0.047,0.993
2026/01/08 10:05:04.373,-0.017,0.048,0.994
2026/01/08 10:05:04.393,-0.017,0.054,0.993
2026/01/08 10:05:04.412,-0.014,0.047,0.993
2026/01/08 10:05:04.431,-0.019,0.051,0.99
2026/01/08 10:05:04.451,-0.016,0.049,0.995
2026/01/08 10:05:04.470,-0.014,0.052,0.995
2026/01/08 10:05:04.489,-0.016,0.05,0.991
2026/01/08 10:05:04.509,-0.015,0.05,0.994
2026/01/08 10:05:04.528,-0.019,0.048,0.994
2026/01/08 10:05:04.547,-0.019,0.05,0.993
2026/01/08 10:05:04.567,-0.015,0.051,0.997
2026/01/08 10:05:04.586,-0.017,0.049,0.998
2026/01/08 10:05:04.605,-0.017,0.05,0.992
2026/01/08 10:05:04.625,-0.015,0.049,0.99
2026/01/08 10:05:04.644,-0.017,0.047,0.994
2026/01/08 10:05:04.663,-0.016,0.049,0.992
2026/01/08 10:05:04.683,-0.013,0.047,0.992
2026/01/08 10:05:04.702,-0.013,0.049,0.991
2026/01/08 10:05:04.721,-0.013,0.047,0.996
2026/01/08 10:05:04.741,-0.011,0.047,0.993
2026/01/08 10:05:04.760,-0.016,0.05,0.994
2026/01/08 10:05:04.779,-0.017,0.048,0.995
2026/01/08 10:05:04.799,-0.015,0.049,0.994
2026/01/08 10:05:04.818,-0.019,0.05,0.99
2026/01/08 10:05:04.837,-0.016,0.05,0.992
2026/01/08 10:05:04.857,-0.015,0.047,0.993
2026/01/08 10:05:04.876,-0.018,0.047,0.993
2026/01/08 10:05:04.895,-0.016,0.049,0.995
2026/01/08 10:05:04.915,-0.015,0.047,0.995
2026/01/08 10:05:04.934,-0.015,0.05,0.995
2026/01/08 10:05:04.953,-0.015,0.05,0.99
2026/01/08 10:05:04.973,-0.013,0.048,0.991
2026/01/08 10:05:04.992,-0.02,0.047,0.993
2026/01/08 10:05:05.011,-0.015,0.048,0.992
2026/01/08 10:05:05.031,-0.018,0.047,0.996
2026/01/08 10:05:05.050,-0.016,0.047,0.989
2026/01/08 10:05:05.069,-0.016,0.05,0.996
2026/01/08 10:05:05.089,-0.014,0.049,0.993
2026/01/08 10:05:05.108,-0.014,0.048,0.988
2026/01/08 10:05:05.127,-0.015,0.05,0.989
2026/01/08 10:05:05.147,-0.015,0.046,0.998
2026/01/08 10:05:05.166,-0.016,0.049,0.994
2026/01/08 10:05:05.185,-0.02,0.048,0.992
2026/01/08 10:05:05.205,-0.015,0.051,0.995
2026/01/08 10:05:05.224,-0.016,0.047,0.992
2026/01/08 10:05:05.243,-0.017,0.05,0.993
2026/01/08 10:05:05.263,-0.017,0.048,0.991
2026/01/08 10:05:05.282,-0.016,0.045,0.99
2026/01/08 10:05:05.301,-0.016,0.045,0.996
2026/01/08 10:05:05.321,-0.017,0.05,0.991
2026/01/08 10:05:05.340,-0.016,0.049,0.994
2026/01/08 10:05:05.360,-0.017,0.049,0.991
2026/01/08 10:05:05.379,-0.018,0.053,0.99
2026/01/08 10:05:05.398,-0.014,0.045,0.995
2026/01/08 10:05:05.418,-0.017,0.052,0.992
2026/01/08 10:05:05.437,-0.018,0.047,0.993
2026/01/08 10:05:05.456,-0.017,0.048,0.993
2026/01/08 10:05:05.476,-0.015,0.05,0.995
2026/01/08 10:05:05.495,-0.016,0.051,0.995
2026/01/08 10:05:05.514,-0.014,0.046,0.993
2026/01/08 10:05:05.534,-0.014,0.048,0.992
2026/01/08 10:05:05.553,-0.018,0.047,0.994
2026/01/08 10:05:05.572,-0.016,0.051,0.992
2026/01/08 10:05:05.592,-0.017,0.051,0.994
2026/01/08 10:05:05.611,-0.016,0.048,0.991
2026/01/08 10:05:05.630,-0.018,0.05,0.996
2026/01/08 10:05:05.650,-0.018,0.047,0.992
2026/01/08 10:05:05.669,-0.014,0.05,0.994
2026/01/08 10:05:05.688,-0.015,0.047,0.993
2026/01/08 10:05:05.708,-0.019,0.051,0.995
2026/01/08 10:05:05.727,-0.017,0.052,0.992
2026/01/08 10:05:05.746,-0.015,0.045,0.991
2026/01/08 10:05:05.766,-0.013,0.051,0.995
2026/01/08 10:05:05.785,-0.016,0.05,0.993
2026/01/08 10:05:05.804,-0.019,0.046,0.992
2026/01/08 10:05:05.824,-0.016,0.047,0.994
2026/01/08 10:05:05.843,-0.017,0.045,0.997
2026/01/08 10:05:05.862,-0.016,0.048,0.99
2026/01/08 10:05:05.882,-0.015,0.045,0.993
2026/01/08 10:05:05.901,-0.016,0.049,0.994
2026/01/08 10:05:05.920,-0.014,0.052,0.993
2026/01/08 10:05:05.940,-0.019,0.049,0.99
2026/01/08 10:05:05.959,-0.014,0.046,0.997
2026/01/08 10:05:05.978,-0.019,0.048,0.991
2026/01/08 10:05:05.998,-0.017,0.05,0.992
2026/01/08 10:05:06.017,-0.013,0.049,0.993
2026/01/08 10:05:06.036,-0.014,0.047,0.997
2026/01/08 10:05:06.056,-0.015,0.047,0.996
2026/01/08 10:05:06.075,-0.02,0.051,0.993
2026/01/08 10:05:06.094,-0.015,0.048,0.997
2026/01/08 10:05:06.114,-0.016,0.047,0.996
2026/01/08 10:05:06.133,-0.017,0.05,0.993
2026/01/08 10:05:06.152,-0.014,0.048,0.991
2026/01/08 10:05:06.172,-0.014,0.048,0.992
2026/01/08 10:05:06.191,-0.017,0.05,0.995
2026/01/08 10:05:06.210,-0.014,0.045,0.996
2026/01/08 10:05:06.230,-0.017,0.052,0.995
2026/01/08 10:05:06.249,-0.017,0.05,0.993
2026/01/08 10:05:06.268,-0.017,0.049,0.995
2026/01/08 10:05:06.288,-0.012,0.047,0.994
2026/01/08 10:05:06.307,-0.016,0.052,0.994
2026/01/08 10:05:06.327,-0.02,0.046,0.993
2026/01/08 10:05:06.346,-0.019,0.05,0.993
2026/01/08 10:05:06.365,-0.017,0.045,0.99
2026/01/08 10:05:06.385,-0.016,0.046,0.994
2026/01/08 10:05:06.404,-0.019,0.047,0.993
2026/01/08 10:05:06.423,-0.013,0.047,0.995
2026/01/08 10:05:06.443,-0.013,0.049,0.994
2026/01/08 10:05:06.462,-0.016,0.05,0.996
2026/01/08 10:05:06.481,-0.015,0.048,0.992
2026/01/08 10:05:06.501,-0.018,0.045,0.997
2026/01/08 10:05:06.520,-0.016,0.048,0.993
2026/01/08 10:05:06.539,-0.015,0.046,0.994
2026/01/08 10:05:06.559,-0.017,0.052,0.993
2026/01/08 10:05:06.578,-0.017,0.049,0.997
2026/01/08 10:05:06.597,-0.017,0.048,0.99
2026/01/08 10:05:06.617,-0.016,0.048,0.993
2026/01/08 10:05:06.636,-0.021,0.049,0.992
2026/01/08 10:05:06.655,-0.011,0.047,0.994
2026/01/08 10:05:06.675,-0.014,0.046,0.994
2026/01/08 10:05:06.694,-0.016,0.046,0.995
2026/01/08 10:05:06.713,-0.016,0.049,0.995
2026/01/08 10:05:06.733,-0.016,0.049,0.993
2026/01/08 10:05:06.752,-0.015,0.047,0.995
2026/01/08 10:05:06.771,-0.018,0.049,0.993
2026/01/08 10:05:06.791,-0.016,0.05,0.995
2026/01/08 10:05:06.810,-0.011,0.051,0.996
2026/01/08 10:05:06.829,-0.019,0.045,0.99
2026/01/08 10:05:06.849,-0.018,0.049,0.992
2026/01/08 10:05:06.868,-0.018,0.05,0.994
2026/01/08 10:05:06.887,-0.014,0.049,0.992
2026/01/08 10:05:06.907,-0.018,0.047,0.995
2026/01/08 10:05:06.926,-0.015,0.047,0.993
2026/01/08 10:05:06.945,-0.018,0.046,0.993
2026/01/08 10:05:06.965,-0.012,0.047,0.994
2026/01/08 10:05:06.984,-0.016,0.048,0.994
2026/01/08 10:05:07.003,-0.013,0.045,0.996
2026/01/08 10:05:07.023,-0.013,0.048,0.988
2026/01/08 10:05:07.042,-0.015,0.048,0.994
2026/01/08 10:05:07.061,-0.018,0.052,0.994
2026/01/08 10:05:07.081,-0.017,0.048,0.995
2026/01/08 10:05:07.100,-0.018,0.047,0.995
2026/01/08 10:05:07.119,-0.016,0.047,0.994
2026/01/08 10:05:07.139,-0.013,0.05,0.993
2026/01/08 10:05:07.158,-0.015,0.048,0.992
2026/01/08 10:05:07.177,-0.019,0.05,0.998
2026/01/08 10:05:07.197,-0.017,0.048,0.997
2026/01/08 10:05:07.216,-0.015,0.047,0.995
2026/01/08 10:05:07.235,-0.017,0.049,0.993
2026/01/08 10:05:07.255,-0.011,0.048,0.995
2026/01/08 10:05:07.274,-0.014,0.045,0.994
2026/01/08 10:05:07.294,-0.014,0.047,0.994
2026/01/08 10:05:07.313,-0.012,0.048,0.994
2026/01/08 10:05:07.332,-0.013,0.052,0.993
2026/01/08 10:05:07.352,-0.019,0.052,0.996
2026/01/08 10:05:07.371,-0.017,0.046,0.991
2026/01/08 10:05:07.390,-0.019,0.049,0.996
2026/01/08 10:05:07.410,-0.017,0.048,0.995
2026/01/08 10:05:07.429,-0.014,0.05,0.997
2026/01/08 10:05:07.448,-0.016,0.047,0.996
2026/01/08 10:05:07.468,-0.014,0.051,0.996
2026/01/08 10:05:07.487,-0.018,0.047,0.992
2026/01/08 10:05:07.506,-0.014,0.047,0.993
2026/01/08 10:05:07.526,-0.017,0.05,0.994
2026/01/08 10:05:07.545,-0.016,0.054,0.991
2026/01/08 10:05:07.564,-0.018,0.05,0.992
2026/01/08 10:05:07.584,-0.019,0.052,0.996
2026/01/08 10:05:07.603,-0.017,0.048,0.992
2026/01/08 10:05:07.622,-0.017,0.05,0.992
2026/01/08 10:05:07.642,-0.019,0.046,0.993
2026/01/08 10:05:07.661,-0.012,0.049,0.994
2026/01/08 10:05:07.680,-0.014,0.048,0.996
2026/01/08 10:05:07.700,-0.016,0.048,0.996
2026/01/08 10:05:07.719,-0.018,0.048,0.996
2026/01/08 10:05:07.738,-0.015,0.051,0.995
2026/01/08 10:05:07.758,-0.014,0.049,0.994
2026/01/08 10:05:07.777,-0.018,0.05,0.991
2026/01/08 10:05:07.796,-0.013,0.05,0.997
2026/01/08 10:05:07.816,-0.014,0.047,0.993
2026/01/08 10:05:07.835,-0.014,0.045,0.992
2026/01/08 10:05:07.854,-0.011,0.049,0.989
2026/01/08 10:05:07.874,-0.018,0.047,0.992
2026/01/08 10:05:07.893,-0.017,0.05,0.994
2026/01/08 10:05:07.912,-0.016,0.052,0.993
2026/01/08 10:05:07.932,-0.018,0.045,0.994
2026/01/08 10:05:07.951,-0.013,0.047,0.993
2026/01/08 10:05:07.970,-0.012,0.046,0.991
2026/01/08 10:05:07.990,-0.017,0.052,0.993
2026/01/08 10:05:08.009,-0.016,0.05,0.992
2026/01/08 10:05:08.028,-0.014,0.05,0.993
2026/01/08 10:05:08.048,-0.015,0.051,0.988
2026/01/08 10:05:08.067,-0.015,0.047,0.992
2026/01/08 10:05:08.086,-0.015,0.048,0.996
2026/01/08 10:05:08.106,-0.017,0.043,0.996
2026/01/08 10:05:08.125,-0.018,0.047,0.993
2026/01/08 10:05:08.144,-0.016,0.055,0.991
2026/01/08 10:05:08.164,-0.017,0.048,0.991
2026/01/08 10:05:08.183,-0.016,0.047,0.994
2026/01/08 10:05:08.203,-0.016,0.049,0.996
2026/01/08 10:05:08.222,-0.016,0.048,0.996
2026/01/08 10:05:08.241,-0.02,0.055,0.992
2026/01/08 10:05:08.261,-0.015,0.047,0.996
2026/01/08 10:05:08.280,-0.016,0.05,0.993
2026/01/08 10:05:08.299,-0.018,0.052,0.991
2026/01/08 10:05:08.319,-0.016,0.046,0.993
2026/01/08 10:05:08.338,-0.018,0.05,0.991
2026/01/08 10:05:08.357,-0.018,0.047,0.992
2026/01/08 10:05:08.377,-0.02,0.048,0.997
2026/01/08 10:05:08.396,-0.019,0.045,0.991
2026/01/08 10:05:08.415,-0.014,0.047,0.994
2026/01/08 10:05:08.435,-0.017,0.053,0.993
2026/01/08 10:05:08.454,-0.015,0.046,0.992
2026/01/08 10:05:08.473,-0.016,0.048,0.992
2026/01/08 10:05:08.493,-0.016,0.047,0.992
2026/01/08 10:05:08.512,-0.016,0.045,0.996
2026/01/08 10:05:08.531,-0.017,0.052,0.994
2026/01/08 10:05:08.551,-0.012,0.05,0.993
2026/01/08 10:05:08.570,-0.011,0.049,0.995
2026/01/08 10:05:08.589,-0.018,0.052,0.994
2026/01/08 10:05:08.609,-0.015,0.045,0.992
2026/01/08 10:05:08.628,-0.015,0.047,0.995
2026/01/08 10:05:08.647,-0.014,0.052,0.993
2026/01/08 10:05:08.667,-0.018,0.048,0.995
2026/01/08 10:05:08.686,-0.017,0.046,0.994
2026/01/08 10:05:08.705,-0.015,0.053,0.994
2026/01/08 10:05:08.725,-0.016,0.05,0.993
2026/01/08 10:05:08.744,-0.016,0.048,0.995
2026/01/08 10:05:08.763,-0.014,0.046,0.99
2026/01/08 10:05:08.783,-0.017,0.052,0.997
2026/01/08 10:05:08.802,-0.016,0.047,0.992
2026/01/08 10:05:08.821,-0.014,0.048,0.992
2026/01/08 10:05:08.841,-0.015,0.05,0.991
2026/01/08 10:05:08.860,-0.018,0.046,0.995
2026/01/08 10:05:08.879,-0.014,0.051,0.995
2026/01/08 10:05:08.899,-0.016,0.045,0.991
2026/01/08 10:05:08.918,-0.013,0.053,0.996
2026/01/08 10:05:08.937,-0.016,0.053,0.992
2026/01/08 10:05:08.957,-0.016,0.048,0.99
2026/01/08 10:05:08.976,-0.016,0.05,0.991
2026/01/08 10:05:08.995,-0.014,0.052,0.989
2026/01/08 10:05:09.015,-0.019,0.049,0.995
2026/01/08 10:05:09.034,-0.014,0.047,0.998
2026/01/08 10:05:09.053,-0.016,0.048,0.993
2026/01/08 10:05:09.073,-0.015,0.047,0.995
2026/01/08 10:05:09.092,-0.017,0.05,0.991
2026/01/08 10:05:09.111,-0.015,0.043,0.995
2026/01/08 10:05:09.131,-0.018,0.047,0.991
2026/01/08 10:05:09.150,-0.016,0.048,0.993
2026/01/08 10:05:09.169,-0.015,0.044,0.994
2026/01/08 10:05:09.189,-0.015,0.047,0.993
2026/01/08 10:05:09.208,-0.015,0.05,0.99
2026/01/08 10:05:09.228,-0.017,0.047,0.994
2026/01/08 10:05:09.247,-0.015,0.048,0.995
2026/01/08 10:05:09.266,-0.018,0.046,0.999
2026/01/08 10:05:09.286,-0.015,0.048,0.996
2026/01/08 10:05:09.305,-0.013,0.049,0.996
2026/01/08 10:05:09.324,-0.014,0.047,0.994
2026/01/08 10:05:09.344,-0.018,0.049,0.989
2026/01/08 10:05:09.363,-0.017,0.053,0.993
2026/01/08 10:05:09.382,-0.012,0.05,0.992
2026/01/08 10:05:09.402,-0.015,0.048,0.997
2026/01/08 10:05:09.421,-0.018,0.048,0.993
2026/01/08 10:05:09.440,-0.02,0.051,0.992
2026/01/08 10:05:09.460,-0.013,0.053,0.993
2026/01/08 10:05:09.479,-0.017,0.052,0.996
2026/01/08 10:05:09.498,-0.014,0.049,0.995
2026/01/08 10:05:09.518,-0.016,0.045,0.992
2026/01/08 10:05:09.537,-0.012,0.049,0.99
2026/01/08 10:05:09.556,-0.018,0.05,0.99
2026/01/08 10:05:09.576,-0.017,0.047,0.992
2026/01/08 10:05:09.595,-0.015,0.05,0.992
2026/01/08 10:05:09.614,-0.018,0.049,0.993
2026/01/08 10:05:09.634,-0.017,0.048,0.994
2026/01/08 10:05:09.653,-0.019,0.048,0.993
2026/01/08 10:05:09.672,-0.017,0.049,0.996
2026/01/08 10:05:09.692,-0.015,0.051,0.988
2026/01/08 10:05:09.711,-0.018,0.045,0.994
2026/01/08 10:05:09.730,-0.014,0.05,0.996
2026/01/08 10:05:09.750,-0.015,0.049,0.993
2026/01/08 10:05:09.769,-0.015,0.052,0.996
2026/01/08 10:05:09.788,-0.018,0.049,0.995
2026/01/08 10:05:09.808,-0.017,0.045,0.994
2026/01/08 10:05:09.827,-0.017,0.049,0.996
2026/01/08 10:05:09.846,-0.016,0.053,0.994
2026/01/08 10:05:09.866,-0.014,0.048,0.992
2026/01/08 10:05:09.885,-0.017,0.049,0.992
2026/01/08 10:05:09.904,-0.016,0.052,0.993
2026/01/08 10:05:09.924,-0.018,0.048,0.992
2026/01/08 10:05:09.943,-0.015,0.049,0.995
2026/01/08 10:05:09.962,-0.015,0.047,0.992
2026/01/08 10:05:09.982,-0.019,0.049,0.997
2026/01/08 10:05:10.001,-0.016,0.05,0.996
2026/01/08 10:05:10.020,-0.014,0.047,0.987
2026/01/08 10:05:10.040,-0.015,0.047,0.993
2026/01/08 10:05:10.059,-0.018,0.048,0.996
2026/01/08 10:05:10.078,-0.014,0.049,0.994
2026/01/08 10:05:10.098,-0.013,0.05,0.991
2026/01/08 10:05:10.117,-0.018,0.05,0.995
2026/01/08 10:05:10.136,-0.019,0.048,0.994
2026/01/08 10:05:10.156,-0.017,0.052,0.997
2026/01/08 10:05:10.175,-0.017,0.048,0.994
2026/01/08 10:05:10.195,-0.016,0.05,0.994
2026/01/08 10:05:10.214,-0.019,0.052,0.989
2026/01/08 10:05:10.233,-0.015,0.047,0.996
2026/01/08 10:05:10.253,-0.017,0.047,0.992
2026/01/08 10:05:10.272,-0.013,0.048,0.993
2026/01/08 10:05:10.291,-0.018,0.047,0.993
2026/01/08 10:05:10.311,-0.018,0.047,0.992
2026/01/08 10:05:10.330,-0.015,0.049,0.996
2026/01/08 10:05:10.349,-0.015,0.05,0.989
2026/01/08 10:05:10.369,-0.013,0.052,0.991
2026/01/08 10:05:10.388,-0.013,0.05,0.991
2026/01/08 10:05:10.407,-0.014,0.053,0.992
2026/01/08 10:05:10.427,-0.016,0.051,0.995
2026/01/08 10:05:10.446,-0.018,0.048,0.992
2026/01/08 10:05:10.465,-0.016,0.05,0.993
2026/01/08 10:05:10.485,-0.017,0.048,0.997
2026/01/08 10:05:10.504,-0.016,0.048,0.991
2026/01/08 10:05:10.523,-0.02,0.052,0.991
2026/01/08 10:05:10.543,-0.018,0.05,0.994
2026/01/08 10:05:10.562,-0.011,0.05,0.996
2026/01/08 10:05:10.581,-0.011,0.048,0.993
2026/01/08 10:05:10.601,-0.016,0.046,0.995
2026/01/08 10:05:10.620,-0.015,0.048,0.995
2026/01/08 10:05:10.639,-0.016,0.049,0.988
2026/01/08 10:05:10.659,-0.014,0.046,0.992
2026/01/08 10:05:10.678,-0.014,0.05,0.989
2026/01/08 10:05:10.697,-0.016,0.047,0.99
2026/01/08 10:05:10.717,-0.016,0.05,0.994
2026/01/08 10:05:10.736,-0.014,0.05,0.997
2026/01/08 10:05:10.755,-0.017,0.051,0.993
2026/01/08 10:05:10.775,-0.015,0.046,0.992
2026/01/08 10:05:10.794,-0.014,0.049,0.991
2026/01/08 10:05:10.813,-0.015,0.045,0.995
2026/01/08 10:05:10.833,-0.013,0.048,0.993
2026/01/08 10:05:10.852,-0.017,0.046,0.995
2026/01/08 10:05:10.871,-0.018,0.053,1.0
2026/01/08 10:05:10.891,-0.015,0.044,0.995
2026/01/08 10:05:10.910,-0.015,0.049,0.992
2026/01/08 10:05:10.929,-0.015,0.046,0.991
2026/01/08 10:05:10.949,-0.015,0.046,0.993
2026/01/08 10:05:10.968,-0.01,0.053,0.993
2026/01/08 10:05:10.987,-0.013,0.05,0.996
2026/01/08 10:05:11.007,-0.013,0.045,0.994
2026/01/08 10:05:11.026,-0.016,0.05,0.992
2026/01/08 10:05:11.045,-0.02,0.05,0.992
2026/01/08 10:05:11.065,-0.013,0.047,0.994
2026/01/08 10:05:11.084,-0.013,0.048,0.995
2026/01/08 10:05:11.103,-0.015,0.043,0.994
2026/01/08 10:05:11.123,-0.018,0.052,0.996
2026/01/08 10:05:11.142,-0.017,0.053,0.992
2026/01/08 10:05:11.161,-0.015,0.046,0.994
2026/01/08 10:05:11.181,-0.017,0.051,0.995
2026/01/08 10:05:11.200,-0.013,0.051,0.992
2026/01/08 10:05:11.219,-0.015,0.051,0.993
2026/01/08 10:05:11.239,-0.012,0.052,0.995
2026/01/08 10:05:11.258,-0.014,0.048,0.994
2026/01/08 10:05:11.278,-0.016,0.051,0.989
2026/01/08 10:05:11.297,-0.017,0.048,0.994
2026/01/08 10:05:11.316,-0.014,0.048,0.993
2026/01/08 10:05:11.336,-0.02,0.051,0.994
2026/01/08 10:05:11.355,-0.017,0.048,0.994
2026/01/08 10:05:11.374,-0.015,0.049,0.996
2026/01/08 10:05:11.394,-0.014,0.049,0.992
2026/01/08 10:05:11.413,-0.015,0.049,0.994
2026/01/08 10:05:11.432,-0.016,0.051,0.992
2026/01/08 10:05:11.452,-0.021,0.048,0.992
2026/01/08 10:05:11.471,-0.014,0.05,0.993
2026/01/08 10:05:11.490,-0.019,0.051,0.994
2026/01/08 10:05:11.510,-0.013,0.051,0.993
2026/01/08 10:05:11.529,-0.019,0.049,0.994
2026/01/08 10:05:11.548,-0.018,0.049,0.995
2026/01/08 10:05:11.568,-0.016,0.047,0.994
2026/01/08 10:05:11.587,-0.016,0.048,0.993
2026/01/08 10:05:11.606,-0.014,0.047,0.994
2026/01/08 10:05:11.626,-0.015,0.049,0.99
2026/01/08 10:05:11.645,-0.017,0.05,0.993
2026/01/08 10:05:11.664,-0.018,0.048,0.991
2026/01/08 10:05:11.684,-0.018,0.051,0.996
2026/01/08 10:05:11.703,-0.013,0.045,0.988
2026/01/08 10:05:11.722,-0.018,0.045,0.992
2026/01/08 10:05:11.742,-0.016,0.05,0.993
2026/01/08 10:05:11.761,-0.02,0.05,0.994
2026/01/08 10:05:11.780,-0.018,0.05,0.994
2026/01/08 10:05:11.800,-0.014,0.047,0.993
2026/01/08 10:05:11.819,-0.014,0.047,0.995
2026/01/08 10:05:11.838,-0.016,0.05,0.993
2026/01/08 10:05:11.858,-0.016,0.047,0.997
2026/01/08 10:05:11.877,-0.013,0.048,0.995
2026/01/08 10:05:11.896,-0.014,0.048,0.997
2026/01/08 10:05:11.916,-0.015,0.046,0.994
2026/01/08 10:05:11.935,-0.018,0.048,0.989
2026/01/08 10:05:11.954,-0.019,0.051,0.991
2026/01/08 10:05:11.974,-0.018,0.052,0.995
2026/01/08 10:05:11.993,-0.016,0.051,0.996
2026/01/08 10:05:12.012,-0.016,0.049,0.995
2026/01/08 10:05:12.032,-0.02,0.051,0.993
2026/01/08 10:05:12.051,-0.011,0.048,0.995
2026/01/08 10:05:12.070,-0.015,0.05,0.992
2026/01/08 10:05:12.090,-0.015,0.053,0.992
2026/01/08 10:05:12.109,-0.014,0.047,0.992
2026/01/08 10:05:12.128,-0.017,0.048,0.996
2026/01/08 10:05:12.148,-0.018,0.048,0.992
2026/01/08 10:05:12.167,-0.017,0.052,0.992
2026/01/08 10:05:12.186,-0.017,0.048,0.994
2026/01/08 10:05:12.206,-0.014,0.051,0.995
2026/01/08 10:05:12.225,-0.018,0.048,0.992
2026/01/08 10:05:12.244,-0.014,0.049,0.991
2026/01/08 10:05:12.264,-0.014,0.047,0.992
2026/01/08 10:05:12.283,-0.015,0.048,0.993
2026/01/08 10:05:12.302,-0.016,0.054,0.99
2026/01/08 10:05:12.322,-0.011,0.046,0.995
2026/01/08 10:05:12.341,-0.015,0.049,0.991
2026/01/08 10:05:12.360,-0.014,0.05,0.991
2026/01/08 10:05:12.380,-0.011,0.048,0.994
2026/01/08 10:05:12.399,-0.017,0.047,0.992
2026/01/08 10:05:12.419,-0.015,0.044,0.992
2026/01/08 10:05:12.438,-0.018,0.049,0.994
2026/01/08 10:05:12.457,-0.019,0.051,0.992
2026/01/08 10:05:12.477,-0.013,0.047,0.991
2026/01/08 10:05:12.496,-0.016,0.047,0.992
2026/01/08 10:05:12.515,-0.016,0.051,0.993
2026/01/08 10:05:12.535,-0.016,0.047,0.994
2026/01/08 10:05:12.554,-0.018,0.049,0.993
2026/01/08 10:05:12.573,-0.018,0.048,0.995
2026/01/08 10:05:12.593,-0.015,0.05,0.995
2026/01/08 10:05:12.612,-0.013,0.046,0.993
2026/01/08 10:05:12.631,-0.013,0.054,0.99
2026/01/08 10:05:12.651,-0.012,0.05,0.993
2026/01/08 10:05:12.670,-0.013,0.047,0.994
2026/01/08 10:05:12.689,-0.013,0.045,0.99
2026/01/08 10:05:12.709,-0.016,0.046,0.994
2026/01/08 10:05:12.728,-0.014,0.049,0.992
2026/01/08 10:05:12.747,-0.012,0.047,0.996
2026/01/08 10:05:12.767,-0.016,0.046,0.993
2026/01/08 10:05:12.786,-0.016,0.048,0.994
2026/01/08 10:05:12.805,-0.016,0.045,0.993
2026/01/08 10:05:12.825,-0.017,0.049,0.992
2026/01/08 10:05:12.844,-0.017,0.048,0.994
2026/01/08 10:05:12.863,-0.016,0.052,0.994
2026/01/08 10:05:12.883,-0.018,0.046,0.996
2026/01/08 10:05:12.902,-0.019,0.049,0.996
2026/01/08 10:05:12.921,-0.018,0.048,0.993
2026/01/08 10:05:12.941,-0.018,0.051,0.992
2026/01/08 10:05:12.960,-0.015,0.046,0.994
2026/01/08 10:05:12.979,-0.016,0.048,0.994
2026/01/08 10:05:12.999,-0.017,0.043,0.995
2026/01/08 10:05:13.018,-0.019,0.052,0.989
2026/01/08 10:05:13.037,-0.014,0.048,0.994
2026/01/08 10:05:13.057,-0.015,0.05,0.992
2026/01/08 10:05:13.076,-0.017,0.043,0.993
2026/01/08 10:05:13.095,-0.018,0.048,0.992
2026/01/08 10:05:13.115,-0.016,0.051,0.996
2026/01/08 10:05:13.134,-0.015,0.048,0.993
2026/01/08 10:05:13.153,-0.014,0.049,0.993
2026/01/08 10:05:13.173,-0.016,0.047,0.995
2026/01/08 10:05:13.192,-0.015,0.047,0.995
2026/01/08 10:05:13.211,-0.015,0.046,0.993
2026/01/08 10:05:13.231,-0.017,0.047,0.991
2026/01/08 10:05:13.250,-0.012,0.045,0.997
2026/01/08 10:05:13.269,-0.018,0.049,0.995
2026/01/08 10:05:13.289,-0.013,0.05,0.998
2026/01/08 10:05:13.308,-0.017,0.046,0.994
2026/01/08 10:05:13.327,-0.017,0.047,0.993
2026/01/08 10:05:13.347,-0.017,0.047,0.99
2026/01/08 10:05:13.366,-0.013,0.049,0.99
2026/01/08 10:05:13.385,-0.017,0.049,0.993
2026/01/08 10:05:13.405,-0.018,0.05,0.993
2026/01/08 10:05:13.424,-0.012,0.053,0.997
2026/01/08 10:05:13.443,-0.014,0.048,0.993
2026/01/08 10:05:13.463,-0.016,0.05,0.99
2026/01/08 10:05:13.482,-0.016,0.045,0.995
2026/01/08 10:05:13.502,-0.014,0.046,0.995
2026/01/08 10:05:13.521,-0.016,0.053,0.993
2026/01/08 10:05:13.540,-0.02,0.044,0.994
2026/01/08 10:05:13.560,-0.014,0.048,0.995
2026/01/08 10:05:13.579,-0.016,0.046,0.99
2026/01/08 10:05:13.598,-0.021,0.049,0.994
2026/01/08 10:05:13.618,-0.015,0.049,0.996
2026/01/08 10:05:13.637,-0.017,0.048,0.993
2026/01/08 10:05:13.656,-0.017,0.046,0.992
2026/01/08 10:05:13.676,-0.015,0.048,0.994
2026/01/08 10:05:13.695,-0.017,0.048,0.996
2026/01/08 10:05:13.714,-0.013,0.051,0.995
2026/01/08 10:05:13.734,-0.014,0.05,0.992
2026/01/08 10:05:13.753,-0.014,0.048,0.995
2026/01/08 10:05:13.772,-0.018,0.048,0.993
2026/01/08 10:05:13.792,-0.014,0.049,0.992
2026/01/08 10:05:13.811,-0.016,0.045,0.996
2026/01/08 10:05:13.830,-0.014,0.05,0.994
2026/01/08 10:05:13.850,-0.013,0.048,0.995
2026/01/08 10:05:13.869,-0.013,0.049,0.996
2026/01/08 10:05:13.888,-0.015,0.047,0.995
2026/01/08 10:05:13.908,-0.016,0.049,0.992
2026/01/08 10:05:13.927,-0.015,0.05,0.991
2026/01/08 10:05:13.946,-0.017,0.047,0.996
2026/01/08 10:05:13.966,-0.012,0.049,0.996
2026/01/08 10:05:13.985,-0.019,0.05,0.996
2026/01/08 10:05:14.004,-0.014,0.05,0.991
2026/01/08 10:05:14.024,-0.015,0.045,0.997
2026/01/08 10:05:14.043,-0.015,0.05,0.993
2026/01/08 10:05:14.062,-0.017,0.047,0.996
2026/01/08 10:05:14.082,-0.016,0.048,0.992
2026/01/08 10:05:14.101,-0.016,0.05,0.993
2026/01/08 10:05:14.120,-0.013,0.047,0.993
2026/01/08 10:05:14.140,-0.015,0.044,0.995
2026/01/08 10:05:14.159,-0.016,0.048,0.993
2026/01/08 10:05:14.178,-0.018,0.047,0.995
2026/01/08 10:05:14.198,-0.021,0.047,0.992
2026/01/08 10:05:14.217,-0.012,0.046,0.994
2026/01/08 10:05:14.236,-0.015,0.048,0.993
2026/01/08 10:05:14.256,-0.02,0.05,0.994
2026/01/08 10:05:14.275,-0.018,0.046,0.994
2026/01/08 10:05:14.294,-0.016,0.048,0.997
2026/01/08 10:05:14.314,-0.015,0.05,0.993
2026/01/08 10:05:14.333,-0.015,0.047,0.998
2026/01/08 10:05:14.352,-0.02,0.044,0.995
2026/01/08 10:05:14.372,-0.017,0.048,0.994
2026/01/08 10:05:14.391,-0.015,0.049,0.991
2026/01/08 10:05:14.410,-0.016,0.049,0.994
2026/01/08 10:05:14.430,-0.019,0.047,0.994
2026/01/08 10:05:14.449,-0.016,0.045,0.995
2026/01/08 10:05:14.468,-0.015,0.047,0.991
2026/01/08 10:05:14.488,-0.01,0.048,0.997
2026/01/08 10:05:14.507,-0.015,0.046,0.992
2026/01/08 10:05:14.527,-0.011,0.05,0.994
2026/01/08 10:05:14.546,-0.016,0.051,0.992
2026/01/08 10:05:14.565,-0.019,0.048,0.993
2026/01/08 10:05:14.585,-0.015,0.052,0.993
2026/01/08 10:05:14.604,-0.016,0.048,0.993
2026/01/08 10:05:14.623,-0.015,0.052,0.999
2026/01/08 10:05:14.643,-0.016,0.051,0.99
2026/01/08 10:05:14.662,-0.017,0.051,0.991
2026/01/08 10:05:14.681,-0.014,0.049,0.995
2026/01/08 10:05:14.701,-0.014,0.051,0.994
2026/01/08 10:05:14.720,-0.018,0.047,0.992
2026/01/08 10:05:14.739,-0.013,0.046,0.991
2026/01/08 10:05:14.759,-0.014,0.05,0.994
2026/01/08 10:05:14.778,-0.015,0.048,0.994
2026/01/08 10:05:14.797,-0.013,0.05,0.994
2026/01/08 10:05:14.817,-0.014,0.046,0.989
2026/01/08 10:05:14.836,-0.011,0.048,0.994
2026/01/08 10:05:14.855,-0.014,0.05,0.992
2026/01/08 10:05:14.875,-0.016,0.045,0.992
2026/01/08 10:05:14.894,-0.017,0.05,0.993
2026/01/08 10:05:14.913,-0.019,0.049,0.992
2026/01/08 10:05:14.933,-0.019,0.049,0.995
2026/01/08 10:05:14.952,-0.016,0.054,0.996
2026/01/08 10:05:14.971,-0.014,0.049,0.99
2026/01/08 10:05:14.991,-0.015,0.05,0.995
2026/01/08 10:05:15.010,-0.018,0.051,0.992
2026/01/08 10:05:15.029,-0.015,0.051,0.992
2026/01/08 10:05:15.049,-0.013,0.052,0.992
2026/01/08 10:05:15.068,-0.013,0.047,0.993
2026/01/08 10:05:15.087,-0.02,0.048,0.997
2026/01/08 10:05:15.107,-0.012,0.045,0.992
2026/01/08 10:05:15.126,-0.013,0.049,0.991
2026/01/08 10:05:15.145,-0.016,0.052,0.991
2026/01/08 10:05:15.165,-0.017,0.05,0.995
2026/01/08 10:05:15.184,-0.014,0.047,0.993
2026/01/08 10:05:15.203,-0.012,0.046,0.996
2026/01/08 10:05:15.223,-0.016,0.047,0.993
2026/01/08 10:05:15.242,-0.019,0.052,0.993
2026/01/08 10:05:15.261,-0.016,0.051,0.995
2026/01/08 10:05:15.281,-0.014,0.049,0.998
2026/01/08 10:05:15.300,-0.015,0.048,0.993
2026/01/08 10:05:15.319,-0.016,0.051,0.995
2026/01/08 10:05:15.339,-0.016,0.055,0.991
2026/01/08 10:05:15.358,-0.017,0.049,0.99
2026/01/08 10:05:15.377,-0.012,0.05,0.992
2026/01/08 10:05:15.397,-0.018,0.045,0.996
2026/01/08 10:05:15.416,-0.015,0.048,0.994
2026/01/08 10:05:15.435,-0.018,0.05,0.991
2026/01/08 10:05:15.455,-0.014,0.047,0.996
2026/01/08 10:05:15.474,-0.015,0.049,0.987
2026/01/08 10:05:15.493,-0.014,0.049,0.991
2026/01/08 10:05:15.513,-0.019,0.051,0.996
2026/01/08 10:05:15.532,-0.02,0.047,0.99
2026/01/08 10:05:15.552,-0.013,0.049,0.995
2026/01/08 10:05:15.571,-0.014,0.05,0.993
2026/01/08 10:05:15.590,-0.017,0.048,0.994
2026/01/08 10:05:15.610,-0.013,0.047,0.997
2026/01/08 10:05:15.629,-0.018,0.048,0.996
2026/01/08 10:05:15.648,-0.012,0.047,0.991
2026/01/08 10:05:15.668,-0.015,0.05,0.992
2026/01/08 10:05:15.687,-0.019,0.049,0.996
2026/01/08 10:05:15.706,-0.012,0.049,0.993
2026/01/08 10:05:15.726,-0.014,0.047,0.992
2026/01/08 10:05:15.745,-0.011,0.047,0.992
2026/01/08 10:05:15.764,-0.017,0.051,0.994
2026/01/08 10:05:15.784,-0.015,0.052,0.991
2026/01/08 10:05:15.803,-0.013,0.043,0.992
2026/01/08 10:05:15.822,-0.015,0.048,0.993
2026/01/08 10:05:15.842,-0.015,0.048,0.993
2026/01/08 10:05:15.861,-0.016,0.05,0.994
2026/01/08 10:05:15.880,-0.016,0.048,0.991
2026/01/08 10:05:15.900,-0.017,0.045,0.994
2026/01/08 10:05:15.919,-0.016,0.051,0.994
2026/01/08 10:05:15.938,-0.014,0.046,0.994
2026/01/08 10:05:15.958,-0.014,0.051,0.994
2026/01/08 10:05:15.977,-0.013,0.05,0.992
2026/01/08 10:05:15.996,-0.016,0.05,0.991
2026/01/08 10:05:16.016,-0.016,0.052,0.992
2026/01/08 10:05:16.035,-0.015,0.047,0.996
2026/01/08 10:05:16.054,-0.015,0.049,0.989
2026/01/08 10:05:16.074,-0.016,0.047,0.994
2026/01/08 10:05:16.093,-0.015,0.049,0.992
2026/01/08 10:05:16.112,-0.015,0.049,0.992
2026/01/08 10:05:16.132,-0.016,0.049,0.996
2026/01/08 10:05:16.151,-0.016,0.052,0.993
2026/01/08 10:05:16.170,-0.016,0.049,0.994
2026/01/08 10:05:16.190,-0.014,0.048,0.997
2026/01/08 10:05:16.209,-0.016,0.046,0.994
2026/01/08 10:05:16.228,-0.014,0.047,0.994
2026/01/08 10:05:16.248,-0.016,0.048,0.991
2026/01/08 10:05:16.267,-0.014,0.047,0.993
2026/01/08 10:05:16.286,-0.017,0.049,0.996
2026/01/08 10:05:16.306,-0.015,0.05,0.997
2026/01/08 10:05:16.325,-0.012,0.047,0.994
2026/01/08 10:05:16.344,-0.019,0.049,0.994
2026/01/08 10:05:16.364,-0.021,0.047,0.993
2026/01/08 10:05:16.383,-0.016,0.052,0.991
2026/01/08 10:05:16.402,-0.016,0.046,0.992
2026/01/08 10:05:16.422,-0.017,0.051,0.993
2026/01/08 10:05:16.441,-0.014,0.05,0.995
2026/01/08 10:05:16.460,-0.016,0.049,0.993
2026/01/08 10:05:16.480,-0.015,0.049,0.997
2026/01/08 10:05:16.499,-0.015,0.048,0.99
2026/01/08 10:05:16.518,-0.015,0.047,0.994
2026/01/08 10:05:16.538,-0.017,0.054,0.996
2026/01/08 10:05:16.557,-0.018,0.05,0.995
2026/01/08 10:05:16.576,-0.02,0.045,0.996
2026/01/08 10:05:16.596,-0.016,0.047,0.995
2026/01/08 10:05:16.615,-0.016,0.048,0.994
2026/01/08 10:05:16.635,-0.014,0.05,0.997
2026/01/08 10:05:16.654,-0.017,0.05,0.992
2026/01/08 10:05:16.673,-0.013,0.046,0.989
2026/01/08 10:05:16.693,-0.017,0.049,0.994
2026/01/08 10:05:16.712,-0.013,0.05,0.996
2026/01/08 10:05:16.731,-0.015,0.046,0.992
2026/01/08 10:05:16.751,-0.014,0.053,0.993
2026/01/08 10:05:16.770,-0.015,0.05,0.99
2026/01/08 10:05:16.789,-0.011,0.048,0.992
2026/01/08 10:05:16.809,-0.018,0.049,0.993
2026/01/08 10:05:16.828,-0.015,0.047,0.994
2026/01/08 10:05:16.847,-0.017,0.052,0.996
2026/01/08 10:05:16.867,-0.011,0.047,0.992
2026/01/08 10:05:16.886,-0.016,0.049,0.996
2026/01/08 10:05:16.905,-0.016,0.049,0.995
2026/01/08 10:05:16.925,-0.014,0.043,0.995
2026/01/08 10:05:16.944,-0.015,0.05,0.994
2026/01/08 10:05:16.963,-0.015,0.049,0.994
2026/01/08 10:05:16.983,-0.02,0.046,0.995
2026/01/08 10:05:17.002,-0.017,0.05,0.992
2026/01/08 10:05:17.021,-0.014,0.049,0.995
2026/01/08 10:05:17.041,-0.016,0.046,0.992
2026/01/08 10:05:17.060,-0.017,0.047,0.991
2026/01/08 10:05:17.079,-0.012,0.053,0.993
2026/01/08 10:05:17.099,-0.017,0.049,0.99
2026/01/08 10:05:17.118,-0.014,0.046,0.993
2026/01/08 10:05:17.137,-0.012,0.051,0.993
2026/01/08 10:05:17.157,-0.016,0.051,0.991
2026/01/08 10:05:17.176,-0.018,0.048,0.995
2026/01/08 10:05:17.195,-0.014,0.045,0.993
2026/01/08 10:05:17.215,-0.014,0.051,0.995
2026/01/08 10:05:17.234,-0.016,0.048,0.992
2026/01/08 10:05:17.253,-0.014,0.048,0.994
2026/01/08 10:05:17.273,-0.012,0.049,0.993
2026/01/08 10:05:17.292,-0.02,0.049,0.991
2026/01/08 10:05:17.311,-0.012,0.052,0.989
2026/01/08 10:05:17.331,-0.018,0.049,0.989
2026/01/08 10:05:17.350,-0.014,0.042,0.994
2026/01/08 10:05:17.369,-0.015,0.047,0.995
2026/01/08 10:05:17.389,-0.018,0.047,0.994
2026/01/08 10:05:17.408,-0.019,0.047,0.995
2026/01/08 10:05:17.427,-0.013,0.049,0.992
2026/01/08 10:05:17.447,-0.019,0.048,0.992
2026/01/08 10:05:17.466,-0.015,0.053,0.994
2026/01/08 10:05:17.485,-0.015,0.049,0.994
2026/01/08 10:05:17.505,-0.017,0.049,0.993
2026/01/08 10:05:17.524,-0.016,0.052,0.992
2026/01/08 10:05:17.543,-0.015,0.046,0.99
2026/01/08 10:05:17.563,-0.013,0.048,0.997
2026/01/08 10:05:17.582,-0.018,0.049,0.995
2026/01/08 10:05:17.601,-0.013,0.049,0.995
2026/01/08 10:05:17.621,-0.019,0.049,0.993
2026/01/08 10:05:17.640,-0.015,0.054,0.991
2026/01/08 10:05:17.660,-0.017,0.049,0.996
2026/01/08 10:05:17.679,-0.016,0.047,0.995
2026/01/08 10:05:17.698,-0.019,0.05,0.991
2026/01/08 10:05:17.718,-0.015,0.049,0.995
2026/01/08 10:05:17.737,-0.017,0.049,0.992
2026/01/08 10:05:17.756,-0.018,0.049,0.994
2026/01/08 10:05:17.776,-0.019,0.049,0.991
2026/01/08 10:05:17.795,-0.016,0.048,0.992
2026/01/08 10:05:17.814,-0.012,0.051,0.992
2026/01/08 10:05:17.834,-0.011,0.048,0.995
2026/01/08 10:05:17.853,-0.014,0.049,0.991
2026/01/08 10:05:17.872,-0.018,0.047,0.99
2026/01/08 10:05:17.892,-0.015,0.052,0.994
2026/01/08 10:05:17.911,-0.018,0.047,0.994
2026/01/08 10:05:17.930,-0.014,0.048,0.997
2026/01/08 10:05:17.950,-0.018,0.05,0.992
2026/01/08 10:05:17.969,-0.014,0.052,0.993
2026/01/08 10:05:17.988,-0.013,0.047,0.994
2026/01/08 10:05:18.008,-0.014,0.048,0.993
2026/01/08 10:05:18.027,-0.02,0.047,0.995
2026/01/08 10:05:18.046,-0.016,0.045,0.993
2026/01/08 10:05:18.066,-0.018,0.053,0.996
2026/01/08 10:05:18.085,-0.015,0.047,0.992
2026/01/08 10:05:18.104,-0.015,0.05,0.994
2026/01/08 10:05:18.124,-0.016,0.049,0.996
2026/01/08 10:05:18.143,-0.016,0.05,0.994
2026/01/08 10:05:18.162,-0.017,0.051,0.995
2026/01/08 10:05:18.182,-0.019,0.051,0.994
2026/01/08 10:05:18.201,-0.017,0.048,0.994
2026/01/08 10:05:18.220,-0.016,0.05,0.995
2026/01/08 10:05:18.240,-0.015,0.046,0.992
2026/01/08 10:05:18.259,-0.014,0.049,0.993
2026/01/08 10:05:18.278,-0.013,0.05,0.993
2026/01/08 10:05:18.298,-0.017,0.047,0.992
2026/01/08 10:05:18.317,-0.014,0.049,0.996
2026/01/08 10:05:18.336,-0.015,0.048,0.992
2026/01/08 10:05:18.356,-0.014,0.051,0.996
2026/01/08 10:05:18.375,-0.015,0.051,0.995
2026/01/08 10:05:18.394,-0.017,0.05,0.994
2026/01/08 10:05:18.414,-0.012,0.047,0.996
2026/01/08 10:05:18.433,-0.018,0.05,0.99
2026/01/08 10:05:18.452,-0.016,0.048,0.995
2026/01/08 10:05:18.472,-0.011,0.048,0.996
2026/01/08 10:05:18.491,-0.011,0.05,0.997
2026/01/08 10:05:18.510,-0.017,0.047,0.991
2026/01/08 10:05:18.530,-0.012,0.046,0.993
2026/01/08 10:05:18.549,-0.016,0.051,0.996
2026/01/08 10:05:18.568,-0.017,0.048,0.994
2026/01/08 10:05:18.588,-0.015,0.048,0.994
2026/01/08 10:05:18.607,-0.013,0.044,0.995
2026/01/08 10:05:18.627,-0.014,0.046,0.992
2026/01/08 10:05:18.646,-0.015,0.05,0.993
2026/01/08 10:05:18.665,-0.013,0.047,0.992
2026/01/08 10:05:18.685,-0.015,0.047,0.994
2026/01/08 10:05:18.704,-0.013,0.048,0.994
2026/01/08 10:05:18.723,-0.013,0.047,0.994
2026/01/08 10:05:18.743,-0.016,0.05,0.992
2026/01/08 10:05:18.762,-0.017,0.051,0.994
2026/01/08 10:05:18.781,-0.017,0.049,0.995
2026/01/08 10:05:18.801,-0.014,0.048,0.995
2026/01/08 10:05:18.820,-0.015,0.046,0.991
2026/01/08 10:05:18.839,-0.014,0.044,0.993
2026/01/08 10:05:18.859,-0.016,0.045,0.99
2026/01/08 10:05:18.878,-0.015,0.046,0.995
2026/01/08 10:05:18.897,-0.016,0.044,0.995
2026/01/08 10:05:18.917,-0.012,0.051,0.995
2026/01/08 10:05:18.936,-0.018,0.05,0.996
2026/01/08 10:05:18.955,-0.016,0.049,0.99
2026/01/08 10:05:18.975,-0.013,0.05,0.993
2026/01/08 10:05:18.994,-0.019,0.049,0.992
2026/01/08 10:05:19.013,-0.017,0.049,0.995
2026/01/08 10:05:19.033,-0.016,0.049,0.993
2026/01/08 10:05:19.052,-0.02,0.047,0.996
2026/01/08 10:05:19.071,-0.012,0.046,0.995
2026/01/08 10:05:19.091,-0.013,0.054,0.995
2026/01/08 10:05:19.110,-0.014,0.048,0.994
2026/01/08 10:05:19.129,-0.017,0.052,0.996
2026/01/08 10:05:19.149,-0.014,0.051,0.993
2026/01/08 10:05:19.168,-0.015,0.05,0.994
2026/01/08 10:05:19.187,-0.019,0.056,0.994
2026/01/08 10:05:19.207,-0.018,0.047,0.992
2026/01/08 10:05:19.226,-0.015,0.051,0.996
2026/01/08 10:05:19.245,-0.016,0.049,0.996
2026/01/08 10:05:19.265,-0.017,0.047,0.992
2026/01/08 10:05:19.284,-0.017,0.05,0.993
2026/01/08 10:05:19.303,-0.014,0.055,0.996
2026/01/08 10:05:19.323,-0.015,0.047,0.995
2026/01/08 10:05:19.342,-0.017,0.051,0.996
2026/01/08 10:05:19.361,-0.014,0.046,0.993
2026/01/08 10:05:19.381,-0.014,0.051,0.994
2026/01/08 10:05:19.400,-0.012,0.047,0.994
2026/01/08 10:05:19.419,-0.016,0.049,0.995
2026/01/08 10:05:19.439,-0.017,0.048,0.994
2026/01/08 10:05:19.458,-0.016,0.046,0.993
2026/01/08 10:05:19.478,-0.016,0.052,0.994
2026/01/08 10:05:19.497,-0.015,0.049,0.996
2026/01/08 10:05:19.516,-0.017,0.044,0.992
2026/01/08 10:05:19.536,-0.015,0.05,0.991
2026/01/08 10:05:19.555,-0.013,0.05,0.991
2026/01/08 10:05:19.574,-0.016,0.047,0.995
2026/01/08 10:05:19.594,-0.014,0.052,0.993
2026/01/08 10:05:19.613,-0.016,0.049,0.991
2026/01/08 10:05:19.632,-0.016,0.05,0.992
2026/01/08 10:05:19.652,-0.016,0.048,0.992
2026/01/08 10:05:19.671,-0.019,0.048,0.995
2026/01/08 10:05:19.690,-0.012,0.05,0.996
2026/01/08 10:05:19.710,-0.016,0.049,0.995
2026/01/08 10:05:19.729,-0.017,0.048,0.995
2026/01/08 10:05:19.748,-0.017,0.048,0.993
2026/01/08 10:05:19.768,-0.017,0.045,0.992
2026/01/08 10:05:19.787,-0.015,0.049,0.994
2026/01/08 10:05:19.806,-0.017,0.049,0.995
2026/01/08 10:05:19.826,-0.015,0.053,0.992
2026/01/08 10:05:19.845,-0.015,0.05,0.992
2026/01/08 10:05:19.864,-0.014,0.052,0.992
2026/01/08 10:05:19.884,-0.016,0.05,0.991
2026/01/08 10:05:19.903,-0.017,0.049,0.995
2026/01/08 10:05:19.922,-0.014,0.047,0.992
2026/01/08 10:05:19.942,-0.015,0.047,0.99
2026/01/08 10:05:19.961,-0.016,0.054,0.992
2026/01/08 10:05:19.980,-0.017,0.05,0.997
2026/01/08 10:05:20.000,-0.018,0.049,0.991
2026/01/08 10:05:20.019,-0.019,0.048,0.994
2026/01/08 10:05:20.038,-0.015,0.047,0.993
2026/01/08 10:05:20.058,-0.015,0.047,0.993
2026/01/08 10:05:20.077,-0.016,0.047,0.997
2026/01/08 10:05:20.096,-0.018,0.048,0.995
2026/01/08 10:05:20.116,-0.013,0.049,0.994
2026/01/08 10:05:20.135,-0.017,0.05,0.995
2026/01/08 10:05:20.154,-0.015,0.05,0.989
2026/01/08 10:05:20.174,-0.019,0.047,0.993
2026/01/08 10:05:20.193,-0.018,0.046,0.991
2026/01/08 10:05:20.212,-0.016,0.049,0.994
2026/01/08 10:05:20.232,-0.013,0.049,0.992
2026/01/08 10:05:20.251,-0.014,0.051,0.995
2026/01/08 10:05:20.271,-0.016,0.046,0.996
2026/01/08 10:05:20.290,-0.013,0.048,0.994
2026/01/08 10:05:20.309,-0.017,0.046,0.994
2026/01/08 10:05:20.329,-0.015,0.049,0.992
2026/01/08 10:05:20.348,-0.016,0.048,0.993
2026/01/08 10:05:20.367,-0.015,0.047,0.993
2026/01/08 10:05:20.387,-0.016,0.046,0.995
2026/01/08 10:05:20.406,-0.015,0.05,0.994
2026/01/08 10:05:20.425,-0.018,0.049,0.992
2026/01/08 10:05:20.445,-0.013,0.05,0.992
2026/01/08 10:05:20.464,-0.015,0.047,0.992
2026/01/08 10:05:20.483,-0.016,0.053,0.995
2026/01/08 10:05:20.503,-0.014,0.05,0.995
2026/01/08 10:05:20.522,-0.016,0.046,0.995
2026/01/08 10:05:20.541,-0.016,0.05,0.999
2026/01/08 10:05:20.561,-0.015,0.048,0.993
2026/01/08 10:05:20.580,-0.015,0.047,0.994
2026/01/08 10:05:20.599,-0.016,0.047,0.995
2026/01/08 10:05:20.619,-0.015,0.049,0.995
2026/01/08 10:05:20.638,-0.016,0.045,0.988
2026/01/08 10:05:20.657,-0.015,0.051,0.992
2026/01/08 10:05:20.677,-0.017,0.048,0.997
2026/01/08 10:05:20.696,-0.016,0.047,0.994
2026/01/08 10:05:20.715,-0.013,0.048,0.996
2026/01/08 10:05:20.735,-0.019,0.049,0.992
2026/01/08 10:05:20.754,-0.017,0.044,0.995
2026/01/08 10:05:20.773,-0.015,0.051,0.992
2026/01/08 10:05:20.793,-0.011,0.053,0.991
2026/01/08 10:05:20.812,-0.018,0.053,0.992
2026/01/08 10:05:20.831,-0.017,0.053,0.996
2026/01/08 10:05:20.851,-0.015,0.052,0.994
2026/01/08 10:05:20.870,-0.017,0.05,0.993
2026/01/08 10:05:20.889,-0.015,0.049,0.994
2026/01/08 10:05:20.909,-0.013,0.048,0.99
2026/01/08 10:05:20.928,-0.017,0.051,0.995
2026/01/08 10:05:20.947,-0.016,0.05,0.995
2026/01/08 10:05:20.967,-0.016,0.049,0.996
2026/01/08 10:05:20.986,-0.016,0.055,0.991
2026/01/08 10:05:21.005,-0.015,0.051,0.995
2026/01/08 10:05:21.025,-0.018,0.052,0.993
2026/01/08 10:05:21.044,-0.019,0.053,0.992
2026/01/08 10:05:21.063,-0.012,0.051,0.991
2026/01/08 10:05:21.083,-0.017,0.052,0.993
2026/01/08 10:05:21.102,-0.018,0.047,0.994
2026/01/08 10:05:21.122,-0.015,0.05,0.99
2026/01/08 10:05:21.141,-0.012,0.048,0.993
2026/01/08 10:05:21.160,-0.016,0.052,0.995
2026/01/08 10:05:21.180,-0.013,0.05,0.993
2026/01/08 10:05:21.199,-0.016,0.049,0.997
2026/01/08 10:05:21.218,-0.015,0.051,0.991
2026/01/08 10:05:21.238,-0.017,0.051,0.993
2026/01/08 10:05:21.257,-0.016,0.05,0.993
2026/01/08 10:05:21.276,-0.017,0.049,0.997
2026/01/08 10:05:21.296,-0.015,0.049,0.992
2026/01/08 10:05:21.315,-0.018,0.049,0.991
2026/01/08 10:05:21.334,-0.014,0.051,0.994
2026/01/08 10:05:21.354,-0.012,0.049,0.995
2026/01/08 10:05:21.373,-0.019,0.049,0.989
2026/01/08 10:05:21.392,-0.012,0.05,0.993
2026/01/08 10:05:21.412,-0.015,0.051,0.992
2026/01/08 10:05:21.431,-0.013,0.052,0.996
2026/01/08 10:05:21.450,-0.013,0.046,0.992
2026/01/08 10:05:21.470,-0.014,0.048,0.995
2026/01/08 10:05:21.489,-0.015,0.05,0.981
2026/01/08 10:05:21.508,-0.011,0.049,1.018
2026/01/08 10:05:21.528,-0.014,0.055,0.969
2026/01/08 10:05:21.547,-0.017,0.049,0.993
2026/01/08 10:05:21.566,-0.024,0.048,1.0
2026/01/08 10:05:21.586,-0.017,0.051,0.996
2026/01/08 10:05:21.605,-0.013,0.05,0.992
2026/01/08 10:05:21.624,-0.009,0.035,0.974
2026/01/08 10:05:21.644,-0.01,0.048,0.977
2026/01/08 10:05:21.663,-0.022,0.045,1.005
2026/01/08 10:05:21.682,-0.016,0.046,0.98
2026/01/08 10:05:21.702,-0.013,0.047,0.987
2026/01/08 10:05:21.721,-0.003,0.093,0.923
2026/01/08 10:05:21.740,-0.009,0.072,0.952
2026/01/08 10:05:21.760,-0.012,0.061,0.973
2026/01/08 10:05:21.779,-0.016,0.046,0.989
2026/01/08 10:05:21.798,-0.018,0.052,1.001
2026/01/08 10:05:21.818,-0.016,0.056,1.013
2026/01/08 10:05:21.837,-0.016,0.046,0.991
2026/01/08 10:05:21.856,-0.012,0.046,0.992
2026/01/08 10:05:21.876,-0.025,-0.037,1.067
2026/01/08 10:05:21.895,-0.031,0.0,1.071
2026/01/08 10:05:21.914,-0.025,0.035,1.032
2026/01/08 10:05:21.934,-0.016,0.051,1.01
2026/01/08 10:05:21.953,-0.018,0.055,1.009
2026/01/08 10:05:21.973,-0.018,0.063,0.974
2026/01/08 10:05:21.992,-0.012,0.048,0.977
2026/01/08 10:05:22.011,-0.006,0.044,1.006
2026/01/08 10:05:22.031,-0.016,0.042,0.971
2026/01/08 10:05:22.050,-0.01,0.047,0.994
2026/01/08 10:05:22.069,-0.007,0.058,1.014
2026/01/08 10:05:22.089,-0.005,0.046,0.994
2026/01/08 10:05:22.108,-0.008,0.046,0.981
2026/01/08 10:05:22.127,-0.015,0.048,0.991
2026/01/08 10:05:22.147,-0.009,0.044,1.006
2026/01/08 10:05:22.166,-0.006,0.048,0.999
2026/01/08 10:05:22.185,-0.003,0.052,0.988
2026/01/08 10:05:22.205,-0.007,0.05,0.999
2026/01/08 10:05:22.224,-0.004,0.054,1.001
2026/01/08 10:05:22.243,-0.003,0.054,0.994
2026/01/08 10:05:22.263,-0.003,0.05,1.0
2026/01/08 10:05:22.282,-0.004,0.046,0.993
2026/01/08 10:05:22.301,-0.008,0.043,0.987
2026/01/08 10:05:22.321,-0.005,0.044,0.991
2026/01/08 10:05:22.340,-0.011,0.048,0.998
2026/01/08 10:05:22.359,-0.01,0.049,0.991
2026/01/08 10:05:22.379,-0.003,0.046,0.998
2026/01/08 10:05:22.398,-0.009,0.045,0.993
2026/01/08 10:05:22.417,-0.011,0.044,0.996
2026/01/08 10:05:22.437,-0.01,0.051,0.989
2026/01/08 10:05:22.456,-0.003,0.053,0.999
2026/01/08 10:05:22.475,-0.004,0.048,0.992
2026/01/08 10:05:22.495,-0.01,0.053,0.994
2026/01/08 10:05:22.514,-0.009,0.052,1.0
2026/01/08 10:05:22.533,-0.008,0.051,0.993
2026/01/08 10:05:22.553,0.001,0.052,0.997
2026/01/08 10:05:22.572,0.001,0.046,0.989
2026/01/08 10:05:22.591,-0.007,0.043,0.986
2026/01/08 10:05:22.611,-0.015,0.046,0.993
2026/01/08 10:05:22.630,-0.014,0.049,0.992
2026/01/08 10:05:22.649,-0.003,0.048,0.992
2026/01/08 10:05:22.669,-0.001,0.046,0.994
2026/01/08 10:05:22.688,-0.001,0.047,0.997
2026/01/08 10:05:22.707,-0.008,0.051,0.998
2026/01/08 10:05:22.727,-0.014,0.049,0.995
2026/01/08 10:05:22.746,-0.012,0.046,0.993
2026/01/08 10:05:22.766,-0.003,0.049,0.99
2026/01/08 10:05:22.785,0.001,0.05,0.989
2026/01/08 10:05:22.804,0.0,0.051,0.997
2026/01/08 10:05:22.824,-0.006,0.051,1.0
2026/01/08 10:05:22.843,-0.012,0.048,0.999
2026/01/08 10:05:22.862,-0.01,0.053,0.997
2026/01/08 10:05:22.882,-0.002,0.047,0.988
2026/01/08 10:05:22.901,0.0,0.053,0.994
2026/01/08 10:05:22.920,-0.004,0.046,0.994
2026/01/08 10:05:22.940,-0.014,0.049,0.993
2026/01/08 10:05:22.959,-0.009,0.049,0.997
2026/01/08 10:05:22.978,-0.009,0.047,0.996
2026/01/08 10:05:22.998,-0.002,0.047,0.989
2026/01/08 10:05:23.017,-0.004,0.048,0.994
2026/01/08 10:05:23.036,-0.004,0.048,0.999
2026/01/08 10:05:23.056,-0.008,0.05,0.992
2026/01/08 10:05:23.075,-0.005,0.047,0.992
2026/01/08 10:05:23.094,-0.007,0.049,0.993
2026/01/08 10:05:23.114,-0.01,0.043,0.995
2026/01/08 10:05:23.133,-0.009,0.05,0.998
2026/01/08 10:05:23.152,-0.004,0.048,0.994
2026/01/08 10:05:23.172,-0.005,0.051,0.988
2026/01/08 10:05:23.191,-0.01,0.051,0.992
2026/01/08 10:05:23.210,-0.008,0.051,1.0
2026/01/08 10:05:23.230,-0.005,0.051,0.998
2026/01/08 10:05:23.249,-0.005,0.047,0.992
2026/01/08 10:05:23.268,-0.006,0.049,0.996
2026/01/08 10:05:23.288,-0.006,0.047,0.993
2026/01/08 10:05:23.307,-0.005,0.047,0.997
2026/01/08 10:05:23.326,-0.01,0.051,0.993
2026/01/08 10:05:23.346,-0.008,0.05,1.0
2026/01/08 10:05:23.365,-0.006,0.049,0.994
2026/01/08 10:05:23.384,-0.001,0.048,0.988
2026/01/08 10:05:23.404,-0.004,0.044,0.988
2026/01/08 10:05:23.423,-0.008,0.045,0.992
2026/01/08 10:05:23.442,-0.015,0.047,0.994
2026/01/08 10:05:23.462,-0.009,0.054,0.992
2026/01/08 10:05:23.481,-0.004,0.052,0.996
2026/01/08 10:05:23.500,-0.001,0.046,0.997
2026/01/08 10:05:23.520,-0.004,0.047,0.995
2026/01/08 10:05:23.539,-0.009,0.047,0.99
2026/01/08 10:05:23.559,-0.015,0.049,0.991
2026/01/08 10:05:23.578,-0.01,0.05,0.993
2026/01/08 10:05:23.597,-0.003,0.046,0.997
2026/01/08 10:05:23.617,-0.005,0.048,0.999
2026/01/08 10:05:23.636,-0.005,0.042,0.996
2026/01/08 10:05:23.655,-0.008,0.047,0.995
2026/01/08 10:05:23.675,-0.013,0.046,0.995
2026/01/08 10:05:23.694,-0.002,0.049,0.993
2026/01/08 10:05:23.713,-0.002,0.049,0.99
2026/01/08 10:05:23.733,-0.002,0.06,0.992
2026/01/08 10:05:23.752,-0.002,0.052,0.996
2026/01/08 10:05:23.771,-0.005,0.048,0.995
2026/01/08 10:05:23.791,-0.01,0.046,0.989
2026/01/08 10:05:23.810,-0.01,0.049,0.993
2026/01/08 10:05:23.829,-0.008,0.053,0.998
2026/01/08 10:05:23.849,-0.006,0.051,0.992
2026/01/08 10:05:23.868,-0.001,0.05,0.989
2026/01/08 10:05:23.887,-0.006,0.05,0.999
2026/01/08 10:05:23.907,-0.008,0.044,0.995
2026/01/08 10:05:23.926,-0.01,0.047,0.996
2026/01/08 10:05:23.945,-0.007,0.046,0.993
2026/01/08 10:05:23.965,0.0,0.047,0.995
2026/01/08 10:05:23.984,-0.003,0.049,0.993
2026/01/08 10:05:24.003,-0.007,0.045,0.991
2026/01/08 10:05:24.023,-0.009,0.048,0.992
2026/01/08 10:05:24.042,-0.012,0.051,0.99
2026/01/08 10:05:24.061,-0.003,0.053,0.998
2026/01/08 10:05:24.081,-0.002,0.053,0.991
2026/01/08 10:05:24.100,-0.004,0.054,0.993
2026/01/08 10:05:24.119,-0.006,0.051,0.991
2026/01/08 10:05:24.139,-0.011,0.048,0.995
2026/01/08 10:05:24.158,-0.008,0.047,0.99
2026/01/08 10:05:24.177,-0.005,0.047,0.994
2026/01/08 10:05:24.197,-0.001,0.049,0.995
2026/01/08 10:05:24.216,-0.002,0.05,0.994
2026/01/08 10:05:24.235,-0.01,0.051,0.994
2026/01/08 10:05:24.255,-0.008,0.052,0.994
2026/01/08 10:05:24.274,-0.005,0.052,0.995
2026/01/08 10:05:24.293,-0.003,0.045,0.994
2026/01/08 10:05:24.313,-0.006,0.045,0.991
2026/01/08 10:05:24.332,-0.01,0.047,0.992
2026/01/08 10:05:24.352,-0.008,0.05,0.992
2026/01/08 10:05:24.371,-0.003,0.05,0.994
2026/01/08 10:05:24.390,-0.002,0.05,0.995
2026/01/08 10:05:24.410,-0.002,0.047,0.995
2026/01/08 10:05:24.429,-0.008,0.048,0.996
2026/01/08 10:05:24.448,-0.011,0.049,0.995
2026/01/08 10:05:24.468,-0.008,0.048,0.996
2026/01/08 10:05:24.487,-0.006,0.047,0.992
2026/01/08 10:05:24.506,-0.007,0.047,0.992
2026/01/08 10:05:24.526,-0.005,0.05,0.995
2026/01/08 10:05:24.545,-0.008,0.049,0.998
2026/01/08 10:05:24.564,-0.008,0.05,0.995
2026/01/08 10:05:24.584,-0.004,0.051,0.992
2026/01/08 10:05:24.603,-0.003,0.048,0.994
2026/01/08 10:05:24.622,-0.006,0.046,0.995
2026/01/08 10:05:24.642,-0.007,0.05,0.991
2026/01/08 10:05:24.661,-0.008,0.048,0.992
2026/01/08 10:05:24.680,-0.008,0.048,0.987
2026/01/08 10:05:24.700,-0.008,0.05,0.996
2026/01/08 10:05:24.719,-0.01,0.055,0.996
2026/01/08 10:05:24.738,-0.005,0.052,0.993
2026/01/08 10:05:24.758,-0.007,0.05,0.995
2026/01/08 10:05:24.777,-0.011,0.045,0.997
2026/01/08 10:05:24.796,-0.007,0.046,0.994
2026/01/08 10:05:24.816,-0.007,0.045,0.997
2026/01/08 10:05:24.835,-0.004,0.048,0.993
2026/01/08 10:05:24.854,-0.004,0.047,0.994
2026/01/08 10:05:24.874,-0.004,0.051,0.995
2026/01/08 10:05:24.893,-0.007,0.046,0.992
2026/01/08 10:05:24.912,-0.006,0.042,0.992
2026/01/08 10:05:24.932,-0.004,0.045,0.997
2026/01/08 10:05:24.951,-0.005,0.045,0.998
2026/01/08 10:05:24.970,-0.005,0.054,0.995
2026/01/08 10:05:24.990,-0.005,0.056,0.993
2026/01/08 10:05:25.009,-0.007,0.049,0.995
2026/01/08 10:05:25.028,-0.004,0.049,0.994
2026/01/08 10:05:25.048,-0.004,0.044,0.996
2026/01/08 10:05:25.067,-0.01,0.043,0.991
2026/01/08 10:05:25.086,-0.007,0.045,0.994
2026/01/08 10:05:25.106,-0.007,0.049,1.0
2026/01/08 10:05:25.125,-0.001,0.049,0.991
2026/01/08 10:05:25.144,-0.004,0.049,0.995
2026/01/08 10:05:25.164,-0.005,0.05,0.995
2026/01/08 10:05:25.183,-0.007,0.051,0.994
2026/01/08 10:05:25.203,-0.009,0.05,0.997
2026/01/08 10:05:25.222,-0.006,0.051,0.994
2026/01/08 10:05:25.241,-0.002,0.044,0.995
2026/01/08 10:05:25.261,-0.005,0.052,0.992
2026/01/08 10:05:25.280,-0.003,0.053,0.993
2026/01/08 10:05:25.299,-0.01,0.05,0.991
2026/01/08 10:05:25.319,-0.008,0.047,0.989
2026/01/08 10:05:25.338,-0.009,0.052,0.995
2026/01/08 10:05:25.357,-0.007,0.046,0.995
2026/01/08 10:05:25.377,-0.004,0.045,0.994
2026/01/08 10:05:25.396,-0.003,0.049,0.991
2026/01/08 10:05:25.415,-0.009,0.048,0.995
2026/01/08 10:05:25.435,-0.004,0.046,0.992
2026/01/08 10:05:25.454,-0.006,0.049,0.995
2026/01/08 10:05:25.473,-0.004,0.048,0.995
2026/01/08 10:05:25.493,0.001,0.05,0.994
2026/01/08 10:05:25.512,-0.005,0.051,0.992
2026/01/08 10:05:25.531,-0.007,0.05,0.991
2026/01/08 10:05:25.551,-0.01,0.05,0.992
2026/01/08 10:05:25.570,-0.007,0.043,0.995
2026/01/08 10:05:25.589,-0.009,0.047,0.993
2026/01/08 10:05:25.609,-0.006,0.051,0.996
2026/01/08 10:05:25.628,-0.006,0.046,0.992
2026/01/08 10:05:25.647,-0.004,0.05,0.995
2026/01/08 10:05:25.667,-0.005,0.048,0.992
2026/01/08 10:05:25.686,-0.008,0.05,0.995
2026/01/08 10:05:25.705,-0.005,0.052,0.995
2026/01/08 10:05:25.725,-0.005,0.045,0.991
2026/01/08 10:05:25.744,-0.004,0.05,0.996
2026/01/08 10:05:25.763,-0.005,0.052,0.991
2026/01/08 10:05:25.783,-0.007,0.051,0.991
2026/01/08 10:05:25.802,-0.005,0.05,0.995
2026/01/08 10:05:25.821,-0.006,0.047,0.994
2026/01/08 10:05:25.841,-0.008,0.046,0.99
2026/01/08 10:05:25.860,-0.005,0.05,0.995
2026/01/08 10:05:25.879,-0.005,0.052,0.992
2026/01/08 10:05:25.899,-0.004,0.05,0.995
2026/01/08 10:05:25.918,-0.006,0.051,0.995
2026/01/08 10:05:25.937,-0.005,0.05,0.994
2026/01/08 10:05:25.957,-0.01,0.048,0.993
2026/01/08 10:05:25.976,-0.008,0.05,0.991
2026/01/08 10:05:25.996,-0.005,0.048,0.997
2026/01/08 10:05:26.015,-0.002,0.05,0.994
2026/01/08 10:05:26.034,-0.004,0.051,0.99
2026/01/08 10:05:26.054,-0.009,0.046,0.994
2026/01/08 10:05:26.073,-0.008,0.049,0.994
2026/01/08 10:05:26.092,-0.009,0.045,0.99
2026/01/08 10:05:26.112,-0.004,0.043,0.99
2026/01/08 10:05:26.131,-0.003,0.048,0.992
2026/01/08 10:05:26.150,-0.004,0.048,0.994
2026/01/08 10:05:26.170,-0.006,0.044,0.995
2026/01/08 10:05:26.189,-0.008,0.048,0.989
2026/01/08 10:05:26.208,-0.005,0.048,0.99
2026/01/08 10:05:26.228,-0.005,0.05,0.992
2026/01/08 10:05:26.247,-0.004,0.05,0.991
2026/01/08 10:05:26.266,-0.004,0.051,0.992
2026/01/08 10:05:26.286,-0.005,0.052,0.995
2026/01/08 10:05:26.305,-0.005,0.048,0.995
2026/01/08 10:05:26.324,-0.006,0.046,0.992
2026/01/08 10:05:26.344,-0.003,0.047,0.994
2026/01/08 10:05:26.363,-0.004,0.048,0.995
2026/01/08 10:05:26.382,-0.007,0.048,0.993
2026/01/08 10:05:26.402,-0.007,0.047,0.993
2026/01/08 10:05:26.421,-0.003,0.048,0.99
2026/01/08 10:05:26.440,-0.005,0.047,0.992
2026/01/08 10:05:26.460,-0.009,0.049,0.995
2026/01/08 10:05:26.479,-0.008,0.046,0.996
2026/01/08 10:05:26.498,-0.005,0.051,0.996
2026/01/08 10:05:26.518,-0.004,0.05,0.996
2026/01/08 10:05:26.537,-0.003,0.052,0.994
2026/01/08 10:05:26.556,-0.006,0.049,0.996
2026/01/08 10:05:26.576,-0.004,0.047,0.991
2026/01/08 10:05:26.595,-0.009,0.046,0.995
2026/01/08 10:05:26.614,-0.009,0.049,0.99
2026/01/08 10:05:26.634,-0.008,0.051,0.994
2026/01/08 10:05:26.653,-0.005,0.05,0.993
2026/01/08 10:05:26.672,-0.003,0.049,0.996
2026/01/08 10:05:26.692,-0.008,0.046,0.993
2026/01/08 10:05:26.711,-0.007,0.046,0.992
2026/01/08 10:05:26.730,-0.007,0.046,0.989
2026/01/08 10:05:26.750,-0.007,0.047,0.992
2026/01/08 10:05:26.769,-0.004,0.047,0.991
2026/01/08 10:05:26.788,-0.004,0.048,0.993
2026/01/08 10:05:26.808,-0.01,0.052,0.992
2026/01/08 10:05:26.827,-0.007,0.051,0.994
2026/01/08 10:05:26.847,-0.007,0.049,0.991
2026/01/08 10:05:26.866,-0.006,0.047,0.994
2026/01/08 10:05:26.885,-0.003,0.05,0.994
2026/01/08 10:05:26.905,-0.007,0.049,0.989
2026/01/08 10:05:26.924,-0.008,0.053,0.992
2026/01/08 10:05:26.943,-0.007,0.05,0.997
2026/01/08 10:05:26.963,-0.002,0.048,1.001
2026/01/08 10:05:26.982,-0.004,0.046,0.992
2026/01/08 10:05:27.001,-0.003,0.042,0.992
2026/01/08 10:05:27.021,-0.007,0.047,0.993
2026/01/08 10:05:27.040,-0.01,0.053,0.993
2026/01/08 10:05:27.059,-0.01,0.053,0.992
2026/01/08 10:05:27.079,-0.006,0.056,0.99
2026/01/08 10:05:27.098,-0.006,0.046,0.99
2026/01/08 10:05:27.117,-0.01,0.045,0.994
2026/01/08 10:05:27.137,-0.009,0.046,0.995
2026/01/08 10:05:27.156,-0.004,0.049,0.992
2026/01/08 10:05:27.175,-0.005,0.05,0.994
2026/01/08 10:05:27.195,-0.004,0.052,0.992
2026/01/08 10:05:27.214,0.0,0.054,0.993
2026/01/08 10:05:27.233,-0.005,0.05,0.992
2026/01/08 10:05:27.253,-0.011,0.047,0.994
2026/01/08 10:05:27.272,-0.009,0.04,0.988
2026/01/08 10:05:27.291,-0.009,0.04,0.987
2026/01/08 10:05:27.311,-0.004,0.042,0.992
2026/01/08 10:05:27.330,-0.002,0.045,0.999
2026/01/08 10:05:27.349,0.0,0.054,0.997
2026/01/08 10:05:27.369,-0.004,0.057,0.999
2026/01/08 10:05:27.388,-0.003,0.051,0.991
2026/01/08 10:05:27.407,-0.009,0.046,0.992
2026/01/08 10:05:27.427,-0.004,0.044,0.991
2026/01/08 10:05:27.446,-0.005,0.046,0.998
2026/01/08 10:05:27.465,-0.004,0.047,0.994
2026/01/08 10:05:27.485,-0.008,0.049,0.986
2026/01/08 10:05:27.504,-0.008,0.051,0.996
2026/01/08 10:05:27.523,-0.008,0.052,0.999
2026/01/08 10:05:27.543,-0.001,0.048,0.989
2026/01/08 10:05:27.562,-0.007,0.048,0.992
2026/01/08 10:05:27.581,-0.005,0.047,0.997
2026/01/08 10:05:27.601,-0.003,0.049,0.997
2026/01/08 10:05:27.620,0.002,0.048,0.996
2026/01/08 10:05:27.639,-0.002,0.054,0.986
2026/01/08 10:05:27.659,-0.008,0.046,0.991
2026/01/08 10:05:27.678,-0.012,0.046,0.991
2026/01/08 10:05:27.698,-0.009,0.047,0.994
2026/01/08 10:05:27.717,-0.009,0.045,0.998
2026/01/08 10:05:27.736,-0.004,0.048,0.989
2026/01/08 10:05:27.756,-0.003,0.048,0.997
2026/01/08 10:05:27.775,-0.006,0.054,0.996
2026/01/08 10:05:27.794,-0.006,0.056,1.0
2026/01/08 10:05:27.814,-0.011,0.051,0.999
2026/01/08 10:05:27.833,-0.003,0.046,1.0
2026/01/08 10:05:27.852,-0.003,0.046,1.003
2026/01/08 10:05:27.872,-0.005,0.047,0.99
2026/01/08 10:05:27.891,-0.006,0.05,1.011
2026/01/08 10:05:27.910,-0.008,0.047,0.994
2026/01/08 10:05:27.930,-0.018,0.045,0.993
2026/01/08 10:05:27.949,-0.017,0.056,0.977
2026/01/08 10:05:27.968,-0.017,0.051,0.983
2026/01/08 10:05:27.988,-0.015,0.047,0.996
2026/01/08 10:05:28.007,-0.014,0.054,0.986
2026/01/08 10:05:28.026,-0.015,0.054,1.011
2026/01/08 10:05:28.046,-0.008,0.05,0.997
2026/01/08 10:05:28.065,-0.012,0.045,0.955
2026/01/08 10:05:28.084,-0.032,0.048,1.008
2026/01/08 10:05:28.104,-0.019,0.046,0.982
2026/01/08 10:05:28.123,-0.012,0.051,0.992
2026/01/08 10:05:28.142,-0.012,0.05,1.004
2026/01/08 10:05:28.162,-0.014,0.049,0.977
2026/01/08 10:05:28.181,-0.013,0.042,0.996
2026/01/08 10:05:28.200,-0.018,0.046,0.999
2026/01/08 10:05:28.220,-0.016,0.05,0.992
2026/01/08 10:05:28.239,-0.017,0.05,0.995
2026/01/08 10:05:28.258,-0.018,0.046,0.998
2026/01/08 10:05:28.278,-0.014,0.047,0.993
2026/01/08 10:05:28.297,-0.016,0.05,0.997
2026/01/08 10:05:28.316,-0.011,0.05,0.99
2026/01/08 10:05:28.336,-0.013,0.048,0.991
2026/01/08 10:05:28.355,-0.019,0.047,0.997
2026/01/08 10:05:28.374,-0.016,0.048,0.992
2026/01/08 10:05:28.394,-0.014,0.047,0.988
2026/01/08 10:05:28.413,-0.016,0.05,0.992
2026/01/08 10:05:28.432,-0.015,0.051,0.995
2026/01/08 10:05:28.452,-0.015,0.052,0.99
2026/01/08 10:05:28.471,-0.015,0.05,0.993
2026/01/08 10:05:28.490,-0.017,0.048,0.993
2026/01/08 10:05:28.510,-0.013,0.051,0.995
2026/01/08 10:05:28.529,-0.015,0.049,0.99
2026/01/08 10:05:28.549,-0.016,0.044,0.995
2026/01/08 10:05:28.568,-0.014,0.051,0.994
2026/01/08 10:05:28.587,-0.017,0.047,0.993
2026/01/08 10:05:28.607,-0.016,0.051,0.993
2026/01/08 10:05:28.626,-0.016,0.048,0.993
2026/01/08 10:05:28.645,-0.015,0.047,0.997
2026/01/08 10:05:28.665,-0.016,0.046,0.996
2026/01/08 10:05:28.684,-0.017,0.05,0.992
2026/01/08 10:05:28.703,-0.017,0.05,0.995
2026/01/08 10:05:28.723,-0.014,0.049,0.994
2026/01/08 10:05:28.742,-0.015,0.05,0.996
2026/01/08 10:05:28.761,-0.019,0.047,0.996
2026/01/08 10:05:28.781,-0.013,0.052,0.996
2026/01/08 10:05:28.800,-0.015,0.051,0.993
2026/01/08 10:05:28.819,-0.014,0.047,0.997
2026/01/08 10:05:28.839,-0.016,0.049,0.995
2026/01/08 10:05:28.858,-0.015,0.051,0.997
2026/01/08 10:05:28.877,-0.015,0.047,0.992
2026/01/08 10:05:28.897,-0.016,0.047,0.995
2026/01/08 10:05:28.916,-0.014,0.05,0.993
2026/01/08 10:05:28.935,-0.014,0.05,0.996
2026/01/08 10:05:28.955,-0.018,0.049,0.994
2026/01/08 10:05:28.974,-0.014,0.052,0.994
2026/01/08 10:05:28.993,-0.016,0.047,0.995
2026/01/08 10:05:29.013,-0.013,0.046,0.997
2026/01/08 10:05:29.032,-0.016,0.047,0.996
2026/01/08 10:05:29.051,-0.015,0.048,0.996
2026/01/08 10:05:29.071,-0.014,0.05,0.998
2026/01/08 10:05:29.090,-0.016,0.048,0.992
2026/01/08 10:05:29.109,-0.016,0.049,0.992
2026/01/08 10:05:29.129,-0.016,0.049,0.995
2026/01/08 10:05:29.148,-0.015,0.047,0.992
2026/01/08 10:05:29.167,-0.018,0.049,0.99
2026/01/08 10:05:29.187,-0.013,0.052,0.991
2026/01/08 10:05:29.206,-0.014,0.046,0.995
2026/01/08 10:05:29.225,-0.017,0.048,0.994
2026/01/08 10:05:29.245,-0.014,0.049,0.99
2026/01/08 10:05:29.264,-0.018,0.047,0.996
2026/01/08 10:05:29.283,-0.015,0.046,0.993
2026/01/08 10:05:29.303,-0.019,0.047,0.997
2026/01/08 10:05:29.322,-0.016,0.047,0.994
2026/01/08 10:05:29.341,-0.018,0.047,0.995
2026/01/08 10:05:29.361,-0.015,0.049,0.999
2026/01/08 10:05:29.380,-0.014,0.05,0.994
2026/01/08 10:05:29.399,-0.015,0.053,0.996
2026/01/08 10:05:29.419,-0.016,0.045,0.994
2026/01/08 10:05:29.438,-0.013,0.047,0.993
2026/01/08 10:05:29.457,-0.013,0.055,0.993
2026/01/08 10:05:29.477,-0.022,0.051,0.995
2026/01/08 10:05:29.496,-0.015,0.053,0.995
2026/01/08 10:05:29.516,-0.013,0.051,0.994
2026/01/08 10:05:29.535,-0.014,0.05,0.993
2026/01/08 10:05:29.554,-0.016,0.047,0.992
2026/01/08 10:05:29.574,-0.015,0.05,0.994
2026/01/08 10:05:29.593,-0.021,0.051,0.994
2026/01/08 10:05:29.612,-0.013,0.052,0.992
2026/01/08 10:05:29.632,-0.015,0.05,0.997
2026/01/08 10:05:29.651,-0.014,0.05,0.992
2026/01/08 10:05:29.670,-0.012,0.049,0.992
2026/01/08 10:05:29.690,-0.014,0.049,0.994
2026/01/08 10:05:29.709,-0.017,0.05,0.991
2026/01/08 10:05:29.728,-0.021,0.055,1.001
2026/01/08 10:05:29.748,-0.007,0.015,0.768
2026/01/08 10:05:29.767,-0.026,0.037,0.974
2026/01/08 10:05:29.786,-0.024,0.043,1.0
2026/01/08 10:05:29.806,-0.011,0.049,1.012
2026/01/08 10:05:29.825,-0.015,0.04,0.952
2026/01/08 10:05:29.844,-0.013,0.035,0.974
2026/01/08 10:05:29.864,-0.019,0.034,1.007
2026/01/08 10:05:29.883,0.002,0.053,0.971
2026/01/08 10:05:29.902,-0.014,0.057,0.992
2026/01/08 10:05:29.922,-0.002,0.053,0.993
2026/01/08 10:05:29.941,-0.016,0.044,0.996
2026/01/08 10:05:29.960,-0.016,0.05,0.986
2026/01/08 10:05:29.980,-0.015,0.047,1.0
2026/01/08 10:05:29.999,-0.017,0.05,0.988
2026/01/08 10:05:30.018,-0.016,0.045,0.992
2026/01/08 10:05:30.038,-0.016,0.052,0.995
2026/01/08 10:05:30.057,-0.014,0.051,0.989
2026/01/08 10:05:30.076,-0.014,0.047,0.991
2026/01/08 10:05:30.096,-0.012,0.048,0.996
2026/01/08 10:05:30.115,-0.018,0.046,0.991
2026/01/08 10:05:30.134,-0.017,0.049,0.994
2026/01/08 10:05:30.154,-0.014,0.05,0.991
2026/01/08 10:05:30.173,-0.017,0.045,0.994
2026/01/08 10:05:30.192,-0.015,0.045,0.993
2026/01/08 10:05:30.212,-0.015,0.049,0.992
2026/01/08 10:05:30.231,-0.017,0.048,0.994
2026/01/08 10:05:30.250,-0.016,0.05,0.991
2026/01/08 10:05:30.270,-0.017,0.047,0.996
2026/01/08 10:05:30.289,-0.016,0.047,0.995
2026/01/08 10:05:30.308,-0.013,0.047,0.991
2026/01/08 10:05:30.328,-0.015,0.048,0.992
2026/01/08 10:05:30.347,-0.017,0.052,0.995
2026/01/08 10:05:30.366,-0.017,0.048,0.998
2026/01/08 10:05:30.386,-0.019,0.038,0.984
2026/01/08 10:05:30.405,-0.02,0.044,1.022
2026/01/08 10:05:30.425,-0.017,0.056,1.003
2026/01/08 10:05:30.444,-0.014,0.055,0.986
2026/01/08 10:05:30.463,-0.013,0.049,0.995
2026/01/08 10:05:30.483,-0.02,0.049,0.986
2026/01/08 10:05:30.502,-0.017,0.056,0.991
2026/01/08 10:05:30.521,-0.022,0.037,0.964
2026/01/08 10:05:30.541,-0.006,0.067,0.935
2026/01/08 10:05:30.560,0.0,0.077,0.931
2026/01/08 10:05:30.579,-0.053,0.052,0.969
2026/01/08 10:05:30.599,-0.028,0.058,0.972
2026/01/08 10:05:30.618,0.001,0.027,1.0
2026/01/08 10:05:30.637,-0.012,0.035,0.994
2026/01/08 10:05:30.657,-0.009,0.047,1.009
2026/01/08 10:05:30.676,-0.022,0.067,1.019
2026/01/08 10:05:30.695,-0.049,0.061,0.995
2026/01/08 10:05:30.715,-0.023,0.061,0.963
2026/01/08 10:05:30.734,-0.036,0.054,0.996
2026/01/08 10:05:30.753,-0.013,0.038,0.991
2026/01/08 10:05:30.773,-0.01,0.049,1.005
2026/01/08 10:05:30.792,-0.025,0.057,0.997
2026/01/08 10:05:30.811,-0.066,0.051,0.953
2026/01/08 10:05:30.831,-0.013,0.043,1.052
2026/01/08 10:05:30.850,-0.003,-0.014,0.987
2026/01/08 10:05:30.869,-0.04,0.022,1.097
2026/01/08 10:05:30.889,-0.019,0.05,1.031
2026/01/08 10:05:30.908,-0.01,0.05,0.993
2026/01/08 10:05:30.927,-0.005,0.053,0.981
2026/01/08 10:05:30.947,0.004,0.161,1.284
2026/01/08 10:05:30.966,0.052,0.125,0.751
2026/01/08 10:05:30.985,-0.031,-0.024,0.938
2026/01/08 10:05:31.005,-0.036,0.045,0.965
2026/01/08 10:05:31.024,-0.024,0.056,1.002
2026/01/08 10:05:31.043,-0.017,0.048,0.987
2026/01/08 10:05:31.063,-0.013,0.047,0.982
2026/01/08 10:05:31.082,-0.018,0.048,1.001
2026/01/08 10:05:31.101,-0.015,0.051,0.997
2026/01/08 10:05:31.121,-0.016,0.052,0.993
2026/01/08 10:05:31.140,-0.018,0.048,0.996
2026/01/08 10:05:31.159,-0.024,0.057,0.975
2026/01/08 10:05:31.179,-0.02,0.047,0.996
2026/01/08 10:05:31.198,-0.019,0.051,0.995
2026/01/08 10:05:31.217,-0.014,0.05,0.992
2026/01/08 10:05:31.237,-0.013,0.043,0.99
2026/01/08 10:05:31.256,-0.019,0.051,0.987
2026/01/08 10:05:31.275,-0.019,0.052,0.996
2026/01/08 10:05:31.295,-0.014,0.047,0.995
2026/01/08 10:05:31.314,-0.017,0.051,0.995
2026/01/08 10:05:31.333,-0.015,0.049,0.992
2026/01/08 10:05:31.353,-0.015,0.046,0.991
2026/01/08 10:05:31.372,-0.014,0.053,0.994
2026/01/08 10:05:31.392,-0.016,0.045,0.996
2026/01/08 10:05:31.411,-0.013,0.048,0.99
2026/01/08 10:05:31.430,-0.017,0.042,0.995
2026/01/08 10:05:31.450,-0.018,0.051,0.996
2026/01/08 10:05:31.469,-0.016,0.046,0.995
2026/01/08 10:05:31.488,-0.012,0.048,0.996
2026/01/08 10:05:31.508,-0.016,0.044,0.995
2026/01/08 10:05:31.527,-0.019,0.046,0.994
2026/01/08 10:05:31.546,-0.015,0.048,0.994
2026/01/08 10:05:31.566,-0.017,0.049,0.992
2026/01/08 10:05:31.585,-0.021,0.048,0.997
2026/01/08 10:05:31.604,-0.011,0.048,0.992
2026/01/08 10:05:31.624,-0.019,0.05,0.994
2026/01/08 10:05:31.643,-0.016,0.045,0.995
2026/01/08 10:05:31.662,-0.016,0.045,0.991
2026/01/08 10:05:31.682,-0.016,0.047,0.99
2026/01/08 10:05:31.701,-0.02,0.049,0.992
2026/01/08 10:05:31.720,-0.018,0.049,0.993
2026/01/08 10:05:31.740,-0.015,0.046,0.994
2026/01/08 10:05:31.759,-0.013,0.047,0.994
2026/01/08 10:05:31.778,-0.016,0.049,0.996
2026/01/08 10:05:31.798,-0.016,0.052,0.993
2026/01/08 10:05:31.817,-0.016,0.049,0.995
2026/01/08 10:05:31.836,-0.015,0.047,0.993
2026/01/08 10:05:31.856,-0.017,0.047,0.989
2026/01/08 10:05:31.875,-0.019,0.05,0.992
2026/01/08 10:05:31.894,-0.015,0.05,0.997
2026/01/08 10:05:31.914,-0.017,0.049,0.993
2026/01/08 10:05:31.933,-0.016,0.049,0.994
2026/01/08 10:05:31.952,-0.018,0.045,0.993
2026/01/08 10:05:31.972,-0.017,0.05,0.993
2026/01/08 10:05:31.991,-0.013,0.049,0.992
2026/01/08 10:05:32.010,-0.02,0.046,0.991
2026/01/08 10:05:32.030,-0.013,0.045,0.994
2026/01/08 10:05:32.049,-0.016,0.046,0.992
2026/01/08 10:05:32.068,-0.018,0.044,0.993
2026/01/08 10:05:32.088,-0.017,0.051,0.991
2026/01/08 10:05:32.107,-0.016,0.049,0.992
2026/01/08 10:05:32.126,-0.017,0.049,0.993
2026/01/08 10:05:32.146,-0.018,0.052,0.997
2026/01/08 10:05:32.165,-0.016,0.049,0.992
2026/01/08 10:05:32.184,-0.016,0.047,0.991
2026/01/08 10:05:32.204,-0.016,0.042,0.992
2026/01/08 10:05:32.223,-0.02,0.049,0.992
2026/01/08 10:05:32.242,-0.019,0.051,0.995
2026/01/08 10:05:32.262,-0.016,0.051,0.993
2026/01/08 10:05:32.281,-0.018,0.049,0.994
2026/01/08 10:05:32.300,-0.017,0.049,0.995
2026/01/08 10:05:32.320,-0.018,0.048,0.994
2026/01/08 10:05:32.339,-0.019,0.049,0.992
2026/01/08 10:05:32.359,-0.018,0.047,0.995
2026/01/08 10:05:32.378,-0.016,0.049,0.993
2026/01/08 10:05:32.397,-0.015,0.048,0.994
2026/01/08 10:05:32.417,-0.017,0.051,0.993
2026/01/08 10:05:32.436,-0.017,0.047,0.992
2026/01/08 10:05:32.455,-0.015,0.051,0.992
2026/01/08 10:05:32.475,-0.016,0.047,0.992
2026/01/08 10:05:32.494,-0.014,0.049,0.993
2026/01/08 10:05:32.513,-0.017,0.047,0.994
2026/01/08 10:05:32.533,-0.018,0.051,0.992
2026/01/08 10:05:32.552,-0.013,0.051,0.991
2026/01/08 10:05:32.571,-0.013,0.047,0.993
2026/01/08 10:05:32.591,-0.016,0.049,0.992
2026/01/08 10:05:32.610,-0.018,0.051,0.995
2026/01/08 10:05:32.629,-0.016,0.043,0.993
2026/01/08 10:05:32.649,-0.018,0.052,0.993
2026/01/08 10:05:32.668,-0.014,0.047,0.996
2026/01/08 10:05:32.687,-0.015,0.048,0.993
2026/01/08 10:05:32.707,-0.016,0.046,0.994
2026/01/08 10:05:32.726,-0.015,0.049,0.991
2026/01/08 10:05:32.745,-0.016,0.046,0.992
2026/01/08 10:05:32.765,-0.015,0.051,0.994
2026/01/08 10:05:32.784,-0.019,0.051,0.994
2026/01/08 10:05:32.803,-0.017,0.05,0.993
2026/01/08 10:05:32.823,-0.017,0.051,0.994
2026/01/08 10:05:32.842,-0.017,0.046,0.993
2026/01/08 10:05:32.861,-0.014,0.047,0.99
2026/01/08 10:05:32.881,-0.015,0.046,0.991
2026/01/08 10:05:32.900,-0.015,0.05,0.994
2026/01/08 10:05:32.919,-0.012,0.049,0.993
2026/01/08 10:05:32.939,-0.016,0.049,0.992
2026/01/08 10:05:32.958,-0.017,0.047,0.992
2026/01/08 10:05:32.977,-0.019,0.05,0.993
2026/01/08 10:05:32.997,-0.016,0.05,0.992
2026/01/08 10:05:33.016,-0.015,0.047,0.991
2026/01/08 10:05:33.035,-0.012,0.048,0.992
2026/01/08 10:05:33.055,-0.012,0.045,0.991
2026/01/08 10:05:33.074,-0.015,0.049,0.991
2026/01/08 10:05:33.093,-0.018,0.049,0.996
2026/01/08 10:05:33.113,-0.012,0.05,0.995
2026/01/08 10:05:33.132,-0.016,0.045,0.995
2026/01/08 10:05:33.151,-0.019,0.052,0.994
2026/01/08 10:05:33.171,-0.012,0.046,0.995
2026/01/08 10:05:33.190,-0.015,0.047,0.991
2026/01/08 10:05:33.210,-0.017,0.047,0.992
2026/01/08 10:05:33.229,-0.019,0.047,0.991
2026/01/08 10:05:33.248,-0.015,0.049,0.992
2026/01/08 10:05:33.268,-0.014,0.05,0.99
2026/01/08 10:05:33.287,-0.014,0.05,0.991
2026/01/08 10:05:33.306,-0.015,0.047,0.991
2026/01/08 10:05:33.326,-0.015,0.047,0.992
2026/01/08 10:05:33.345,-0.013,0.05,0.992
2026/01/08 10:05:33.364,-0.015,0.043,0.993
2026/01/08 10:05:33.384,-0.015,0.049,0.993
2026/01/08 10:05:33.403,-0.015,0.049,0.992
2026/01/08 10:05:33.422,-0.013,0.049,0.994
2026/01/08 10:05:33.442,-0.013,0.045,0.995
2026/01/08 10:05:33.461,-0.013,0.049,0.994
2026/01/08 10:05:33.480,-0.018,0.047,0.99
2026/01/08 10:05:33.500,-0.017,0.052,0.993
2026/01/08 10:05:33.519,-0.018,0.051,0.995
2026/01/08 10:05:33.538,-0.017,0.046,0.993
2026/01/08 10:05:33.558,-0.017,0.048,0.992
2026/01/08 10:05:33.577,-0.02,0.049,0.994
2026/01/08 10:05:33.596,-0.018,0.052,0.992
2026/01/08 10:05:33.616,-0.015,0.041,0.993
2026/01/08 10:05:33.635,-0.018,0.045,0.994
2026/01/08 10:05:33.654,-0.014,0.051,0.99
2026/01/08 10:05:33.674,-0.014,0.047,0.995
2026/01/08 10:05:33.693,-0.018,0.052,0.993
2026/01/08 10:05:33.712,-0.016,0.047,0.994
2026/01/08 10:05:33.732,-0.013,0.049,0.99
2026/01/08 10:05:33.751,-0.018,0.049,0.99
2026/01/08 10:05:33.770,-0.014,0.046,0.993
2026/01/08 10:05:33.790,-0.018,0.049,0.996
2026/01/08 10:05:33.809,-0.016,0.05,0.993
2026/01/08 10:05:33.828,-0.016,0.048,0.995
2026/01/08 10:05:33.848,-0.013,0.053,0.993
2026/01/08 10:05:33.867,-0.017,0.049,0.993
2026/01/08 10:05:33.886,-0.016,0.044,0.992
2026/01/08 10:05:33.906,-0.016,0.049,0.992
2026/01/08 10:05:33.925,-0.016,0.051,0.992
2026/01/08 10:05:33.944,-0.018,0.049,0.991
2026/01/08 10:05:33.964,-0.014,0.046,0.995
2026/01/08 10:05:33.983,-0.016,0.043,0.995
2026/01/08 10:05:34.003,-0.013,0.045,0.995
2026/01/08 10:05:34.022,-0.016,0.049,0.992
2026/01/08 10:05:34.041,-0.016,0.05,0.989
2026/01/08 10:05:34.061,-0.016,0.05,0.994
2026/01/08 10:05:34.080,-0.013,0.051,0.993
2026/01/08 10:05:34.099,-0.015,0.046,0.992
2026/01/08 10:05:34.119,-0.018,0.054,0.995
2026/01/08 10:05:34.138,-0.021,0.048,0.99
2026/01/08 10:05:34.157,-0.018,0.048,0.993
2026/01/08 10:05:34.177,-0.014,0.047,0.991
2026/01/08 10:05:34.196,-0.016,0.048,0.993
2026/01/08 10:05:34.215,-0.014,0.046,0.992
2026/01/08 10:05:34.235,-0.012,0.049,0.994
2026/01/08 10:05:34.254,-0.016,0.05,0.993
2026/01/08 10:05:34.273,-0.017,0.047,0.994
2026/01/08 10:05:34.293,-0.014,0.047,0.989
2026/01/08 10:05:34.312,-0.018,0.049,0.988
2026/01/08 10:05:34.331,-0.016,0.047,0.994
2026/01/08 10:05:34.351,-0.019,0.049,0.994
2026/01/08 10:05:34.370,-0.013,0.045,0.989
2026/01/08 10:05:34.389,-0.019,0.047,0.994
2026/01/08 10:05:34.409,-0.018,0.052,0.993
2026/01/08 10:05:34.428,-0.019,0.049,0.995
2026/01/08 10:05:34.447,-0.015,0.052,0.991
2026/01/08 10:05:34.467,-0.011,0.046,0.99
2026/01/08 10:05:34.486,-0.014,0.046,0.993
2026/01/08 10:05:34.505,-0.014,0.044,0.995
2026/01/08 10:05:34.525,-0.017,0.047,0.993
2026/01/08 10:05:34.544,-0.017,0.046,0.996
2026/01/08 10:05:34.563,-0.015,0.052,0.992
2026/01/08 10:05:34.583,-0.018,0.045,0.996
2026/01/08 10:05:34.602,-0.014,0.051,0.995
2026/01/08 10:05:34.621,-0.016,0.051,0.995
2026/01/08 10:05:34.641,-0.014,0.048,0.989
2026/01/08 10:05:34.660,-0.018,0.047,0.991
2026/01/08 10:05:34.679,-0.017,0.049,0.994
2026/01/08 10:05:34.699,-0.014,0.05,0.994
2026/01/08 10:05:34.718,-0.013,0.048,0.995
2026/01/08 10:05:34.737,-0.016,0.048,0.99
2026/01/08 10:05:34.757,-0.015,0.046,0.992
2026/01/08 10:05:34.776,-0.015,0.046,0.993
2026/01/08 10:05:34.795,-0.017,0.05,0.996
2026/01/08 10:05:34.815,-0.017,0.047,0.996
2026/01/08 10:05:34.834,-0.019,0.045,0.992
2026/01/08 10:05:34.854,-0.013,0.049,0.99
2026/01/08 10:05:34.873,-0.014,0.051,0.992
2026/01/08 10:05:34.892,-0.019,0.048,0.995
2026/01/08 10:05:34.912,-0.016,0.049,0.993
2026/01/08 10:05:34.931,-0.018,0.051,0.994
2026/01/08 10:05:34.950,-0.017,0.046,0.992
2026/01/08 10:05:34.970,-0.015,0.051,0.994
2026/01/08 10:05:34.989,-0.019,0.049,0.992
2026/01/08 10:05:35.008,-0.017,0.049,0.992
2026/01/08 10:05:35.028,-0.017,0.049,0.992
2026/01/08 10:05:35.047,-0.017,0.051,0.991
2026/01/08 10:05:35.066,-0.016,0.048,0.992
2026/01/08 10:05:35.086,-0.013,0.047,0.996
2026/01/08 10:05:35.105,-0.016,0.045,0.995
2026/01/08 10:05:35.124,-0.017,0.047,0.993
2026/01/08 10:05:35.144,-0.012,0.052,0.991
2026/01/08 10:05:35.163,-0.011,0.05,0.994
2026/01/08 10:05:35.182,-0.014,0.047,0.992
2026/01/08 10:05:35.202,-0.015,0.052,0.995
2026/01/08 10:05:35.221,-0.017,0.047,0.995
2026/01/08 10:05:35.240,-0.017,0.047,0.992
2026/01/08 10:05:35.260,-0.018,0.048,0.996
2026/01/08 10:05:35.279,-0.013,0.049,0.99
2026/01/08 10:05:35.298,-0.016,0.05,0.993
2026/01/08 10:05:35.318,-0.017,0.046,0.992
2026/01/08 10:05:35.337,-0.016,0.043,0.996
2026/01/08 10:05:35.356,-0.021,0.045,0.993
2026/01/08 10:05:35.376,-0.018,0.048,0.992
2026/01/08 10:05:35.395,-0.013,0.052,0.992
2026/01/08 10:05:35.414,-0.018,0.045,0.993
2026/01/08 10:05:35.434,-0.014,0.047,0.989
2026/01/08 10:05:35.453,-0.015,0.047,0.99
2026/01/08 10:05:35.472,-0.015,0.047,0.993
2026/01/08 10:05:35.492,-0.016,0.047,0.992
2026/01/08 10:05:35.511,-0.014,0.049,0.995
2026/01/08 10:05:35.530,-0.013,0.049,0.996
2026/01/08 10:05:35.550,-0.019,0.05,0.993
2026/01/08 10:05:35.569,-0.018,0.05,0.992
2026/01/08 10:05:35.588,-0.016,0.05,0.997
2026/01/08 10:05:35.608,-0.014,0.047,0.99
2026/01/08 10:05:35.627,-0.014,0.046,0.992
2026/01/08 10:05:35.647,-0.013,0.046,0.997
2026/01/08 10:05:35.666,-0.017,0.046,0.996
2026/01/08 10:05:35.685,-0.017,0.05,0.992
2026/01/08 10:05:35.705,-0.018,0.046,0.991
2026/01/08 10:05:35.724,-0.015,0.05,0.991
2026/01/08 10:05:35.743,-0.015,0.048,0.992
2026/01/08 10:05:35.763,-0.018,0.048,0.995
2026/01/08 10:05:35.782,-0.016,0.047,0.994
2026/01/08 10:05:35.801,-0.018,0.048,0.994
2026/01/08 10:05:35.821,-0.018,0.051,0.992
2026/01/08 10:05:35.840,-0.016,0.051,0.989
2026/01/08 10:05:35.859,-0.017,0.045,0.993
2026/01/08 10:05:35.879,-0.017,0.047,0.994
2026/01/08 10:05:35.898,-0.015,0.046,0.99
2026/01/08 10:05:35.917,-0.016,0.052,0.992
2026/01/08 10:05:35.937,-0.018,0.046,0.99
2026/01/08 10:05:35.956,-0.015,0.048,0.993
2026/01/08 10:05:35.975,-0.015,0.046,0.992
2026/01/08 10:05:35.995,-0.015,0.048,0.994
2026/01/08 10:05:36.014,-0.019,0.045,0.993
2026/01/08 10:05:36.033,-0.016,0.05,0.993
2026/01/08 10:05:36.053,-0.017,0.049,0.993
2026/01/08 10:05:36.072,-0.015,0.051,0.992
2026/01/08 10:05:36.091,-0.015,0.046,0.995
2026/01/08 10:05:36.111,-0.017,0.051,0.988
2026/01/08 10:05:36.130,-0.015,0.045,0.992
2026/01/08 10:05:36.149,-0.018,0.047,0.989
2026/01/08 10:05:36.169,-0.018,0.05,0.994
2026/01/08 10:05:36.188,-0.016,0.049,0.992
2026/01/08 10:05:36.207,-0.017,0.046,0.996
2026/01/08 10:05:36.227,-0.014,0.047,0.993
2026/01/08 10:05:36.246,-0.009,0.049,0.992
2026/01/08 10:05:36.265,-0.02,0.047,0.993
2026/01/08 10:05:36.285,-0.014,0.049,0.997
2026/01/08 10:05:36.304,-0.017,0.046,0.992
2026/01/08 10:05:36.323,-0.015,0.045,0.993
2026/01/08 10:05:36.343,-0.016,0.049,0.994
2026/01/08 10:05:36.362,-0.019,0.044,0.991
2026/01/08 10:05:36.381,-0.018,0.049,0.992
2026/01/08 10:05:36.401,-0.017,0.051,0.992
2026/01/08 10:05:36.420,-0.015,0.048,0.994
2026/01/08 10:05:36.439,-0.017,0.048,0.996
2026/01/08 10:05:36.459,-0.02,0.047,0.994
2026/01/08 10:05:36.478,-0.018,0.052,0.995
2026/01/08 10:05:36.498,-0.016,0.048,0.992
2026/01/08 10:05:36.517,-0.015,0.049,0.995
2026/01/08 10:05:36.536,-0.016,0.045,0.995
2026/01/08 10:05:36.556,-0.017,0.048,0.992
2026/01/08 10:05:36.575,-0.018,0.05,0.99
2026/01/08 10:05:36.594,-0.018,0.046,0.993
2026/01/08 10:05:36.614,-0.014,0.048,0.992
2026/01/08 10:05:36.633,-0.016,0.046,0.991
2026/01/08 10:05:36.652,-0.015,0.048,0.995
2026/01/08 10:05:36.672,-0.017,0.051,0.994
2026/01/08 10:05:36.691,-0.016,0.05,0.99
2026/01/08 10:05:36.710,-0.016,0.045,0.993
2026/01/08 10:05:36.730,-0.017,0.048,0.995
2026/01/08 10:05:36.749,-0.02,0.045,0.991
2026/01/08 10:05:36.768,-0.015,0.047,0.991
2026/01/08 10:05:36.788,-0.019,0.051,0.99
2026/01/08 10:05:36.807,-0.018,0.048,0.995
2026/01/08 10:05:36.826,-0.014,0.052,0.991
2026/01/08 10:05:36.846,-0.016,0.044,0.993
2026/01/08 10:05:36.865,-0.017,0.048,0.992
2026/01/08 10:05:36.884,-0.017,0.049,0.993
2026/01/08 10:05:36.904,-0.017,0.049,0.993
2026/01/08 10:05:36.923,-0.02,0.051,0.994
2026/01/08 10:05:36.942,-0.017,0.046,0.99
2026/01/08 10:05:36.962,-0.015,0.05,0.991
2026/01/08 10:05:36.981,-0.016,0.053,0.991
2026/01/08 10:05:37.000,-0.018,0.049,0.995
2026/01/08 10:05:37.020,-0.017,0.047,0.992
2026/01/08 10:05:37.039,-0.016,0.048,0.99
2026/01/08 10:05:37.058,-0.012,0.05,0.992
2026/01/08 10:05:37.078,-0.015,0.045,0.991
2026/01/08 10:05:37.097,-0.018,0.049,0.992
2026/01/08 10:05:37.116,-0.021,0.05,0.993
2026/01/08 10:05:37.136,-0.018,0.047,0.992
2026/01/08 10:05:37.155,-0.016,0.049,0.995
2026/01/08 10:05:37.174,-0.017,0.049,0.993
2026/01/08 10:05:37.194,-0.014,0.048,0.993
2026/01/08 10:05:37.213,-0.016,0.047,0.994
2026/01/08 10:05:37.232,-0.018,0.044,0.992
2026/01/08 10:05:37.252,-0.013,0.048,0.994
2026/01/08 10:05:37.271,-0.016,0.053,0.991
2026/01/08 10:05:37.290,-0.016,0.048,0.99
2026/01/08 10:05:37.310,-0.017,0.047,0.994
2026/01/08 10:05:37.329,-0.013,0.053,0.993
2026/01/08 10:05:37.349,-0.016,0.049,0.991
2026/01/08 10:05:37.368,-0.014,0.046,0.991
2026/01/08 10:05:37.387,-0.017,0.049,0.993
2026/01/08 10:05:37.407,-0.016,0.048,0.992
2026/01/08 10:05:37.426,-0.015,0.052,0.992
2026/01/08 10:05:37.445,-0.017,0.051,0.992
2026/01/08 10:05:37.465,-0.016,0.046,0.991
2026/01/08 10:05:37.484,-0.014,0.047,0.988
2026/01/08 10:05:37.503,-0.016,0.048,0.994
2026/01/08 10:05:37.523,-0.018,0.052,0.99
2026/01/08 10:05:37.542,-0.019,0.047,0.993
2026/01/08 10:05:37.561,-0.018,0.046,0.99
2026/01/08 10:05:37.581,-0.015,0.045,0.994
2026/01/08 10:05:37.600,-0.014,0.048,0.993
2026/01/08 10:05:37.619,-0.019,0.046,0.992
2026/01/08 10:05:37.639,-0.017,0.052,0.994
2026/01/08 10:05:37.658,-0.019,0.048,0.992
2026/01/08 10:05:37.677,-0.013,0.048,0.993
2026/01/08 10:05:37.697,-0.015,0.044,0.993
2026/01/08 10:05:37.716,-0.015,0.049,0.99
2026/01/08 10:05:37.735,-0.016,0.05,0.991
2026/01/08 10:05:37.755,-0.016,0.05,0.99
2026/01/08 10:05:37.774,-0.016,0.05,0.993
2026/01/08 10:05:37.793,-0.018,0.049,0.993
2026/01/08 10:05:37.813,-0.014,0.044,0.99
2026/01/08 10:05:37.832,-0.016,0.05,0.996
2026/01/08 10:05:37.851,-0.017,0.047,0.993
2026/01/08 10:05:37.871,-0.015,0.046,0.994
2026/01/08 10:05:37.890,-0.018,0.047,0.987
2026/01/08 10:05:37.909,-0.014,0.046,0.988
2026/01/08 10:05:37.929,-0.014,0.049,0.992
2026/01/08 10:05:37.948,-0.017,0.051,0.994
2026/01/08 10:05:37.967,-0.018,0.049,0.992
2026/01/08 10:05:37.987,-0.016,0.048,0.989
2026/01/08 10:05:38.006,-0.018,0.05,0.995
2026/01/08 10:05:38.025,-0.015,0.046,0.996
2026/01/08 10:05:38.045,-0.014,0.048,0.994
2026/01/08 10:05:38.064,-0.011,0.045,0.994
2026/01/08 10:05:38.083,-0.018,0.049,0.992
2026/01/08 10:05:38.103,-0.019,0.051,0.994
2026/01/08 10:05:38.122,-0.016,0.043,0.993
2026/01/08 10:05:38.142,-0.016,0.048,0.989
2026/01/08 10:05:38.161,-0.016,0.048,0.988
2026/01/08 10:05:38.180,-0.019,0.051,0.992
2026/01/08 10:05:38.200,-0.009,0.047,0.993
2026/01/08 10:05:38.219,-0.02,0.051,0.996
2026/01/08 10:05:38.238,-0.017,0.05,0.995
2026/01/08 10:05:38.258,-0.015,0.049,0.996
2026/01/08 10:05:38.277,-0.015,0.05,0.994
2026/01/08 10:05:38.296,-0.016,0.046,0.993
2026/01/08 10:05:38.316,-0.015,0.051,0.992
2026/01/08 10:05:38.335,-0.017,0.046,0.994
2026/01/08 10:05:38.354,-0.016,0.051,0.994
2026/01/08 10:05:38.374,-0.014,0.051,0.994
2026/01/08 10:05:38.393,-0.014,0.048,0.991
2026/01/08 10:05:38.412,-0.014,0.046,0.991
2026/01/08 10:05:38.432,-0.017,0.051,0.993
2026/01/08 10:05:38.451,-0.015,0.048,0.994
2026/01/08 10:05:38.470,-0.018,0.047,0.993
2026/01/08 10:05:38.490,-0.016,0.049,0.992
2026/01/08 10:05:38.509,-0.017,0.043,0.996
2026/01/08 10:05:38.528,-0.013,0.048,0.99
2026/01/08 10:05:38.548,-0.016,0.045,0.991
2026/01/08 10:05:38.567,-0.016,0.046,0.993
2026/01/08 10:05:38.586,-0.019,0.046,0.989
2026/01/08 10:05:38.606,-0.014,0.048,0.993
2026/01/08 10:05:38.625,-0.013,0.046,0.99
2026/01/08 10:05:38.644,-0.014,0.047,0.993
2026/01/08 10:05:38.664,-0.016,0.047,0.992
2026/01/08 10:05:38.683,-0.019,0.046,0.992
2026/01/08 10:05:38.702,-0.015,0.046,0.99
2026/01/08 10:05:38.722,-0.016,0.051,0.994
2026/01/08 10:05:38.741,-0.019,0.045,0.995
2026/01/08 10:05:38.760,-0.016,0.047,0.993
2026/01/08 10:05:38.780,-0.017,0.05,0.99
2026/01/08 10:05:38.799,-0.018,0.047,0.999
2026/01/08 10:05:38.818,-0.016,0.048,0.994
2026/01/08 10:05:38.838,-0.019,0.05,0.99
2026/01/08 10:05:38.857,-0.013,0.048,0.992
2026/01/08 10:05:38.877,-0.012,0.047,0.993
2026/01/08 10:05:38.896,-0.018,0.048,0.992
2026/01/08 10:05:38.915,-0.013,0.05,0.994
2026/01/08 10:05:38.935,-0.015,0.05,0.995
2026/01/08 10:05:38.954,-0.017,0.048,0.991
2026/01/08 10:05:38.973,-0.016,0.049,0.995
2026/01/08 10:05:38.993,-0.015,0.049,0.995
2026/01/08 10:05:39.012,-0.016,0.05,0.992
2026/01/08 10:05:39.031,-0.013,0.047,0.989
2026/01/08 10:05:39.051,-0.017,0.051,0.992
2026/01/08 10:05:39.070,-0.015,0.051,0.993
2026/01/08 10:05:39.089,-0.017,0.051,0.993
2026/01/08 10:05:39.109,-0.017,0.046,0.989
2026/01/08 10:05:39.128,-0.016,0.048,0.99
2026/01/08 10:05:39.147,-0.017,0.047,0.991
2026/01/08 10:05:39.167,-0.012,0.047,0.994
2026/01/08 10:05:39.186,-0.015,0.05,0.992
2026/01/08 10:05:39.205,-0.015,0.049,0.992
2026/01/08 10:05:39.225,-0.017,0.049,0.993
2026/01/08 10:05:39.244,-0.014,0.05,0.985
2026/01/08 10:05:39.263,-0.014,0.048,0.994
2026/01/08 10:05:39.283,-0.015,0.05,0.994
2026/01/08 10:05:39.302,-0.017,0.042,0.99
2026/01/08 10:05:39.321,-0.01,0.049,0.992
2026/01/08 10:05:39.341,-0.014,0.047,0.993
2026/01/08 10:05:39.360,-0.015,0.047,0.994
2026/01/08 10:05:39.379,-0.017,0.048,0.994
2026/01/08 10:05:39.399,-0.015,0.046,0.994
2026/01/08 10:05:39.418,-0.015,0.048,0.993
2026/01/08 10:05:39.437,-0.019,0.047,0.992
2026/01/08 10:05:39.457,-0.016,0.047,0.996
2026/01/08 10:05:39.476,-0.018,0.046,0.99
2026/01/08 10:05:39.495,-0.017,0.05,0.99
2026/01/08 10:05:39.515,-0.018,0.05,0.995
2026/01/08 10:05:39.534,-0.015,0.051,0.993
2026/01/08 10:05:39.553,-0.01,0.05,0.993
2026/01/08 10:05:39.573,-0.019,0.044,0.991
2026/01/08 10:05:39.592,-0.012,0.048,0.991
2026/01/08 10:05:39.611,-0.015,0.046,0.994
2026/01/08 10:05:39.631,-0.016,0.047,0.993
2026/01/08 10:05:39.650,-0.02,0.047,0.993
2026/01/08 10:05:39.670,-0.013,0.052,0.992
2026/01/08 10:05:39.689,-0.013,0.046,0.992
2026/01/08 10:05:39.708,-0.02,0.049,0.994
2026/01/08 10:05:39.728,-0.015,0.047,0.993
2026/01/08 10:05:39.747,-0.017,0.049,0.993
2026/01/08 10:05:39.766,-0.015,0.046,0.994
2026/01/08 10:05:39.786,-0.015,0.047,0.991
2026/01/08 10:05:39.805,-0.015,0.051,0.991
2026/01/08 10:05:39.824,-0.011,0.047,0.987
2026/01/08 10:05:39.844,-0.016,0.045,0.991
2026/01/08 10:05:39.863,-0.018,0.052,0.992
2026/01/08 10:05:39.882,-0.017,0.047,0.989
2026/01/08 10:05:39.902,-0.016,0.05,0.994
2026/01/08 10:05:39.921,-0.02,0.047,0.992
2026/01/08 10:05:39.940,-0.016,0.048,0.995
2026/01/08 10:05:39.960,-0.018,0.045,0.991
2026/01/08 10:05:39.979,-0.016,0.051,0.994
2026/01/08 10:05:39.998,-0.014,0.05,0.993
2026/01/08 10:05:40.018,-0.015,0.053,0.994
2026/01/08 10:05:40.037,-0.013,0.051,0.995
2026/01/08 10:05:40.056,-0.014,0.045,0.99
2026/01/08 10:05:40.076,-0.016,0.045,0.992
2026/01/08 10:05:40.095,-0.014,0.044,0.993
2026/01/08 10:05:40.114,-0.017,0.051,0.994
2026/01/08 10:05:40.134,-0.017,0.05,0.99
2026/01/08 10:05:40.153,-0.014,0.048,0.989
2026/01/08 10:05:40.172,-0.017,0.052,0.994
2026/01/08 10:05:40.192,-0.012,0.047,0.991
2026/01/08 10:05:40.211,-0.014,0.05,0.992
2026/01/08 10:05:40.230,-0.014,0.047,0.99
2026/01/08 10:05:40.250,-0.014,0.046,0.993
2026/01/08 10:05:40.269,-0.016,0.048,0.991
2026/01/08 10:05:40.288,-0.017,0.046,0.993
2026/01/08 10:05:40.308,-0.015,0.048,0.992
2026/01/08 10:05:40.327,-0.014,0.05,0.993
2026/01/08 10:05:40.346,-0.016,0.047,0.992
2026/01/08 10:05:40.366,-0.016,0.043,0.997
2026/01/08 10:05:40.385,-0.019,0.048,0.994
2026/01/08 10:05:40.405,-0.014,0.045,0.992
2026/01/08 10:05:40.424,-0.013,0.049,0.993
2026/01/08 10:05:40.443,-0.014,0.045,0.993
2026/01/08 10:05:40.463,-0.015,0.049,0.997
2026/01/08 10:05:40.482,-0.019,0.051,0.994
2026/01/08 10:05:40.501,-0.014,0.046,0.991
2026/01/08 10:05:40.521,-0.018,0.051,0.991
2026/01/08 10:05:40.540,-0.016,0.047,0.992
2026/01/08 10:05:40.559,-0.014,0.055,0.99
2026/01/08 10:05:40.579,-0.019,0.048,0.992
2026/01/08 10:05:40.598,-0.018,0.048,0.992
2026/01/08 10:05:40.617,-0.018,0.048,0.993
2026/01/08 10:05:40.637,-0.015,0.05,0.989
2026/01/08 10:05:40.656,-0.015,0.045,0.994
2026/01/08 10:05:40.675,-0.015,0.047,0.993
2026/01/08 10:05:40.695,-0.015,0.046,0.991
2026/01/08 10:05:40.714,-0.015,0.046,0.989
2026/01/08 10:05:40.733,-0.018,0.046,0.993
2026/01/08 10:05:40.753,-0.016,0.05,0.995
2026/01/08 10:05:40.772,-0.017,0.049,0.992
2026/01/08 10:05:40.791,-0.017,0.05,0.995
2026/01/08 10:05:40.811,-0.016,0.052,0.994
2026/01/08 10:05:40.830,-0.012,0.05,0.99
2026/01/08 10:05:40.849,-0.017,0.046,0.996
2026/01/08 10:05:40.869,-0.015,0.044,0.99
2026/01/08 10:05:40.888,-0.019,0.05,0.996
2026/01/08 10:05:40.907,-0.018,0.052,0.993
2026/01/08 10:05:40.927,-0.014,0.043,0.994
2026/01/08 10:05:40.946,-0.018,0.048,0.992
2026/01/08 10:05:40.965,-0.014,0.046,0.995
2026/01/08 10:05:40.985,-0.012,0.047,0.994
2026/01/08 10:05:41.004,-0.015,0.049,0.99
2026/01/08 10:05:41.023,-0.014,0.047,0.992
2026/01/08 10:05:41.043,-0.019,0.05,0.993
2026/01/08 10:05:41.062,-0.02,0.051,0.992
2026/01/08 10:05:41.082,-0.013,0.047,0.992
2026/01/08 10:05:41.101,-0.014,0.048,0.995
2026/01/08 10:05:41.120,-0.015,0.047,0.991
2026/01/08 10:05:41.140,-0.015,0.05,0.991
2026/01/08 10:05:41.159,-0.015,0.047,0.993
2026/01/08 10:05:41.178,-0.019,0.049,0.994
2026/01/08 10:05:41.198,-0.016,0.047,0.991
2026/01/08 10:05:41.217,-0.017,0.045,0.994
2026/01/08 10:05:41.236,-0.016,0.048,0.99
2026/01/08 10:05:41.256,-0.018,0.05,0.991
2026/01/08 10:05:41.275,-0.013,0.049,0.992
2026/01/08 10:05:41.294,-0.017,0.047,0.992
2026/01/08 10:05:41.314,-0.018,0.05,0.992
2026/01/08 10:05:41.333,-0.014,0.044,0.992
2026/01/08 10:05:41.352,-0.013,0.051,0.991
2026/01/08 10:05:41.372,-0.021,0.05,0.994
2026/01/08 10:05:41.391,-0.015,0.048,0.997
2026/01/08 10:05:41.410,-0.013,0.049,0.993
2026/01/08 10:05:41.430,-0.018,0.046,0.993
2026/01/08 10:05:41.449,-0.016,0.048,0.99
2026/01/08 10:05:41.468,-0.015,0.047,0.993
2026/01/08 10:05:41.488,-0.017,0.049,0.993
2026/01/08 10:05:41.507,-0.013,0.049,0.992
2026/01/08 10:05:41.526,-0.012,0.05,0.992
2026/01/08 10:05:41.546,-0.013,0.054,0.991
2026/01/08 10:05:41.565,-0.015,0.05,0.992
2026/01/08 10:05:41.584,-0.016,0.045,0.994
2026/01/08 10:05:41.604,-0.015,0.051,0.993
2026/01/08 10:05:41.623,-0.019,0.05,0.996
2026/01/08 10:05:41.642,-0.014,0.048,0.99
2026/01/08 10:05:41.662,-0.015,0.05,0.994
2026/01/08 10:05:41.681,-0.016,0.046,0.993
2026/01/08 10:05:41.700,-0.013,0.051,0.992
2026/01/08 10:05:41.720,-0.018,0.051,0.995
2026/01/08 10:05:41.739,-0.02,0.05,0.993
2026/01/08 10:05:41.759,-0.016,0.046,0.992
2026/01/08 10:05:41.778,-0.017,0.051,0.997
2026/01/08 10:05:41.797,-0.014,0.05,0.993
2026/01/08 10:05:41.817,-0.016,0.049,0.992
2026/01/08 10:05:41.836,-0.016,0.047,0.992
2026/01/08 10:05:41.855,-0.017,0.045,0.992
2026/01/08 10:05:41.875,-0.016,0.047,0.993
2026/01/08 10:05:41.894,-0.016,0.047,0.99
2026/01/08 10:05:41.913,-0.019,0.049,0.994
2026/01/08 10:05:41.933,-0.017,0.05,0.993
2026/01/08 10:05:41.952,-0.016,0.047,0.991
2026/01/08 10:05:41.971,-0.018,0.045,0.992
2026/01/08 10:05:41.991,-0.013,0.047,0.99
2026/01/08 10:05:42.010,-0.02,0.049,0.99
2026/01/08 10:05:42.029,-0.016,0.049,0.991
2026/01/08 10:05:42.049,-0.015,0.051,0.994
2026/01/08 10:05:42.068,-0.016,0.049,0.992
2026/01/08 10:05:42.087,-0.013,0.047,0.992
2026/01/08 10:05:42.107,-0.017,0.049,0.992
2026/01/08 10:05:42.126,-0.014,0.05,0.993
2026/01/08 10:05:42.145,-0.014,0.05,0.991
2026/01/08 10:05:42.165,-0.014,0.048,0.994
2026/01/08 10:05:42.184,-0.015,0.046,0.991
2026/01/08 10:05:42.203,-0.018,0.05,0.991
2026/01/08 10:05:42.223,-0.014,0.049,0.99
2026/01/08 10:05:42.242,-0.017,0.051,0.993
2026/01/08 10:05:42.261,-0.013,0.046,0.991
2026/01/08 10:05:42.281,-0.015,0.052,0.996
2026/01/08 10:05:42.300,-0.017,0.051,0.991
2026/01/08 10:05:42.319,-0.015,0.051,0.991
2026/01/08 10:05:42.339,-0.015,0.047,0.995
2026/01/08 10:05:42.358,-0.017,0.045,0.992
2026/01/08 10:05:42.377,-0.015,0.051,0.993
2026/01/08 10:05:42.397,-0.017,0.049,0.994
2026/01/08 10:05:42.416,-0.014,0.05,0.99
2026/01/08 10:05:42.436,-0.015,0.048,0.992
2026/01/08 10:05:42.455,-0.017,0.048,0.991
2026/01/08 10:05:42.474,-0.014,0.049,0.991
2026/01/08 10:05:42.494,-0.02,0.052,0.995
2026/01/08 10:05:42.513,-0.017,0.045,0.993
2026/01/08 10:05:42.532,-0.014,0.05,0.994
2026/01/08 10:05:42.552,-0.018,0.049,0.993
2026/01/08 10:05:42.571,-0.019,0.047,0.992
2026/01/08 10:05:42.590,-0.015,0.047,0.992
2026/01/08 10:05:42.610,-0.016,0.047,0.994
2026/01/08 10:05:42.629,-0.014,0.051,0.987
2026/01/08 10:05:42.648,-0.017,0.051,1.008
2026/01/08 10:05:42.668,-0.011,0.055,0.941
2026/01/08 10:05:42.687,-0.028,0.045,0.986
2026/01/08 10:05:42.706,-0.022,0.044,0.99
2026/01/08 10:05:42.726,-0.013,0.04,1.002
2026/01/08 10:05:42.745,-0.018,0.044,0.999
2026/01/08 10:05:42.764,-0.019,0.046,1.0
2026/01/08 10:05:42.784,-0.016,0.048,0.991
2026/01/08 10:05:42.803,-0.019,0.047,0.997
2026/01/08 10:05:42.822,-0.016,0.045,0.994
2026/01/08 10:05:42.842,-0.017,0.046,0.993
2026/01/08 10:05:42.861,-0.013,0.049,0.994
2026/01/08 10:05:42.880,-0.015,0.049,0.993
2026/01/08 10:05:42.900,-0.016,0.045,0.988
2026/01/08 10:05:42.919,-0.018,0.051,0.992
2026/01/08 10:05:42.938,-0.014,0.048,0.995
2026/01/08 10:05:42.958,-0.016,0.051,0.992
2026/01/08 10:05:42.977,-0.013,0.05,0.991
2026/01/08 10:05:42.996,-0.019,0.039,1.001
2026/01/08 10:05:43.016,-0.017,0.045,0.99
2026/01/08 10:05:43.035,-0.009,0.051,0.986
2026/01/08 10:05:43.054,-0.018,0.05,0.994
2026/01/08 10:05:43.074,-0.018,0.048,0.994
2026/01/08 10:05:43.093,-0.015,0.05,0.993
2026/01/08 10:05:43.113,-0.016,0.049,0.991
2026/01/08 10:05:43.132,-0.014,0.054,0.994
2026/01/08 10:05:43.151,-0.018,0.045,0.994
2026/01/08 10:05:43.171,-0.018,0.051,0.994
2026/01/08 10:05:43.190,-0.018,0.047,0.994
2026/01/08 10:05:43.209,-0.016,0.05,0.996
2026/01/08 10:05:43.229,-0.014,0.049,0.99
2026/01/08 10:05:43.248,-0.017,0.051,0.993
2026/01/08 10:05:43.267,-0.015,0.047,0.992
2026/01/08 10:05:43.287,-0.015,0.053,0.992
2026/01/08 10:05:43.306,-0.014,0.049,0.995
2026/01/08 10:05:43.325,-0.017,0.047,0.994
2026/01/08 10:05:43.345,-0.018,0.047,0.99
2026/01/08 10:05:43.364,-0.014,0.047,0.991
2026/01/08 10:05:43.383,-0.015,0.045,0.993
2026/01/08 10:05:43.403,-0.013,0.047,0.991
2026/01/08 10:05:43.422,-0.015,0.048,0.994
2026/01/08 10:05:43.441,-0.018,0.048,0.994
2026/01/08 10:05:43.461,-0.016,0.052,0.992
2026/01/08 10:05:43.480,-0.02,0.048,0.992
2026/01/08 10:05:43.499,-0.017,0.051,0.991
2026/01/08 10:05:43.519,-0.017,0.051,0.992
2026/01/08 10:05:43.538,-0.016,0.047,0.992
2026/01/08 10:05:43.557,-0.019,0.049,0.994
2026/01/08 10:05:43.577,-0.018,0.048,0.994
2026/01/08 10:05:43.596,-0.014,0.05,0.987
2026/01/08 10:05:43.615,-0.017,0.045,0.991
2026/01/08 10:05:43.635,-0.018,0.049,0.991
2026/01/08 10:05:43.654,-0.015,0.046,0.993
2026/01/08 10:05:43.673,-0.017,0.048,0.995
2026/01/08 10:05:43.693,-0.015,0.046,0.995
2026/01/08 10:05:43.712,-0.017,0.05,0.994
2026/01/08 10:05:43.731,-0.015,0.048,0.987
2026/01/08 10:05:43.751,-0.017,0.049,0.988
2026/01/08 10:05:43.770,-0.015,0.046,0.994
2026/01/08 10:05:43.789,-0.014,0.046,0.994
2026/01/08 10:05:43.809,-0.016,0.047,0.994
2026/01/08 10:05:43.828,-0.012,0.044,0.991
2026/01/08 10:05:43.848,-0.018,0.049,0.997
2026/01/08 10:05:43.867,-0.017,0.05,0.99
2026/01/08 10:05:43.886,-0.016,0.051,0.996
2026/01/08 10:05:43.906,-0.015,0.047,0.991
2026/01/08 10:05:43.925,-0.016,0.046,0.99
2026/01/08 10:05:43.944,-0.013,0.05,0.994
2026/01/08 10:05:43.964,-0.018,0.047,0.993
2026/01/08 10:05:43.983,-0.018,0.049,0.991
2026/01/08 10:05:44.002,-0.018,0.048,0.993
2026/01/08 10:05:44.022,-0.018,0.048,0.991
2026/01/08 10:05:44.041,-0.015,0.048,0.99
2026/01/08 10:05:44.060,-0.019,0.049,0.992
2026/01/08 10:05:44.080,-0.017,0.051,0.992
2026/01/08 10:05:44.099,-0.014,0.055,0.995
2026/01/08 10:05:44.118,-0.017,0.049,0.992
2026/01/08 10:05:44.138,-0.016,0.047,0.993
2026/01/08 10:05:44.157,-0.014,0.048,0.99
2026/01/08 10:05:44.176,-0.014,0.049,0.995
2026/01/08 10:05:44.196,-0.013,0.054,0.993
2026/01/08 10:05:44.215,-0.014,0.046,0.991
2026/01/08 10:05:44.234,-0.014,0.048,0.993
2026/01/08 10:05:44.254,-0.018,0.052,0.993
2026/01/08 10:05:44.273,-0.023,0.051,0.994
2026/01/08 10:05:44.292,-0.014,0.049,0.989
2026/01/08 10:05:44.312,-0.015,0.048,0.991
2026/01/08 10:05:44.331,-0.014,0.05,0.992
2026/01/08 10:05:44.350,-0.015,0.05,0.988
2026/01/08 10:05:44.370,-0.016,0.055,0.991
2026/01/08 10:05:44.389,-0.014,0.046,0.995
2026/01/08 10:05:44.408,-0.021,0.047,0.996
2026/01/08 10:05:44.428,-0.014,0.043,0.994
2026/01/08 10:05:44.447,-0.017,0.044,0.992
2026/01/08 10:05:44.466,-0.016,0.049,0.996
2026/01/08 10:05:44.486,-0.017,0.049,0.994
2026/01/08 10:05:44.505,-0.016,0.051,0.992
2026/01/08 10:05:44.524,-0.013,0.047,0.992
2026/01/08 10:05:44.544,-0.014,0.051,0.993
2026/01/08 10:05:44.563,-0.015,0.049,0.991
2026/01/08 10:05:44.582,-0.019,0.048,0.997
2026/01/08 10:05:44.602,-0.015,0.047,0.993
2026/01/08 10:05:44.621,-0.017,0.05,0.995
2026/01/08 10:05:44.641,-0.014,0.046,0.995
2026/01/08 10:05:44.660,-0.018,0.048,0.989
2026/01/08 10:05:44.679,-0.015,0.044,0.992
2026/01/08 10:05:44.699,-0.017,0.049,0.992
2026/01/08 10:05:44.718,-0.014,0.051,0.992
2026/01/08 10:05:44.737,-0.015,0.052,0.995
2026/01/08 10:05:44.757,-0.017,0.05,0.992
2026/01/08 10:05:44.776,-0.013,0.047,0.991
2026/01/08 10:05:44.795,-0.017,0.051,0.995
2026/01/08 10:05:44.815,-0.015,0.045,0.995
2026/01/08 10:05:44.834,-0.018,0.047,0.989
2026/01/08 10:05:44.853,-0.016,0.047,0.991
2026/01/08 10:05:44.873,-0.015,0.049,0.99
2026/01/08 10:05:44.892,-0.015,0.048,0.996
2026/01/08 10:05:44.911,-0.016,0.048,0.991
2026/01/08 10:05:44.931,-0.016,0.046,0.992
2026/01/08 10:05:44.950,-0.018,0.047,0.992
2026/01/08 10:05:44.969,-0.015,0.047,0.992
2026/01/08 10:05:44.989,-0.019,0.048,0.992
2026/01/08 10:05:45.008,-0.017,0.049,0.993
2026/01/08 10:05:45.027,-0.019,0.047,0.992
2026/01/08 10:05:45.047,-0.016,0.048,0.993
2026/01/08 10:05:45.066,-0.015,0.049,0.993
2026/01/08 10:05:45.085,-0.013,0.047,0.99
2026/01/08 10:05:45.105,-0.013,0.05,0.993
2026/01/08 10:05:45.124,-0.017,0.05,0.989
2026/01/08 10:05:45.143,-0.014,0.047,0.994
2026/01/08 10:05:45.163,-0.012,0.049,0.992
2026/01/08 10:05:45.182,-0.014,0.048,0.991
2026/01/08 10:05:45.201,-0.017,0.045,0.995
2026/01/08 10:05:45.221,-0.013,0.051,0.994
2026/01/08 10:05:45.240,-0.015,0.047,0.991
2026/01/08 10:05:45.259,-0.016,0.052,0.994
2026/01/08 10:05:45.279,-0.018,0.048,0.993
2026/01/08 10:05:45.298,-0.02,0.05,0.993
2026/01/08 10:05:45.317,-0.016,0.049,0.996
2026/01/08 10:05:45.337,-0.016,0.048,0.994
2026/01/08 10:05:45.356,-0.015,0.049,0.989
2026/01/08 10:05:45.376,-0.017,0.042,0.988
2026/01/08 10:05:45.395,-0.015,0.048,0.992
2026/01/08 10:05:45.414,-0.011,0.049,0.992
2026/01/08 10:05:45.434,-0.016,0.047,0.989
2026/01/08 10:05:45.453,-0.016,0.049,0.993
2026/01/08 10:05:45.472,-0.017,0.049,0.993
2026/01/08 10:05:45.492,-0.015,0.051,0.993
2026/01/08 10:05:45.511,-0.019,0.051,0.992
2026/01/08 10:05:45.530,-0.014,0.047,0.992
2026/01/08 10:05:45.550,-0.02,0.045,0.993
2026/01/08 10:05:45.569,-0.015,0.048,0.994
2026/01/08 10:05:45.588,-0.018,0.047,0.989
2026/01/08 10:05:45.608,-0.02,0.05,0.993
2026/01/08 10:05:45.627,-0.018,0.047,0.992
2026/01/08 10:05:45.646,-0.016,0.05,0.992
2026/01/08 10:05:45.666,-0.014,0.05,0.992
2026/01/08 10:05:45.685,-0.014,0.051,0.994
2026/01/08 10:05:45.704,-0.017,0.049,0.996
2026/01/08 10:05:45.724,-0.015,0.042,1.0
2026/01/08 10:05:45.743,-0.02,0.045,0.996
2026/01/08 10:05:45.762,-0.02,0.046,0.995
2026/01/08 10:05:45.782,-0.017,0.049,0.993
2026/01/08 10:05:45.801,-0.018,0.047,0.984
2026/01/08 10:05:45.820,-0.018,0.046,0.998
2026/01/08 10:05:45.840,-0.016,0.048,0.984
2026/01/08 10:05:45.859,-0.019,0.044,0.994
2026/01/08 10:05:45.878,-0.018,0.049,0.999
2026/01/08 10:05:45.898,-0.012,0.055,0.984
2026/01/08 10:05:45.917,-0.014,0.051,0.991
2026/01/08 10:05:45.936,-0.018,0.043,0.995
2026/01/08 10:05:45.956,-0.01,0.045,0.995
2026/01/08 10:05:45.975,-0.017,0.05,0.988
2026/01/08 10:05:45.994,-0.014,0.047,0.986
2026/01/08 10:05:46.014,-0.017,0.049,0.989
2026/01/08 10:05:46.033,-0.017,0.047,0.991
2026/01/08 10:05:46.052,-0.014,0.046,0.991
2026/01/08 10:05:46.072,-0.015,0.05,0.996
2026/01/08 10:05:46.091,-0.016,0.048,0.993
2026/01/08 10:05:46.111,-0.017,0.045,0.993
2026/01/08 10:05:46.130,-0.015,0.051,0.991
2026/01/08 10:05:46.149,-0.016,0.052,0.992
2026/01/08 10:05:46.169,-0.017,0.048,0.992
2026/01/08 10:05:46.188,-0.017,0.046,0.99
2026/01/08 10:05:46.207,-0.018,0.046,0.992
2026/01/08 10:05:46.227,-0.014,0.049,0.994
2026/01/08 10:05:46.246,-0.016,0.044,0.992
2026/01/08 10:05:46.265,-0.019,0.043,0.991
2026/01/08 10:05:46.285,-0.012,0.05,0.991
2026/01/08 10:05:46.304,-0.018,0.047,0.991
2026/01/08 10:05:46.323,-0.018,0.047,0.993
2026/01/08 10:05:46.343,-0.016,0.048,0.992
2026/01/08 10:05:46.362,-0.018,0.051,0.988
2026/01/08 10:05:46.381,-0.014,0.045,0.992
2026/01/08 10:05:46.401,-0.015,0.046,0.993
2026/01/08 10:05:46.420,-0.017,0.045,0.994
2026/01/08 10:05:46.439,-0.011,0.049,0.995
2026/01/08 10:05:46.459,-0.018,0.049,0.99
2026/01/08 10:05:46.478,-0.019,0.045,0.993
2026/01/08 10:05:46.497,-0.014,0.051,0.989
2026/01/08 10:05:46.517,-0.012,0.047,0.988
2026/01/08 10:05:46.536,-0.017,0.048,0.992
2026/01/08 10:05:46.555,-0.018,0.047,0.992
2026/01/08 10:05:46.575,-0.015,0.051,0.995
2026/01/08 10:05:46.594,-0.013,0.049,0.985
2026/01/08 10:05:46.613,-0.015,0.047,0.987
2026/01/08 10:05:46.633,-0.013,0.045,0.993
2026/01/08 10:05:46.652,-0.016,0.049,0.997
2026/01/08 10:05:46.671,-0.018,0.047,0.988
2026/01/08 10:05:46.691,-0.017,0.046,0.996
2026/01/08 10:05:46.710,-0.016,0.047,0.989
2026/01/08 10:05:46.730,-0.017,0.045,0.994
2026/01/08 10:05:46.749,-0.013,0.051,0.976
2026/01/08 10:05:46.768,-0.017,0.046,0.978
2026/01/08 10:05:46.788,-0.015,0.046,0.963
2026/01/08 10:05:46.807,-0.016,0.05,0.971
2026/01/08 10:05:46.826,-0.038,0.01,0.885
2026/01/08 10:05:46.846,-0.006,0.016,1.047
2026/01/08 10:05:46.865,-0.001,0.009,1.029
2026/01/08 10:05:46.884,-0.014,0.024,1.016
2026/01/08 10:05:46.904,-0.043,0.022,0.97
2026/01/08 10:05:46.923,-0.031,0.034,0.997
2026/01/08 10:05:46.942,-0.004,0.044,0.999
2026/01/08 10:05:46.962,0.01,0.056,1.006
2026/01/08 10:05:46.981,-0.006,0.051,0.99
2026/01/08 10:05:47.000,-0.012,0.055,0.992
2026/01/08 10:05:47.020,-0.023,0.045,0.991
2026/01/08 10:05:47.039,-0.015,0.041,0.975
2026/01/08 10:05:47.058,-0.004,0.043,1.002
2026/01/08 10:05:47.078,-0.002,0.04,1.0
2026/01/08 10:05:47.097,-0.003,0.047,0.99
2026/01/08 10:05:47.116,-0.009,0.045,0.99
2026/01/08 10:05:47.136,-0.013,0.054,0.994
2026/01/08 10:05:47.155,-0.016,0.057,0.993
2026/01/08 10:05:47.174,-0.012,0.046,1.0
2026/01/08 10:05:47.194,0.0,0.046,0.998
2026/01/08 10:05:47.213,0.001,0.042,0.992
2026/01/08 10:05:47.232,-0.011,0.045,0.988
2026/01/08 10:05:47.252,-0.018,0.046,0.992
2026/01/08 10:05:47.271,-0.014,0.054,1.0
2026/01/08 10:05:47.290,-0.01,0.057,0.998
2026/01/08 10:05:47.310,-0.006,0.054,0.991
2026/01/08 10:05:47.329,-0.005,0.048,0.992
2026/01/08 10:05:47.348,-0.007,0.042,0.994
2026/01/08 10:05:47.368,0.024,0.053,0.99
2026/01/08 10:05:47.387,-0.042,0.034,0.996
2026/01/08 10:05:47.407,-0.002,0.045,0.989
2026/01/08 10:05:47.426,0.001,0.047,0.994
2026/01/08 10:05:47.445,-0.005,0.052,0.999
2026/01/08 10:05:47.465,-0.014,0.05,0.991
2026/01/08 10:05:47.484,-0.013,0.051,0.985
2026/01/08 10:05:47.503,-0.015,0.048,0.984
2026/01/08 10:05:47.523,-0.011,0.046,0.99
2026/01/08 10:05:47.542,-0.004,0.047,1.0
2026/01/08 10:05:47.561,0.002,0.045,1.003
2026/01/08 10:05:47.581,-0.003,0.043,0.997
2026/01/08 10:05:47.600,-0.013,0.044,0.992
2026/01/08 10:05:47.619,-0.014,0.052,0.993
2026/01/08 10:05:47.639,-0.009,0.048,0.992
2026/01/08 10:05:47.658,-0.008,0.05,0.992
2026/01/08 10:05:47.677,-0.005,0.044,0.99
2026/01/08 10:05:47.697,-0.009,0.046,0.992
2026/01/08 10:05:47.716,-0.009,0.05,0.991
2026/01/08 10:05:47.735,-0.009,0.047,0.992
2026/01/08 10:05:47.755,-0.009,0.054,0.991
2026/01/08 10:05:47.774,-0.005,0.052,0.995
2026/01/08 10:05:47.793,-0.004,0.047,0.984
2026/01/08 10:05:47.813,-0.01,0.047,0.995
2026/01/08 10:05:47.832,-0.012,0.048,0.992
2026/01/08 10:05:47.851,-0.01,0.049,0.992
2026/01/08 10:05:47.871,-0.006,0.045,0.991
2026/01/08 10:05:47.890,-0.009,0.046,0.99
2026/01/08 10:05:47.909,-0.01,0.043,0.992
2026/01/08 10:05:47.929,-0.009,0.047,0.996
2026/01/08 10:05:47.948,-0.007,0.05,0.996
2026/01/08 10:05:47.967,-0.011,0.051,0.993
2026/01/08 10:05:47.987,-0.011,0.046,0.987
2026/01/08 10:05:48.006,-0.008,0.043,0.99
2026/01/08 10:05:48.025,-0.003,0.049,0.996
2026/01/08 10:05:48.045,-0.006,0.048,0.986
2026/01/08 10:05:48.064,-0.009,0.045,0.993
2026/01/08 10:05:48.084,-0.012,0.049,0.993
2026/01/08 10:05:48.103,-0.009,0.047,0.995
2026/01/08 10:05:48.122,-0.004,0.047,0.986
2026/01/08 10:05:48.142,-0.007,0.05,0.997
2026/01/08 10:05:48.161,-0.014,0.045,0.998
2026/01/08 10:05:48.180,-0.01,0.047,0.994
2026/01/08 10:05:48.200,-0.005,0.046,0.996
2026/01/08 10:05:48.219,-0.005,0.048,0.994
2026/01/08 10:05:48.238,0.0,0.049,0.997
2026/01/08 10:05:48.258,-0.019,0.044,0.993
2026/01/08 10:05:48.277,-0.012,0.046,0.989
2026/01/08 10:05:48.296,-0.006,0.049,0.993
2026/01/08 10:05:48.316,0.0,0.05,0.996
2026/01/08 10:05:48.335,-0.003,0.046,0.992
2026/01/08 10:05:48.354,-0.015,0.043,0.99
2026/01/08 10:05:48.374,-0.016,0.049,0.987
2026/01/08 10:05:48.393,-0.009,0.046,0.995
2026/01/08 10:05:48.412,-0.003,0.052,0.996
2026/01/08 10:05:48.432,-0.003,0.049,0.995
