Timestamp,ACC X,ACC Y,ACC Z
2026/01/08 10:03:37.825,-0.018,0.005,1.02
2026/01/08 10:03:37.845,-0.018,0.005,1.015
2026/01/08 10:03:37.864,-0.014,0.004,1.013
2026/01/08 10:03:37.883,-0.016,0.0,1.015
2026/01/08 10:03:37.902,-0.016,0.003,1.015
2026/01/08 10:03:37.922,-0.015,0.001,1.016
2026/01/08 10:03:37.941,-0.014,0.007,1.018
2026/01/08 10:03:37.960,-0.018,0.003,1.019
2026/01/08 10:03:37.979,-0.021,0.0,1.018
2026/01/08 10:03:37.998,-0.017,0.006,1.017
2026/01/08 10:03:38.018,-0.019,0.001,1.013
2026/01/08 10:03:38.037,-0.015,0.006,1.015
2026/01/08 10:03:38.056,-0.019,0.001,1.017
2026/01/08 10:03:38.075,-0.016,0.006,1.015
2026/01/08 10:03:38.095,-0.017,0.007,1.018
2026/01/08 10:03:38.114,-0.02,0.002,1.018
2026/01/08 10:03:38.133,-0.018,0.002,1.015
2026/01/08 10:03:38.152,-0.019,0.004,1.016
2026/01/08 10:03:38.172,-0.017,0.004,1.018
2026/01/08 10:03:38.191,-0.016,0.006,1.015
2026/01/08 10:03:38.210,-0.017,0.0,1.013
2026/01/08 10:03:38.229,-0.018,0.004,1.017
2026/01/08 10:03:38.248,-0.012,0.003,1.016
2026/01/08 10:03:38.268,-0.021,0.002,1.011
2026/01/08 10:03:38.287,-0.016,0.001,1.015
2026/01/08 10:03:38.306,-0.02,0.006,1.016
2026/01/08 10:03:38.325,-0.019,0.003,1.015
2026/01/08 10:03:38.345,-0.019,0.002,1.016
2026/01/08 10:03:38.364,-0.015,0.004,1.018
2026/01/08 10:03:38.383,-0.018,0.005,1.017
2026/01/08 10:03:38.402,-0.017,0.002,1.016
2026/01/08 10:03:38.422,-0.018,0.005,1.017
2026/01/08 10:03:38.441,-0.02,0.005,1.015
2026/01/08 10:03:38.460,-0.017,0.002,1.017
2026/01/08 10:03:38.479,-0.018,0.002,1.017
2026/01/08 10:03:38.498,-0.015,0.004,1.021
2026/01/08 10:03:38.518,-0.021,0.003,1.018
2026/01/08 10:03:38.537,-0.016,0.004,1.012
2026/01/08 10:03:38.556,-0.016,0.003,1.016
2026/01/08 10:03:38.575,-0.018,0.003,1.021
2026/01/08 10:03:38.595,-0.016,0.004,1.015
2026/01/08 10:03:38.614,-0.022,0.005,1.018
2026/01/08 10:03:38.633,-0.021,0.002,1.017
2026/01/08 10:03:38.652,-0.016,0.003,1.019
2026/01/08 10:03:38.672,-0.017,0.005,1.016
2026/01/08 10:03:38.691,-0.017,0.005,1.017
2026/01/08 10:03:38.710,-0.018,0.002,1.017
2026/01/08 10:03:38.729,-0.017,0.007,1.017
2026/01/08 10:03:38.748,-0.015,0.003,1.015
2026/01/08 10:03:38.768,-0.017,0.004,1.017
2026/01/08 10:03:38.787,-0.015,0.003,1.019
2026/01/08 10:03:38.806,-0.022,0.004,1.015
2026/01/08 10:03:38.825,-0.019,0.001,1.016
2026/01/08 10:03:38.845,-0.018,0.008,1.019
2026/01/08 10:03:38.864,-0.018,0.002,1.012
2026/01/08 10:03:38.883,-0.015,0.001,1.018
2026/01/08 10:03:38.902,-0.019,0.004,1.011
2026/01/08 10:03:38.922,-0.021,0.004,1.016
2026/01/08 10:03:38.941,-0.017,0.005,1.016
2026/01/08 10:03:38.960,-0.015,0.004,1.013
2026/01/08 10:03:38.979,-0.015,0.004,1.018
2026/01/08 10:03:38.998,-0.019,0.006,1.017
2026/01/08 10:03:39.018,-0.019,0.002,1.021
2026/01/08 10:03:39.037,-0.021,0.006,1.019
2026/01/08 10:03:39.056,-0.015,0.002,1.014
2026/01/08 10:03:39.075,-0.016,0.006,1.016
2026/01/08 10:03:39.095,-0.016,0.003,1.019
2026/01/08 10:03:39.114,-0.015,0.003,1.018
2026/01/08 10:03:39.133,-0.015,0.005,1.015
2026/01/08 10:03:39.152,-0.019,0.001,1.014
2026/01/08 10:03:39.172,-0.017,0.004,1.015
2026/01/08 10:03:39.191,-0.016,0.006,1.019
2026/01/08 10:03:39.210,-0.019,0.001,1.016
2026/01/08 10:03:39.229,-0.018,0.001,1.019
2026/01/08 10:03:39.248,-0.016,0.001,1.02
2026/01/08 10:03:39.268,-0.016,0.004,1.017
2026/01/08 10:03:39.287,-0.017,0.001,1.018
2026/01/08 10:03:39.306,-0.018,0.003,1.019
2026/01/08 10:03:39.325,-0.014,0.005,1.02
2026/01/08 10:03:39.345,-0.019,0.002,1.015
2026/01/08 10:03:39.364,-0.015,0.004,1.015
2026/01/08 10:03:39.383,-0.015,0.002,1.014
2026/01/08 10:03:39.402,-0.021,0.003,1.017
2026/01/08 10:03:39.422,-0.019,0.0,1.019
2026/01/08 10:03:39.441,-0.014,0.003,1.018
2026/01/08 10:03:39.460,-0.018,0.001,1.017
2026/01/08 10:03:39.479,-0.018,0.006,1.013
2026/01/08 10:03:39.498,-0.017,0.002,1.018
2026/01/08 10:03:39.518,-0.019,0.004,1.018
2026/01/08 10:03:39.537,-0.02,0.001,1.016
2026/01/08 10:03:39.556,-0.015,0.008,1.018
2026/01/08 10:03:39.575,-0.017,0.004,1.018
2026/01/08 10:03:39.595,-0.017,0.005,1.017
2026/01/08 10:03:39.614,-0.019,0.003,1.015
2026/01/08 10:03:39.633,-0.02,0.007,1.017
2026/01/08 10:03:39.652,-0.015,0.003,1.017
2026/01/08 10:03:39.672,-0.017,0.001,1.022
2026/01/08 10:03:39.691,-0.016,0.002,1.014
2026/01/08 10:03:39.710,-0.02,0.006,1.017
2026/01/08 10:03:39.729,-0.016,0.002,1.015
2026/01/08 10:03:39.748,-0.018,0.007,1.015
2026/01/08 10:03:39.768,-0.018,0.003,1.014
2026/01/08 10:03:39.787,-0.018,0.005,1.019
2026/01/08 10:03:39.806,-0.017,0.008,1.012
2026/01/08 10:03:39.825,-0.017,0.002,1.016
2026/01/08 10:03:39.845,-0.014,0.001,1.018
2026/01/08 10:03:39.864,-0.017,0.001,1.02
2026/01/08 10:03:39.883,-0.013,0.005,1.016
2026/01/08 10:03:39.902,-0.018,0.004,1.018
2026/01/08 10:03:39.922,-0.017,0.006,1.013
2026/01/08 10:03:39.941,-0.017,0.0,1.015
2026/01/08 10:03:39.960,-0.015,0.004,1.015
2026/01/08 10:03:39.979,-0.019,0.001,1.017
2026/01/08 10:03:39.998,-0.018,0.005,1.017
2026/01/08 10:03:40.018,-0.017,0.002,1.017
2026/01/08 10:03:40.037,-0.019,0.0,1.019
2026/01/08 10:03:40.056,-0.016,0.005,1.017
2026/01/08 10:03:40.075,-0.014,0.003,1.016
2026/01/08 10:03:40.095,-0.018,0.006,1.02
2026/01/08 10:03:40.114,-0.016,0.006,1.015
2026/01/08 10:03:40.133,-0.014,0.005,1.014
2026/01/08 10:03:40.152,-0.019,0.004,1.015
2026/01/08 10:03:40.172,-0.016,0.003,1.018
2026/01/08 10:03:40.191,-0.016,0.004,1.014
2026/01/08 10:03:40.210,-0.017,0.003,1.016
2026/01/08 10:03:40.229,-0.019,0.003,1.015
2026/01/08 10:03:40.248,-0.016,0.004,1.013
2026/01/08 10:03:40.268,-0.017,0.005,1.021
2026/01/08 10:03:40.287,-0.016,0.003,1.017
2026/01/08 10:03:40.306,-0.016,0.003,1.019
2026/01/08 10:03:40.325,-0.019,0.006,1.019
2026/01/08 10:03:40.345,-0.017,0.003,1.018
2026/01/08 10:03:40.364,-0.016,0.004,1.019
2026/01/08 10:03:40.383,-0.016,0.002,1.015
2026/01/08 10:03:40.402,-0.017,0.007,1.02
2026/01/08 10:03:40.422,-0.015,0.002,1.017
2026/01/08 10:03:40.441,-0.016,0.001,1.019
2026/01/08 10:03:40.460,-0.02,0.0,1.016
2026/01/08 10:03:40.479,-0.019,0.001,1.014
2026/01/08 10:03:40.498,-0.018,0.004,1.015
2026/01/08 10:03:40.518,-0.018,0.002,1.015
2026/01/08 10:03:40.538,-0.019,0.003,1.019
2026/01/08 10:03:40.558,-0.017,0.008,1.019
2026/01/08 10:03:40.578,-0.016,0.001,1.019
2026/01/08 10:03:40.598,-0.016,0.009,1.018
2026/01/08 10:03:40.619,-0.017,0.003,1.018
2026/01/08 10:03:40.639,-0.015,0.006,1.016
2026/01/08 10:03:40.659,-0.019,0.005,1.017
2026/01/08 10:03:40.679,-0.017,0.004,1.014
2026/01/08 10:03:40.699,-0.016,0.004,1.016
2026/01/08 10:03:40.720,-0.014,0.002,1.021
2026/01/08 10:03:40.740,-0.015,0.005,1.019
2026/01/08 10:03:40.760,-0.015,0.004,1.014
2026/01/08 10:03:40.780,-0.016,0.005,1.016
2026/01/08 10:03:40.800,-0.018,0.005,1.013
2026/01/08 10:03:40.821,-0.018,0.0,1.018
2026/01/08 10:03:40.841,-0.019,0.004,1.016
2026/01/08 10:03:40.861,-0.016,0.002,1.018
2026/01/08 10:03:40.881,-0.012,0.005,1.021
2026/01/08 10:03:40.901,-0.017,0.005,1.017
2026/01/08 10:03:40.922,-0.015,0.004,1.016
2026/01/08 10:03:40.942,-0.017,0.0,1.018
2026/01/08 10:03:40.962,-0.019,0.001,1.017
2026/01/08 10:03:40.982,-0.016,0.008,1.016
2026/01/08 10:03:41.002,-0.017,0.004,1.014
2026/01/08 10:03:41.023,-0.02,0.003,1.018
2026/01/08 10:03:41.043,-0.018,0.002,1.014
2026/01/08 10:03:41.063,-0.014,0.002,1.018
2026/01/08 10:03:41.083,-0.017,0.001,1.017
2026/01/08 10:03:41.103,-0.02,0.007,1.017
2026/01/08 10:03:41.123,-0.017,0.007,1.018
2026/01/08 10:03:41.144,-0.016,0.002,1.02
2026/01/08 10:03:41.164,-0.018,0.004,1.016
2026/01/08 10:03:41.184,-0.015,0.005,1.016
2026/01/08 10:03:41.204,-0.016,0.004,1.016
2026/01/08 10:03:41.224,-0.016,0.0,1.016
2026/01/08 10:03:41.245,-0.015,0.003,1.014
2026/01/08 10:03:41.265,-0.017,0.005,1.017
2026/01/08 10:03:41.285,-0.015,0.005,1.014
2026/01/08 10:03:41.305,-0.015,-0.001,1.018
2026/01/08 10:03:41.325,-0.015,0.009,1.02
2026/01/08 10:03:41.346,-0.015,0.001,1.018
2026/01/08 10:03:41.366,-0.016,0.003,1.02
2026/01/08 10:03:41.386,-0.015,0.004,1.018
2026/01/08 10:03:41.406,-0.017,0.004,1.018
2026/01/08 10:03:41.426,-0.018,0.001,1.019
2026/01/08 10:03:41.447,-0.018,0.004,1.019
2026/01/08 10:03:41.467,-0.017,0.006,1.019
2026/01/08 10:03:41.487,-0.018,0.006,1.017
2026/01/08 10:03:41.507,-0.017,0.004,1.018
2026/01/08 10:03:41.527,-0.014,0.001,1.014
2026/01/08 10:03:41.548,-0.015,0.002,1.016
2026/01/08 10:03:41.568,-0.016,0.003,1.016
2026/01/08 10:03:41.588,-0.015,0.008,1.02
2026/01/08 10:03:41.608,-0.016,0.003,1.016
2026/01/08 10:03:41.628,-0.013,0.002,1.016
2026/01/08 10:03:41.648,-0.017,0.002,1.015
2026/01/08 10:03:41.669,-0.014,0.0,1.018
2026/01/08 10:03:41.689,-0.017,0.002,1.015
2026/01/08 10:03:41.709,-0.016,0.005,1.018
2026/01/08 10:03:41.729,-0.013,0.003,1.018
2026/01/08 10:03:41.749,-0.015,0.004,1.017
2026/01/08 10:03:41.770,-0.016,0.007,1.015
2026/01/08 10:03:41.790,-0.016,0.004,1.018
2026/01/08 10:03:41.810,-0.014,0.003,1.019
2026/01/08 10:03:41.830,-0.016,0.007,1.016
2026/01/08 10:03:41.850,-0.015,0.008,1.018
2026/01/08 10:03:41.871,-0.018,0.005,1.021
2026/01/08 10:03:41.891,-0.018,0.005,1.017
2026/01/08 10:03:41.911,-0.02,0.003,1.016
2026/01/08 10:03:41.931,-0.017,0.002,1.019
2026/01/08 10:03:41.951,-0.018,0.003,1.016
2026/01/08 10:03:41.972,-0.017,0.004,1.016
2026/01/08 10:03:41.992,-0.014,0.004,1.019
2026/01/08 10:03:42.012,-0.014,0.003,1.019
2026/01/08 10:03:42.032,-0.017,0.006,1.015
2026/01/08 10:03:42.052,-0.015,0.003,1.017
2026/01/08 10:03:42.073,-0.015,0.008,1.02
2026/01/08 10:03:42.093,-0.015,0.004,1.018
2026/01/08 10:03:42.113,-0.013,0.002,1.014
2026/01/08 10:03:42.133,-0.018,0.005,1.015
2026/01/08 10:03:42.153,-0.017,0.008,1.016
2026/01/08 10:03:42.173,-0.015,0.004,1.017
2026/01/08 10:03:42.194,-0.02,0.004,1.018
2026/01/08 10:03:42.214,-0.018,0.001,1.017
2026/01/08 10:03:42.234,-0.016,0.003,1.021
2026/01/08 10:03:42.254,-0.018,0.005,1.016
2026/01/08 10:03:42.274,-0.014,0.008,1.02
2026/01/08 10:03:42.295,-0.017,0.003,1.018
2026/01/08 10:03:42.315,-0.017,0.002,1.022
2026/01/08 10:03:42.335,-0.017,0.005,1.018
2026/01/08 10:03:42.355,-0.016,0.003,1.019
2026/01/08 10:03:42.375,-0.015,0.003,1.016
2026/01/08 10:03:42.396,-0.019,0.001,1.017
2026/01/08 10:03:42.416,-0.021,0.002,1.018
2026/01/08 10:03:42.436,-0.019,0.001,1.02
2026/01/08 10:03:42.456,-0.019,0.004,1.017
2026/01/08 10:03:42.476,-0.017,0.002,1.019
2026/01/08 10:03:42.497,-0.016,0.002,1.018
2026/01/08 10:03:42.517,-0.015,0.006,1.019
2026/01/08 10:03:42.537,-0.017,0.002,1.017
2026/01/08 10:03:42.557,-0.017,0.004,1.016
2026/01/08 10:03:42.577,-0.015,0.001,1.016
2026/01/08 10:03:42.597,-0.014,0.005,1.015
2026/01/08 10:03:42.618,-0.015,0.006,1.015
2026/01/08 10:03:42.638,-0.019,0.003,1.016
2026/01/08 10:03:42.658,-0.017,0.002,1.014
2026/01/08 10:03:42.678,-0.013,0.005,1.015
2026/01/08 10:03:42.698,-0.015,0.003,1.016
2026/01/08 10:03:42.719,-0.015,0.003,1.016
2026/01/08 10:03:42.739,-0.015,0.002,1.019
2026/01/08 10:03:42.759,-0.016,0.002,1.012
2026/01/08 10:03:42.779,-0.016,0.004,1.014
2026/01/08 10:03:42.799,-0.015,0.004,1.019
2026/01/08 10:03:42.820,-0.015,0.006,1.017
2026/01/08 10:03:42.840,-0.017,0.003,1.013
2026/01/08 10:03:42.860,-0.017,0.004,1.016
2026/01/08 10:03:42.880,-0.016,0.005,1.014
2026/01/08 10:03:42.900,-0.017,0.005,1.01
2026/01/08 10:03:42.921,-0.017,0.007,1.015
2026/01/08 10:03:42.941,-0.015,0.003,1.014
2026/01/08 10:03:42.961,-0.013,0.005,1.012
2026/01/08 10:03:42.981,-0.019,0.003,1.015
2026/01/08 10:03:43.001,-0.013,0.003,1.018
2026/01/08 10:03:43.022,-0.02,0.001,1.02
2026/01/08 10:03:43.042,-0.014,0.001,1.017
2026/01/08 10:03:43.062,-0.015,0.005,1.017
2026/01/08 10:03:43.082,-0.019,0.005,1.013
2026/01/08 10:03:43.102,-0.015,0.003,1.018
2026/01/08 10:03:43.122,-0.017,0.003,1.015
2026/01/08 10:03:43.143,-0.014,0.003,1.018
2026/01/08 10:03:43.163,-0.016,0.002,1.015
2026/01/08 10:03:43.183,-0.013,0.006,1.014
2026/01/08 10:03:43.203,-0.016,0.006,1.016
2026/01/08 10:03:43.223,-0.017,0.0,1.018
2026/01/08 10:03:43.244,-0.016,0.004,1.015
2026/01/08 10:03:43.264,-0.016,0.002,1.014
2026/01/08 10:03:43.284,-0.016,0.003,1.019
2026/01/08 10:03:43.304,-0.015,0.003,1.017
2026/01/08 10:03:43.324,-0.017,0.005,1.014
2026/01/08 10:03:43.345,-0.018,0.004,1.018
2026/01/08 10:03:43.365,-0.018,0.002,1.016
2026/01/08 10:03:43.385,-0.013,0.001,1.016
2026/01/08 10:03:43.405,-0.019,0.004,1.015
2026/01/08 10:03:43.425,-0.016,0.002,1.016
2026/01/08 10:03:43.446,-0.014,0.005,1.015
2026/01/08 10:03:43.466,-0.018,0.006,1.016
2026/01/08 10:03:43.486,-0.016,0.001,1.015
2026/01/08 10:03:43.506,-0.014,0.007,1.016
2026/01/08 10:03:43.526,-0.015,0.006,1.017
2026/01/08 10:03:43.547,-0.015,0.005,1.016
2026/01/08 10:03:43.567,-0.019,0.0,1.014
2026/01/08 10:03:43.587,-0.015,0.005,1.016
2026/01/08 10:03:43.607,-0.018,0.003,1.018
2026/01/08 10:03:43.627,-0.016,0.004,1.015
2026/01/08 10:03:43.648,-0.015,0.005,1.02
2026/01/08 10:03:43.668,-0.014,-0.001,1.018
2026/01/08 10:03:43.688,-0.018,0.005,1.02
2026/01/08 10:03:43.708,-0.012,0.001,1.016
2026/01/08 10:03:43.728,-0.017,0.001,1.015
2026/01/08 10:03:43.748,-0.016,0.004,1.014
2026/01/08 10:03:43.769,-0.018,0.003,1.016
2026/01/08 10:03:43.789,-0.015,0.003,1.018
2026/01/08 10:03:43.809,-0.015,0.003,1.014
2026/01/08 10:03:43.829,-0.017,0.004,1.016
2026/01/08 10:03:43.849,-0.018,0.002,1.015
2026/01/08 10:03:43.870,-0.016,0.002,1.015
2026/01/08 10:03:43.890,-0.018,0.0,1.018
2026/01/08 10:03:43.910,-0.016,0.001,1.015
2026/01/08 10:03:43.930,-0.019,0.006,1.017
2026/01/08 10:03:43.950,-0.019,0.003,1.012
2026/01/08 10:03:43.971,-0.017,0.006,1.014
2026/01/08 10:03:43.991,-0.014,0.005,1.018
2026/01/08 10:03:44.011,-0.018,0.006,1.018
2026/01/08 10:03:44.031,-0.018,0.007,1.021
2026/01/08 10:03:44.051,-0.018,0.003,1.016
2026/01/08 10:03:44.072,-0.013,0.004,1.015
2026/01/08 10:03:44.092,-0.016,0.005,1.014
2026/01/08 10:03:44.112,-0.019,0.002,1.017
2026/01/08 10:03:44.132,-0.015,0.003,1.014
2026/01/08 10:03:44.152,-0.018,0.003,1.014
2026/01/08 10:03:44.173,-0.015,0.003,1.016
2026/01/08 10:03:44.193,-0.019,0.002,1.015
2026/01/08 10:03:44.213,-0.017,0.005,1.017
2026/01/08 10:03:44.233,-0.015,0.005,1.016
2026/01/08 10:03:44.253,-0.02,0.008,1.015
2026/01/08 10:03:44.274,-0.016,0.006,1.013
2026/01/08 10:03:44.294,-0.016,0.004,1.014
2026/01/08 10:03:44.314,-0.016,0.003,1.015
2026/01/08 10:03:44.334,-0.018,0.007,1.017
2026/01/08 10:03:44.354,-0.016,0.003,1.018
2026/01/08 10:03:44.375,-0.015,0.007,1.015
2026/01/08 10:03:44.395,-0.016,-0.001,1.017
2026/01/08 10:03:44.415,-0.015,0.008,1.018
2026/01/08 10:03:44.435,-0.018,0.005,1.019
2026/01/08 10:03:44.455,-0.015,0.006,1.017
2026/01/08 10:03:44.475,-0.014,0.003,1.015
2026/01/08 10:03:44.496,-0.015,0.005,1.018
2026/01/08 10:03:44.516,-0.019,0.001,1.017
2026/01/08 10:03:44.536,-0.014,0.002,1.017
2026/01/08 10:03:44.556,-0.016,0.001,1.018
2026/01/08 10:03:44.576,-0.016,0.001,1.017
2026/01/08 10:03:44.597,-0.015,0.001,1.017
2026/01/08 10:03:44.617,-0.017,0.006,1.018
2026/01/08 10:03:44.637,-0.018,0.006,1.02
2026/01/08 10:03:44.657,-0.018,0.005,1.021
2026/01/08 10:03:44.677,-0.017,0.002,1.018
2026/01/08 10:03:44.698,-0.02,0.007,1.018
2026/01/08 10:03:44.718,-0.019,0.004,1.017
2026/01/08 10:03:44.738,-0.016,0.003,1.017
2026/01/08 10:03:44.758,-0.016,0.003,1.014
2026/01/08 10:03:44.778,-0.019,0.007,1.016
2026/01/08 10:03:44.799,-0.014,0.004,1.015
2026/01/08 10:03:44.819,-0.017,0.003,1.015
2026/01/08 10:03:44.839,-0.018,0.003,1.017
2026/01/08 10:03:44.859,-0.015,0.003,1.014
2026/01/08 10:03:44.879,-0.017,0.005,1.014
2026/01/08 10:03:44.900,-0.018,0.006,1.018
2026/01/08 10:03:44.920,-0.014,0.005,1.015
2026/01/08 10:03:44.940,-0.015,0.0,1.015
2026/01/08 10:03:44.960,-0.016,0.003,1.017
2026/01/08 10:03:44.980,-0.017,0.006,1.013
2026/01/08 10:03:45.001,-0.015,0.004,1.013
2026/01/08 10:03:45.021,-0.016,0.004,1.014
2026/01/08 10:03:45.041,-0.016,0.003,1.018
2026/01/08 10:03:45.061,-0.017,0.003,1.016
2026/01/08 10:03:45.081,-0.019,0.003,1.016
2026/01/08 10:03:45.102,-0.018,0.002,1.017
2026/01/08 10:03:45.122,-0.016,0.0,1.016
2026/01/08 10:03:45.142,-0.016,0.005,1.013
2026/01/08 10:03:45.162,-0.018,0.004,1.016
2026/01/08 10:03:45.182,-0.016,0.003,1.013
2026/01/08 10:03:45.202,-0.015,0.004,1.017
2026/01/08 10:03:45.223,-0.018,0.003,1.015
2026/01/08 10:03:45.243,-0.015,0.005,1.016
2026/01/08 10:03:45.263,-0.016,0.0,1.016
2026/01/08 10:03:45.283,-0.017,0.003,1.017
2026/01/08 10:03:45.303,-0.017,0.008,1.014
2026/01/08 10:03:45.324,-0.018,0.004,1.015
2026/01/08 10:03:45.344,-0.016,0.002,1.014
2026/01/08 10:03:45.364,-0.015,0.004,1.015
2026/01/08 10:03:45.384,-0.019,0.002,1.014
2026/01/08 10:03:45.404,-0.019,0.004,1.017
2026/01/08 10:03:45.425,-0.019,0.005,1.017
2026/01/08 10:03:45.445,-0.017,0.006,1.013
2026/01/08 10:03:45.465,-0.018,0.004,1.016
2026/01/08 10:03:45.485,-0.016,0.005,1.014
2026/01/08 10:03:45.505,-0.015,0.005,1.021
2026/01/08 10:03:45.526,-0.017,0.005,1.013
2026/01/08 10:03:45.546,-0.017,-0.001,1.017
2026/01/08 10:03:45.566,-0.017,0.002,1.015
2026/01/08 10:03:45.586,-0.015,0.003,1.015
2026/01/08 10:03:45.606,-0.019,0.005,1.016
2026/01/08 10:03:45.627,-0.015,0.007,1.018
2026/01/08 10:03:45.647,-0.014,0.002,1.014
2026/01/08 10:03:45.667,-0.019,0.005,1.02
2026/01/08 10:03:45.687,-0.015,0.006,1.015
2026/01/08 10:03:45.707,-0.015,0.007,1.017
2026/01/08 10:03:45.728,-0.017,0.002,1.017
2026/01/08 10:03:45.748,-0.014,0.002,1.018
2026/01/08 10:03:45.768,-0.015,0.005,1.016
2026/01/08 10:03:45.788,-0.019,0.009,1.018
2026/01/08 10:03:45.808,-0.013,0.001,1.015
2026/01/08 10:03:45.829,-0.017,0.004,1.015
2026/01/08 10:03:45.849,-0.019,0.002,1.015
2026/01/08 10:03:45.869,-0.018,0.0,1.015
2026/01/08 10:03:45.889,-0.014,0.0,1.019
2026/01/08 10:03:45.909,-0.013,0.006,1.018
2026/01/08 10:03:45.930,-0.015,0.005,1.017
2026/01/08 10:03:45.950,-0.016,0.006,1.017
2026/01/08 10:03:45.970,-0.015,-0.002,1.017
2026/01/08 10:03:45.990,-0.017,0.0,1.016
2026/01/08 10:03:46.010,-0.017,0.006,1.017
2026/01/08 10:03:46.030,-0.015,0.0,1.017
2026/01/08 10:03:46.051,-0.02,0.004,1.018
2026/01/08 10:03:46.071,-0.015,0.003,1.019
2026/01/08 10:03:46.091,-0.017,0.006,1.016
2026/01/08 10:03:46.111,-0.022,0.004,1.017
2026/01/08 10:03:46.131,-0.015,0.001,1.019
2026/01/08 10:03:46.152,-0.016,0.004,1.017
2026/01/08 10:03:46.172,-0.018,0.006,1.018
2026/01/08 10:03:46.192,-0.018,0.006,1.017
2026/01/08 10:03:46.212,-0.016,0.011,1.016
2026/01/08 10:03:46.232,-0.016,0.002,1.015
2026/01/08 10:03:46.253,-0.017,0.005,1.013
2026/01/08 10:03:46.273,-0.018,0.006,1.016
2026/01/08 10:03:46.293,-0.018,0.003,1.016
2026/01/08 10:03:46.313,-0.017,0.003,1.018
2026/01/08 10:03:46.333,-0.016,0.001,1.017
2026/01/08 10:03:46.354,-0.016,0.008,1.016
2026/01/08 10:03:46.374,-0.016,0.005,1.014
2026/01/08 10:03:46.394,-0.015,0.002,1.016
2026/01/08 10:03:46.414,-0.015,0.003,1.019
2026/01/08 10:03:46.434,-0.016,0.005,1.016
2026/01/08 10:03:46.455,-0.015,0.003,1.015
2026/01/08 10:03:46.475,-0.016,0.005,1.016
2026/01/08 10:03:46.495,-0.017,0.002,1.017
2026/01/08 10:03:46.515,-0.019,0.003,1.016
2026/01/08 10:03:46.535,-0.017,0.002,1.017
2026/01/08 10:03:46.556,-0.014,0.006,1.015
2026/01/08 10:03:46.576,-0.018,0.002,1.017
2026/01/08 10:03:46.596,-0.017,0.007,1.02
2026/01/08 10:03:46.616,-0.017,0.005,1.017
2026/01/08 10:03:46.636,-0.018,0.0,1.019
2026/01/08 10:03:46.657,-0.017,0.006,1.019
2026/01/08 10:03:46.677,-0.014,0.004,1.014
2026/01/08 10:03:46.697,-0.015,0.003,1.013
2026/01/08 10:03:46.717,-0.017,0.001,1.019
2026/01/08 10:03:46.737,-0.017,0.008,1.018
2026/01/08 10:03:46.757,-0.019,0.001,1.016
2026/01/08 10:03:46.778,-0.017,0.005,1.014
2026/01/08 10:03:46.798,-0.016,0.002,1.014
2026/01/08 10:03:46.818,-0.018,0.001,1.017
2026/01/08 10:03:46.838,-0.014,0.004,1.017
2026/01/08 10:03:46.858,-0.015,0.005,1.018
2026/01/08 10:03:46.879,-0.02,0.007,1.016
2026/01/08 10:03:46.899,-0.016,0.001,1.017
2026/01/08 10:03:46.919,-0.014,0.005,1.016
2026/01/08 10:03:46.939,-0.016,0.004,1.016
2026/01/08 10:03:46.959,-0.015,0.007,1.015
2026/01/08 10:03:46.980,-0.018,0.001,1.018
2026/01/08 10:03:47.000,-0.016,0.006,1.016
2026/01/08 10:03:47.020,-0.018,0.006,1.019
2026/01/08 10:03:47.040,-0.018,0.004,1.018
2026/01/08 10:03:47.060,-0.014,0.004,1.019
2026/01/08 10:03:47.081,-0.018,0.004,1.017
2026/01/08 10:03:47.101,-0.018,0.004,1.018
2026/01/08 10:03:47.121,-0.017,0.004,1.013
2026/01/08 10:03:47.141,-0.018,0.005,1.014
2026/01/08 10:03:47.161,-0.015,0.005,1.017
2026/01/08 10:03:47.182,-0.018,0.0,1.016
2026/01/08 10:03:47.202,-0.014,0.003,1.014
2026/01/08 10:03:47.222,-0.015,0.005,1.017
2026/01/08 10:03:47.242,-0.018,0.003,1.021
2026/01/08 10:03:47.262,-0.015,0.008,1.017
2026/01/08 10:03:47.283,-0.015,0.003,1.019
2026/01/08 10:03:47.303,-0.017,0.007,1.014
2026/01/08 10:03:47.323,-0.018,0.002,1.018
2026/01/08 10:03:47.343,-0.018,0.006,1.015
2026/01/08 10:03:47.363,-0.015,0.001,1.018
2026/01/08 10:03:47.383,-0.02,0.005,1.013
2026/01/08 10:03:47.404,-0.017,0.004,1.017
2026/01/08 10:03:47.424,-0.015,0.003,1.012
2026/01/08 10:03:47.444,-0.016,0.004,1.02
2026/01/08 10:03:47.464,-0.015,0.007,1.014
2026/01/08 10:03:47.484,-0.017,0.005,1.017
2026/01/08 10:03:47.505,-0.018,0.003,1.016
2026/01/08 10:03:47.525,-0.015,0.004,1.01
2026/01/08 10:03:47.545,-0.02,0.001,1.015
2026/01/08 10:03:47.565,-0.016,0.006,1.014
2026/01/08 10:03:47.585,-0.016,0.004,1.015
2026/01/08 10:03:47.606,-0.018,0.006,1.019
2026/01/08 10:03:47.626,-0.017,0.004,1.014
2026/01/08 10:03:47.646,-0.018,0.005,1.018
2026/01/08 10:03:47.666,-0.018,0.004,1.019
2026/01/08 10:03:47.686,-0.015,0.003,1.016
2026/01/08 10:03:47.707,-0.015,0.003,1.016
2026/01/08 10:03:47.727,-0.015,0.006,1.017
2026/01/08 10:03:47.747,-0.015,0.005,1.012
2026/01/08 10:03:47.767,-0.019,0.004,1.017
2026/01/08 10:03:47.787,-0.016,0.001,1.016
2026/01/08 10:03:47.808,-0.015,0.007,1.017
2026/01/08 10:03:47.828,-0.013,0.001,1.019
2026/01/08 10:03:47.848,-0.021,0.006,1.015
2026/01/08 10:03:47.868,-0.019,0.007,1.014
2026/01/08 10:03:47.888,-0.019,0.003,1.014
2026/01/08 10:03:47.909,-0.017,0.004,1.015
2026/01/08 10:03:47.929,-0.014,0.005,1.023
2026/01/08 10:03:47.949,-0.017,0.004,1.013
2026/01/08 10:03:47.969,-0.016,0.006,1.018
2026/01/08 10:03:47.989,-0.013,0.003,1.014
2026/01/08 10:03:48.010,-0.016,0.004,1.013
2026/01/08 10:03:48.030,-0.018,0.002,1.015
2026/01/08 10:03:48.050,-0.017,0.005,1.013
2026/01/08 10:03:48.070,-0.018,0.005,1.018
2026/01/08 10:03:48.090,-0.018,0.004,1.017
2026/01/08 10:03:48.110,-0.016,0.005,1.014
2026/01/08 10:03:48.131,-0.02,0.002,1.013
2026/01/08 10:03:48.151,-0.015,0.005,1.016
2026/01/08 10:03:48.171,-0.022,0.005,1.019
2026/01/08 10:03:48.191,-0.015,0.007,1.018
2026/01/08 10:03:48.211,-0.019,0.004,1.015
2026/01/08 10:03:48.232,-0.016,0.002,1.014
2026/01/08 10:03:48.252,-0.019,0.004,1.017
2026/01/08 10:03:48.272,-0.015,0.002,1.013
2026/01/08 10:03:48.292,-0.018,0.003,1.018
2026/01/08 10:03:48.312,-0.016,0.004,1.016
2026/01/08 10:03:48.333,-0.017,0.005,1.015
2026/01/08 10:03:48.353,-0.016,0.003,1.016
2026/01/08 10:03:48.373,-0.01,0.004,1.013
2026/01/08 10:03:48.393,-0.016,0.004,1.015
2026/01/08 10:03:48.413,-0.016,0.004,1.017
2026/01/08 10:03:48.434,-0.02,0.002,1.016
2026/01/08 10:03:48.454,-0.018,0.003,1.016
2026/01/08 10:03:48.474,-0.015,0.003,1.016
2026/01/08 10:03:48.494,-0.016,0.003,1.019
2026/01/08 10:03:48.514,-0.017,0.004,1.014
2026/01/08 10:03:48.535,-0.014,0.005,1.017
2026/01/08 10:03:48.555,-0.019,0.004,1.018
2026/01/08 10:03:48.575,-0.015,0.003,1.017
2026/01/08 10:03:48.595,-0.018,0.006,1.014
2026/01/08 10:03:48.615,-0.02,0.003,1.015
2026/01/08 10:03:48.636,-0.016,0.008,1.019
2026/01/08 10:03:48.656,-0.011,0.006,1.017
2026/01/08 10:03:48.676,-0.016,0.002,1.012
2026/01/08 10:03:48.696,-0.016,0.003,1.017
2026/01/08 10:03:48.716,-0.018,0.006,1.018
2026/01/08 10:03:48.737,-0.016,0.006,1.013
2026/01/08 10:03:48.757,-0.018,0.001,1.011
2026/01/08 10:03:48.777,-0.016,0.003,1.019
2026/01/08 10:03:48.797,-0.016,0.005,1.013
2026/01/08 10:03:48.817,-0.014,0.004,1.018
2026/01/08 10:03:48.837,-0.015,0.007,1.016
2026/01/08 10:03:48.858,-0.018,-0.002,1.015
2026/01/08 10:03:48.878,-0.016,0.002,1.015
2026/01/08 10:03:48.898,-0.019,0.007,1.016
2026/01/08 10:03:48.918,-0.018,0.002,1.015
2026/01/08 10:03:48.938,-0.017,0.006,1.012
2026/01/08 10:03:48.959,-0.018,0.005,1.015
2026/01/08 10:03:48.979,-0.018,0.006,1.017
2026/01/08 10:03:48.999,-0.016,0.005,1.018
2026/01/08 10:03:49.019,-0.015,0.005,1.016
2026/01/08 10:03:49.039,-0.015,0.002,1.012
2026/01/08 10:03:49.060,-0.02,0.004,1.02
2026/01/08 10:03:49.080,-0.015,0.003,1.018
2026/01/08 10:03:49.100,-0.014,0.0,1.016
2026/01/08 10:03:49.120,-0.02,0.006,1.015
2026/01/08 10:03:49.140,-0.013,-0.001,1.017
2026/01/08 10:03:49.161,-0.012,0.007,1.019
2026/01/08 10:03:49.181,-0.017,0.001,1.015
2026/01/08 10:03:49.201,-0.017,0.005,1.019
2026/01/08 10:03:49.221,-0.013,0.005,1.014
2026/01/08 10:03:49.241,-0.015,0.005,1.017
2026/01/08 10:03:49.262,-0.015,0.003,1.016
2026/01/08 10:03:49.282,-0.013,0.004,1.015
2026/01/08 10:03:49.302,-0.018,0.005,1.016
2026/01/08 10:03:49.322,-0.016,0.002,1.017
2026/01/08 10:03:49.342,-0.016,0.006,1.012
2026/01/08 10:03:49.363,-0.017,0.004,1.02
2026/01/08 10:03:49.383,-0.015,0.004,1.015
2026/01/08 10:03:49.403,-0.016,0.004,1.017
2026/01/08 10:03:49.423,-0.016,0.001,1.017
2026/01/08 10:03:49.443,-0.018,0.004,1.016
2026/01/08 10:03:49.463,-0.016,0.004,1.017
2026/01/08 10:03:49.484,-0.016,0.004,1.015
2026/01/08 10:03:49.504,-0.019,0.007,1.016
2026/01/08 10:03:49.524,-0.017,0.005,1.009
2026/01/08 10:03:49.544,-0.016,0.003,1.019
2026/01/08 10:03:49.564,-0.016,0.003,1.016
2026/01/08 10:03:49.585,-0.017,0.006,1.018
2026/01/08 10:03:49.605,-0.017,0.003,1.015
2026/01/08 10:03:49.625,-0.016,0.006,1.019
2026/01/08 10:03:49.645,-0.014,0.002,1.017
2026/01/08 10:03:49.665,-0.017,0.007,1.017
2026/01/08 10:03:49.686,-0.017,0.004,1.015
2026/01/08 10:03:49.706,-0.019,0.0,1.014
2026/01/08 10:03:49.726,-0.019,0.007,1.016
2026/01/08 10:03:49.746,-0.017,0.005,1.018
2026/01/08 10:03:49.766,-0.015,0.0,1.02
2026/01/08 10:03:49.787,-0.017,0.004,1.017
2026/01/08 10:03:49.807,-0.019,0.001,1.017
2026/01/08 10:03:49.827,-0.015,0.002,1.019
2026/01/08 10:03:49.847,-0.016,0.007,1.014
2026/01/08 10:03:49.867,-0.019,0.003,1.018
2026/01/08 10:03:49.888,-0.016,0.004,1.017
2026/01/08 10:03:49.908,-0.016,0.007,1.017
2026/01/08 10:03:49.928,-0.016,0.007,1.014
2026/01/08 10:03:49.948,-0.015,0.005,1.015
2026/01/08 10:03:49.968,-0.016,0.009,1.015
2026/01/08 10:03:49.988,-0.018,0.003,1.02
2026/01/08 10:03:50.009,-0.017,0.003,1.014
2026/01/08 10:03:50.029,-0.018,0.006,1.016
2026/01/08 10:03:50.049,-0.019,0.006,1.018
2026/01/08 10:03:50.069,-0.018,0.005,1.012
2026/01/08 10:03:50.089,-0.019,0.003,1.017
2026/01/08 10:03:50.110,-0.016,0.004,1.015
2026/01/08 10:03:50.130,-0.015,0.002,1.014
2026/01/08 10:03:50.150,-0.014,0.003,1.014
2026/01/08 10:03:50.170,-0.013,0.005,1.018
2026/01/08 10:03:50.190,-0.015,0.004,1.017
2026/01/08 10:03:50.211,-0.017,0.002,1.018
2026/01/08 10:03:50.231,-0.012,0.005,1.015
2026/01/08 10:03:50.251,-0.018,0.006,1.018
2026/01/08 10:03:50.271,-0.016,0.005,1.02
2026/01/08 10:03:50.291,-0.015,0.007,1.016
2026/01/08 10:03:50.312,-0.019,0.003,1.015
2026/01/08 10:03:50.332,-0.019,0.002,1.017
2026/01/08 10:03:50.352,-0.017,0.001,1.017
2026/01/08 10:03:50.372,-0.021,0.005,1.016
2026/01/08 10:03:50.392,-0.015,0.001,1.019
2026/01/08 10:03:50.413,-0.019,0.005,1.015
2026/01/08 10:03:50.433,-0.017,0.002,1.017
2026/01/08 10:03:50.453,-0.015,0.005,1.015
2026/01/08 10:03:50.473,-0.017,0.006,1.015
2026/01/08 10:03:50.493,-0.019,0.008,1.017
2026/01/08 10:03:50.513,-0.018,0.006,1.015
2026/01/08 10:03:50.534,-0.017,0.0,1.017
2026/01/08 10:03:50.554,-0.015,0.002,1.015
2026/01/08 10:03:50.574,-0.014,0.004,1.014
2026/01/08 10:03:50.594,-0.019,0.002,1.019
2026/01/08 10:03:50.614,-0.02,0.001,1.015
2026/01/08 10:03:50.635,-0.014,0.006,1.016
2026/01/08 10:03:50.655,-0.013,0.002,1.017
2026/01/08 10:03:50.675,-0.015,0.007,1.016
2026/01/08 10:03:50.695,-0.015,0.004,1.015
2026/01/08 10:03:50.715,-0.018,0.0,1.012
2026/01/08 10:03:50.736,-0.016,0.001,1.016
2026/01/08 10:03:50.756,-0.015,0.002,1.013
2026/01/08 10:03:50.776,-0.015,0.004,1.016
2026/01/08 10:03:50.796,-0.018,0.006,1.015
2026/01/08 10:03:50.816,-0.015,0.004,1.017
2026/01/08 10:03:50.837,-0.013,0.005,1.019
2026/01/08 10:03:50.857,-0.019,0.005,1.015
2026/01/08 10:03:50.877,-0.015,0.005,1.017
2026/01/08 10:03:50.897,-0.016,0.003,1.016
2026/01/08 10:03:50.917,-0.015,0.003,1.012
2026/01/08 10:03:50.938,-0.017,0.0,1.019
2026/01/08 10:03:50.958,-0.013,0.005,1.014
2026/01/08 10:03:50.978,-0.016,0.003,1.018
2026/01/08 10:03:50.998,-0.015,0.004,1.019
2026/01/08 10:03:51.018,-0.019,0.0,1.012
2026/01/08 10:03:51.038,-0.015,0.008,1.018
2026/01/08 10:03:51.059,-0.017,0.003,1.015
2026/01/08 10:03:51.079,-0.021,0.001,1.016
2026/01/08 10:03:51.099,-0.015,0.004,1.018
2026/01/08 10:03:51.119,-0.02,0.004,1.015
2026/01/08 10:03:51.139,-0.016,0.002,1.016
2026/01/08 10:03:51.160,-0.016,0.003,1.016
2026/01/08 10:03:51.180,-0.017,0.003,1.016
2026/01/08 10:03:51.200,-0.015,0.005,1.019
2026/01/08 10:03:51.220,-0.016,0.003,1.015
2026/01/08 10:03:51.240,-0.017,0.003,1.016
2026/01/08 10:03:51.261,-0.016,0.006,1.017
2026/01/08 10:03:51.281,-0.016,0.003,1.014
2026/01/08 10:03:51.301,-0.016,0.004,1.018
2026/01/08 10:03:51.321,-0.015,0.001,1.014
2026/01/08 10:03:51.341,-0.015,0.003,1.015
2026/01/08 10:03:51.362,-0.016,0.001,1.016
2026/01/08 10:03:51.382,-0.015,0.007,1.015
2026/01/08 10:03:51.402,-0.017,0.007,1.018
2026/01/08 10:03:51.422,-0.012,0.001,1.015
2026/01/08 10:03:51.442,-0.018,0.007,1.016
2026/01/08 10:03:51.463,-0.021,0.0,1.016
2026/01/08 10:03:51.483,-0.016,0.006,1.019
2026/01/08 10:03:51.503,-0.02,0.007,1.016
2026/01/08 10:03:51.523,-0.016,0.006,1.019
2026/01/08 10:03:51.543,-0.015,0.006,1.022
2026/01/08 10:03:51.563,-0.02,0.003,1.016
2026/01/08 10:03:51.584,-0.016,0.0,1.014
2026/01/08 10:03:51.604,-0.017,0.001,1.018
2026/01/08 10:03:51.624,-0.015,0.003,1.015
2026/01/08 10:03:51.644,-0.015,0.004,1.019
2026/01/08 10:03:51.664,-0.016,0.003,1.017
2026/01/08 10:03:51.685,-0.017,0.005,1.019
2026/01/08 10:03:51.705,-0.015,0.003,1.015
2026/01/08 10:03:51.725,-0.018,0.006,1.019
2026/01/08 10:03:51.745,-0.015,0.005,1.016
2026/01/08 10:03:51.765,-0.018,0.002,1.015
2026/01/08 10:03:51.786,-0.016,0.004,1.014
2026/01/08 10:03:51.806,-0.014,0.006,1.016
2026/01/08 10:03:51.826,-0.017,0.005,1.015
2026/01/08 10:03:51.846,-0.019,0.002,1.016
2026/01/08 10:03:51.866,-0.02,0.002,1.014
2026/01/08 10:03:51.887,-0.016,0.006,1.019
2026/01/08 10:03:51.907,-0.017,0.003,1.014
2026/01/08 10:03:51.927,-0.015,0.005,1.016
2026/01/08 10:03:51.947,-0.016,0.004,1.017
2026/01/08 10:03:51.967,-0.016,0.002,1.014
2026/01/08 10:03:51.988,-0.016,0.005,1.013
2026/01/08 10:03:52.008,-0.019,0.005,1.017
2026/01/08 10:03:52.028,-0.016,0.006,1.013
2026/01/08 10:03:52.048,-0.016,0.006,1.015
2026/01/08 10:03:52.068,-0.015,0.003,1.017
2026/01/08 10:03:52.088,-0.015,0.003,1.017
2026/01/08 10:03:52.109,-0.014,0.005,1.016
2026/01/08 10:03:52.129,-0.014,0.005,1.015
2026/01/08 10:03:52.149,-0.016,0.002,1.018
2026/01/08 10:03:52.169,-0.015,0.002,1.018
2026/01/08 10:03:52.189,-0.018,0.0,1.018
2026/01/08 10:03:52.210,-0.015,0.01,1.018
2026/01/08 10:03:52.230,-0.02,0.003,1.014
2026/01/08 10:03:52.250,-0.017,0.006,1.019
2026/01/08 10:03:52.270,-0.015,0.004,1.016
2026/01/08 10:03:52.290,-0.02,0.003,1.015
2026/01/08 10:03:52.311,-0.016,0.001,1.017
2026/01/08 10:03:52.331,-0.016,0.005,1.019
2026/01/08 10:03:52.351,-0.018,0.005,1.017
2026/01/08 10:03:52.371,-0.016,0.005,1.014
2026/01/08 10:03:52.391,-0.016,0.004,1.015
2026/01/08 10:03:52.412,-0.018,0.004,1.015
2026/01/08 10:03:52.432,-0.016,0.004,1.018
2026/01/08 10:03:52.452,-0.018,0.003,1.015
2026/01/08 10:03:52.472,-0.014,0.006,1.015
2026/01/08 10:03:52.492,-0.017,0.004,1.014
2026/01/08 10:03:52.513,-0.017,0.003,1.016
2026/01/08 10:03:52.533,-0.015,0.005,1.015
2026/01/08 10:03:52.553,-0.016,0.006,1.017
2026/01/08 10:03:52.573,-0.013,0.006,1.017
2026/01/08 10:03:52.593,-0.019,0.003,1.017
2026/01/08 10:03:52.614,-0.016,-0.001,1.017
2026/01/08 10:03:52.634,-0.016,0.008,1.014
2026/01/08 10:03:52.654,-0.017,0.004,1.017
2026/01/08 10:03:52.674,-0.015,0.001,1.012
2026/01/08 10:03:52.694,-0.015,0.005,1.016
2026/01/08 10:03:52.714,-0.016,0.002,1.016
2026/01/08 10:03:52.735,-0.016,0.003,1.018
2026/01/08 10:03:52.755,-0.015,0.0,1.016
2026/01/08 10:03:52.775,-0.017,0.002,1.015
2026/01/08 10:03:52.795,-0.015,0.003,1.015
2026/01/08 10:03:52.815,-0.021,0.004,1.019
2026/01/08 10:03:52.836,-0.015,0.005,1.016
2026/01/08 10:03:52.856,-0.016,0.0,1.014
2026/01/08 10:03:52.876,-0.015,0.004,1.016
2026/01/08 10:03:52.896,-0.016,0.004,1.018
2026/01/08 10:03:52.916,-0.015,0.003,1.014
2026/01/08 10:03:52.937,-0.02,0.001,1.016
2026/01/08 10:03:52.957,-0.017,0.007,1.015
2026/01/08 10:03:52.977,-0.02,0.007,1.018
2026/01/08 10:03:52.997,-0.017,0.005,1.013
2026/01/08 10:03:53.017,-0.02,0.002,1.015
2026/01/08 10:03:53.038,-0.014,0.005,1.014
2026/01/08 10:03:53.058,-0.017,0.005,1.017
2026/01/08 10:03:53.078,-0.02,0.002,1.018
2026/01/08 10:03:53.098,-0.016,0.003,1.015
2026/01/08 10:03:53.118,-0.017,0.003,1.016
2026/01/08 10:03:53.139,-0.017,0.004,1.015
2026/01/08 10:03:53.159,-0.018,0.001,1.016
2026/01/08 10:03:53.179,-0.017,0.002,1.017
2026/01/08 10:03:53.199,-0.016,0.002,1.017
2026/01/08 10:03:53.219,-0.017,0.001,1.017
2026/01/08 10:03:53.240,-0.013,0.002,1.015
2026/01/08 10:03:53.260,-0.016,0.006,1.015
2026/01/08 10:03:53.280,-0.013,0.001,1.016
2026/01/08 10:03:53.300,-0.022,0.005,1.017
2026/01/08 10:03:53.320,-0.016,0.001,1.014
2026/01/08 10:03:53.340,-0.018,0.002,1.017
2026/01/08 10:03:53.361,-0.013,0.005,1.018
2026/01/08 10:03:53.381,-0.018,0.003,1.02
2026/01/08 10:03:53.401,-0.018,0.001,1.014
2026/01/08 10:03:53.421,-0.015,0.002,1.016
2026/01/08 10:03:53.441,-0.017,0.005,1.017
2026/01/08 10:03:53.462,-0.014,0.006,1.016
2026/01/08 10:03:53.482,-0.018,0.004,1.015
2026/01/08 10:03:53.502,-0.019,0.004,1.018
2026/01/08 10:03:53.522,-0.017,0.004,1.016
2026/01/08 10:03:53.542,-0.017,0.004,1.014
2026/01/08 10:03:53.563,-0.016,0.003,1.016
2026/01/08 10:03:53.583,-0.015,0.006,1.016
2026/01/08 10:03:53.603,-0.018,0.004,1.014
2026/01/08 10:03:53.623,-0.016,0.006,1.017
2026/01/08 10:03:53.643,-0.021,0.002,1.018
2026/01/08 10:03:53.664,-0.017,0.003,1.016
2026/01/08 10:03:53.684,-0.016,0.004,1.017
2026/01/08 10:03:53.704,-0.018,0.001,1.017
2026/01/08 10:03:53.724,-0.019,0.005,1.015
2026/01/08 10:03:53.744,-0.013,0.008,1.015
2026/01/08 10:03:53.765,-0.016,0.005,1.016
2026/01/08 10:03:53.785,-0.016,0.002,1.016
2026/01/08 10:03:53.805,-0.017,0.0,1.015
2026/01/08 10:03:53.825,-0.018,0.006,1.016
2026/01/08 10:03:53.845,-0.015,0.003,1.016
2026/01/08 10:03:53.865,-0.017,0.006,1.016
2026/01/08 10:03:53.886,-0.014,0.008,1.016
2026/01/08 10:03:53.906,-0.016,0.004,1.016
2026/01/08 10:03:53.926,-0.017,-0.001,1.015
2026/01/08 10:03:53.946,-0.019,0.0,1.015
2026/01/08 10:03:53.966,-0.016,0.003,1.016
2026/01/08 10:03:53.987,-0.017,0.005,1.017
2026/01/08 10:03:54.007,-0.016,0.006,1.015
2026/01/08 10:03:54.027,-0.017,0.003,1.012
2026/01/08 10:03:54.047,-0.015,0.002,1.014
2026/01/08 10:03:54.067,-0.02,0.001,1.012
2026/01/08 10:03:54.088,-0.016,0.001,1.019
2026/01/08 10:03:54.108,-0.021,0.002,1.017
2026/01/08 10:03:54.128,-0.016,0.0,1.018
2026/01/08 10:03:54.148,-0.015,0.0,1.018
2026/01/08 10:03:54.168,-0.017,0.008,1.012
2026/01/08 10:03:54.189,-0.015,0.005,1.013
2026/01/08 10:03:54.209,-0.018,0.007,1.018
2026/01/08 10:03:54.229,-0.017,0.004,1.016
2026/01/08 10:03:54.249,-0.019,0.008,1.016
2026/01/08 10:03:54.269,-0.017,0.0,1.013
2026/01/08 10:03:54.290,-0.015,0.003,1.018
2026/01/08 10:03:54.310,-0.016,0.007,1.016
2026/01/08 10:03:54.330,-0.018,0.003,1.016
2026/01/08 10:03:54.350,-0.016,0.006,1.02
2026/01/08 10:03:54.370,-0.014,0.006,1.018
2026/01/08 10:03:54.391,-0.018,0.005,1.017
2026/01/08 10:03:54.411,-0.013,0.005,1.017
2026/01/08 10:03:54.431,-0.015,0.0,1.015
2026/01/08 10:03:54.451,-0.017,0.003,1.021
2026/01/08 10:03:54.471,-0.017,-0.002,1.015
2026/01/08 10:03:54.491,-0.015,0.005,1.016
2026/01/08 10:03:54.512,-0.02,0.006,1.016
2026/01/08 10:03:54.532,-0.016,0.004,1.016
2026/01/08 10:03:54.552,-0.015,0.003,1.018
2026/01/08 10:03:54.572,-0.018,0.007,1.017
2026/01/08 10:03:54.592,-0.019,0.002,1.015
2026/01/08 10:03:54.613,-0.015,0.001,1.018
2026/01/08 10:03:54.633,-0.013,0.001,1.016
2026/01/08 10:03:54.653,-0.019,0.002,1.014
2026/01/08 10:03:54.673,-0.016,0.005,1.018
2026/01/08 10:03:54.693,-0.014,0.006,1.019
2026/01/08 10:03:54.714,-0.017,0.005,1.019
2026/01/08 10:03:54.734,-0.017,0.002,1.011
2026/01/08 10:03:54.754,-0.018,0.005,1.017
2026/01/08 10:03:54.774,-0.016,0.004,1.011
2026/01/08 10:03:54.794,-0.015,0.006,1.018
2026/01/08 10:03:54.815,-0.018,0.003,1.016
2026/01/08 10:03:54.835,-0.015,0.004,1.013
2026/01/08 10:03:54.855,-0.018,0.003,1.016
2026/01/08 10:03:54.875,-0.016,0.003,1.016
2026/01/08 10:03:54.895,-0.015,0.001,1.015
2026/01/08 10:03:54.916,-0.019,0.001,1.017
2026/01/08 10:03:54.936,-0.021,0.004,1.015
2026/01/08 10:03:54.956,-0.016,0.007,1.017
2026/01/08 10:03:54.976,-0.014,0.001,1.015
2026/01/08 10:03:54.996,-0.016,0.007,1.014
2026/01/08 10:03:55.017,-0.017,0.005,1.013
2026/01/08 10:03:55.037,-0.018,0.004,1.016
2026/01/08 10:03:55.057,-0.014,0.007,1.02
2026/01/08 10:03:55.077,-0.015,0.004,1.017
2026/01/08 10:03:55.097,-0.016,0.003,1.017
2026/01/08 10:03:55.118,-0.02,0.001,1.016
2026/01/08 10:03:55.138,-0.017,0.008,1.016
2026/01/08 10:03:55.158,-0.015,0.002,1.015
2026/01/08 10:03:55.178,-0.02,0.003,1.014
2026/01/08 10:03:55.198,-0.019,0.004,1.017
2026/01/08 10:03:55.218,-0.015,0.002,1.016
2026/01/08 10:03:55.239,-0.016,0.002,1.017
2026/01/08 10:03:55.259,-0.02,0.007,1.017
2026/01/08 10:03:55.279,-0.017,0.007,1.017
2026/01/08 10:03:55.299,-0.02,-0.001,1.015
2026/01/08 10:03:55.319,-0.015,0.003,1.016
2026/01/08 10:03:55.340,-0.019,0.005,1.015
2026/01/08 10:03:55.360,-0.016,0.005,1.015
2026/01/08 10:03:55.380,-0.018,0.007,1.014
2026/01/08 10:03:55.400,-0.018,0.003,1.018
2026/01/08 10:03:55.420,-0.021,0.006,1.015
2026/01/08 10:03:55.441,-0.015,0.004,1.014
2026/01/08 10:03:55.461,-0.017,0.0,1.013
2026/01/08 10:03:55.481,-0.019,0.002,1.012
2026/01/08 10:03:55.501,-0.014,0.005,1.016
2026/01/08 10:03:55.521,-0.02,0.002,1.016
2026/01/08 10:03:55.542,-0.016,0.004,1.016
2026/01/08 10:03:55.562,-0.014,0.007,1.017
2026/01/08 10:03:55.582,-0.019,0.004,1.016
2026/01/08 10:03:55.602,-0.014,0.001,1.018
2026/01/08 10:03:55.622,-0.013,0.005,1.018
2026/01/08 10:03:55.643,-0.016,0.004,1.017
2026/01/08 10:03:55.663,-0.018,0.005,1.019
2026/01/08 10:03:55.683,-0.016,0.008,1.017
2026/01/08 10:03:55.703,-0.015,0.005,1.017
2026/01/08 10:03:55.723,-0.018,0.002,1.016
2026/01/08 10:03:55.744,-0.017,0.002,1.017
2026/01/08 10:03:55.764,-0.018,0.004,1.014
2026/01/08 10:03:55.784,-0.02,0.003,1.016
2026/01/08 10:03:55.804,-0.013,0.006,1.016
2026/01/08 10:03:55.824,-0.016,0.005,1.015
2026/01/08 10:03:55.845,-0.017,0.008,1.017
2026/01/08 10:03:55.865,-0.018,0.003,1.016
2026/01/08 10:03:55.885,-0.017,0.001,1.016
2026/01/08 10:03:55.905,-0.018,0.001,1.015
2026/01/08 10:03:55.925,-0.017,0.005,1.015
2026/01/08 10:03:55.945,-0.017,0.005,1.014
2026/01/08 10:03:55.966,-0.017,0.0,1.015
2026/01/08 10:03:55.986,-0.017,0.004,1.015
2026/01/08 10:03:56.006,-0.017,0.005,1.013
2026/01/08 10:03:56.026,-0.014,0.006,1.015
2026/01/08 10:03:56.046,-0.017,0.001,1.015
2026/01/08 10:03:56.067,-0.017,0.003,1.016
2026/01/08 10:03:56.087,-0.018,0.003,1.017
2026/01/08 10:03:56.107,-0.017,0.003,1.014
2026/01/08 10:03:56.127,-0.019,0.004,1.019
2026/01/08 10:03:56.147,-0.014,0.003,1.017
2026/01/08 10:03:56.168,-0.019,0.001,1.015
2026/01/08 10:03:56.188,-0.016,0.002,1.018
2026/01/08 10:03:56.208,-0.017,0.006,1.014
2026/01/08 10:03:56.228,-0.015,0.003,1.016
2026/01/08 10:03:56.248,-0.018,0.006,1.017
2026/01/08 10:03:56.269,-0.015,0.005,1.017
2026/01/08 10:03:56.289,-0.016,0.002,1.015
2026/01/08 10:03:56.309,-0.015,0.004,1.016
2026/01/08 10:03:56.329,-0.022,0.004,1.014
2026/01/08 10:03:56.349,-0.017,0.002,1.018
2026/01/08 10:03:56.370,-0.016,0.002,1.015
2026/01/08 10:03:56.390,-0.019,0.003,1.018
2026/01/08 10:03:56.410,-0.021,0.007,1.014
2026/01/08 10:03:56.430,-0.017,0.004,1.015
2026/01/08 10:03:56.450,-0.016,0.006,1.014
2026/01/08 10:03:56.471,-0.015,0.0,1.015
2026/01/08 10:03:56.491,-0.019,0.004,1.021
2026/01/08 10:03:56.511,-0.017,0.003,1.014
2026/01/08 10:03:56.531,-0.016,0.006,1.014
2026/01/08 10:03:56.551,-0.015,0.005,1.017
2026/01/08 10:03:56.572,-0.017,0.003,1.012
2026/01/08 10:03:56.592,-0.015,0.001,1.016
2026/01/08 10:03:56.612,-0.017,0.002,1.016
2026/01/08 10:03:56.632,-0.016,0.003,1.016
2026/01/08 10:03:56.652,-0.017,0.005,1.015
2026/01/08 10:03:56.673,-0.017,0.005,1.016
2026/01/08 10:03:56.693,-0.017,0.009,1.016
2026/01/08 10:03:56.713,-0.018,0.001,1.017
2026/01/08 10:03:56.733,-0.018,0.004,1.017
2026/01/08 10:03:56.753,-0.013,0.003,1.014
2026/01/08 10:03:56.773,-0.019,0.003,1.015
2026/01/08 10:03:56.794,-0.015,0.003,1.015
2026/01/08 10:03:56.814,-0.017,0.003,1.014
2026/01/08 10:03:56.834,-0.015,0.005,1.014
2026/01/08 10:03:56.854,-0.019,0.002,1.015
2026/01/08 10:03:56.874,-0.015,0.002,1.017
2026/01/08 10:03:56.895,-0.016,0.002,1.017
2026/01/08 10:03:56.915,-0.016,0.004,1.014
2026/01/08 10:03:56.935,-0.016,0.003,1.015
2026/01/08 10:03:56.955,-0.013,0.004,1.015
2026/01/08 10:03:56.975,-0.016,0.006,1.016
2026/01/08 10:03:56.996,-0.017,0.003,1.014
2026/01/08 10:03:57.016,-0.015,0.004,1.014
2026/01/08 10:03:57.036,-0.016,0.008,1.018
2026/01/08 10:03:57.056,-0.017,0.001,1.013
2026/01/08 10:03:57.076,-0.019,0.005,1.013
2026/01/08 10:03:57.097,-0.017,0.004,1.016
2026/01/08 10:03:57.117,-0.018,0.001,1.018
2026/01/08 10:03:57.137,-0.02,0.005,1.02
2026/01/08 10:03:57.157,-0.018,0.003,1.017
2026/01/08 10:03:57.177,-0.015,0.003,1.019
2026/01/08 10:03:57.198,-0.015,0.002,1.015
2026/01/08 10:03:57.218,-0.014,0.005,1.013
2026/01/08 10:03:57.238,-0.022,0.007,1.017
2026/01/08 10:03:57.258,-0.021,0.0,1.015
2026/01/08 10:03:57.278,-0.017,0.003,1.019
2026/01/08 10:03:57.299,-0.015,0.0,1.015
2026/01/08 10:03:57.319,-0.02,0.004,1.016
2026/01/08 10:03:57.339,-0.017,0.001,1.015
2026/01/08 10:03:57.359,-0.02,0.001,1.017
2026/01/08 10:03:57.379,-0.019,0.002,1.02
2026/01/08 10:03:57.400,-0.02,0.003,1.016
2026/01/08 10:03:57.420,-0.016,0.006,1.017
2026/01/08 10:03:57.440,-0.019,0.004,1.013
2026/01/08 10:03:57.460,-0.018,0.006,1.015
2026/01/08 10:03:57.480,-0.017,0.0,1.012
2026/01/08 10:03:57.500,-0.014,0.002,1.014
2026/01/08 10:03:57.521,-0.015,0.002,1.018
2026/01/08 10:03:57.541,-0.015,0.006,1.014
2026/01/08 10:03:57.561,-0.016,0.003,1.016
2026/01/08 10:03:57.581,-0.017,0.008,1.017
2026/01/08 10:03:57.601,-0.019,0.004,1.016
2026/01/08 10:03:57.622,-0.016,0.005,1.011
2026/01/08 10:03:57.642,-0.016,0.004,1.021
2026/01/08 10:03:57.662,-0.014,0.003,1.014
2026/01/08 10:03:57.682,-0.018,0.002,1.017
2026/01/08 10:03:57.702,-0.016,0.004,1.018
2026/01/08 10:03:57.723,-0.018,0.001,1.019
2026/01/08 10:03:57.743,-0.017,0.005,1.017
2026/01/08 10:03:57.763,-0.019,0.001,1.017
2026/01/08 10:03:57.783,-0.017,0.004,1.013
2026/01/08 10:03:57.803,-0.015,0.004,1.012
2026/01/08 10:03:57.824,-0.017,0.002,1.019
2026/01/08 10:03:57.844,-0.019,0.005,1.017
2026/01/08 10:03:57.864,-0.02,0.006,1.018
2026/01/08 10:03:57.884,-0.018,0.004,1.013
2026/01/08 10:03:57.904,-0.018,0.008,1.015
2026/01/08 10:03:57.925,-0.017,0.003,1.019
2026/01/08 10:03:57.945,-0.011,0.004,1.013
2026/01/08 10:03:57.965,-0.015,0.005,1.015
2026/01/08 10:03:57.985,-0.016,0.001,1.016
2026/01/08 10:03:58.005,-0.018,0.001,1.017
2026/01/08 10:03:58.026,-0.016,0.006,1.014
2026/01/08 10:03:58.046,-0.015,0.007,1.014
2026/01/08 10:03:58.066,-0.017,0.001,1.016
2026/01/08 10:03:58.086,-0.018,0.005,1.015
2026/01/08 10:03:58.106,-0.017,0.009,1.015
2026/01/08 10:03:58.127,-0.018,0.002,1.018
2026/01/08 10:03:58.147,-0.015,0.004,1.014
2026/01/08 10:03:58.167,-0.018,0.003,1.017
2026/01/08 10:03:58.187,-0.015,0.005,1.017
2026/01/08 10:03:58.207,-0.015,0.002,1.017
2026/01/08 10:03:58.228,-0.017,0.003,1.015
2026/01/08 10:03:58.248,-0.018,0.003,1.018
2026/01/08 10:03:58.268,-0.017,0.004,1.016
2026/01/08 10:03:58.288,-0.018,0.004,1.017
2026/01/08 10:03:58.308,-0.016,0.001,1.016
2026/01/08 10:03:58.328,-0.017,0.001,1.016
2026/01/08 10:03:58.349,-0.017,0.005,1.015
2026/01/08 10:03:58.369,-0.02,0.004,1.016
2026/01/08 10:03:58.389,-0.018,0.002,1.015
2026/01/08 10:03:58.409,-0.019,0.006,1.018
2026/01/08 10:03:58.429,-0.015,0.005,1.014
2026/01/08 10:03:58.450,-0.014,0.002,1.015
2026/01/08 10:03:58.470,-0.016,0.001,1.02
2026/01/08 10:03:58.490,-0.019,0.005,1.02
2026/01/08 10:03:58.510,-0.019,0.006,1.016
2026/01/08 10:03:58.530,-0.02,-0.001,1.015
2026/01/08 10:03:58.551,-0.018,0.002,1.017
2026/01/08 10:03:58.571,-0.018,0.005,1.019
2026/01/08 10:03:58.591,-0.016,0.003,1.015
2026/01/08 10:03:58.611,-0.018,0.005,1.016
2026/01/08 10:03:58.631,-0.016,0.003,1.014
2026/01/08 10:03:58.652,-0.015,0.004,1.017
2026/01/08 10:03:58.672,-0.015,0.003,1.014
2026/01/08 10:03:58.692,-0.015,0.002,1.017
2026/01/08 10:03:58.712,-0.019,0.004,1.013
2026/01/08 10:03:58.732,-0.016,0.004,1.018
2026/01/08 10:03:58.753,-0.016,0.004,1.012
2026/01/08 10:03:58.773,-0.016,0.007,1.013
2026/01/08 10:03:58.793,-0.018,0.008,1.016
2026/01/08 10:03:58.813,-0.02,0.003,1.014
2026/01/08 10:03:58.833,-0.02,0.002,1.017
2026/01/08 10:03:58.854,-0.018,0.004,1.018
2026/01/08 10:03:58.874,-0.016,0.006,1.017
2026/01/08 10:03:58.894,-0.019,0.004,1.016
2026/01/08 10:03:58.914,-0.02,0.003,1.017
2026/01/08 10:03:58.934,-0.018,0.003,1.011
2026/01/08 10:03:58.955,-0.017,0.003,1.017
2026/01/08 10:03:58.975,-0.016,0.007,1.014
2026/01/08 10:03:58.995,-0.019,0.009,1.016
2026/01/08 10:03:59.015,-0.019,0.005,1.017
2026/01/08 10:03:59.035,-0.018,0.003,1.015
2026/01/08 10:03:59.055,-0.015,0.003,1.018
2026/01/08 10:03:59.076,-0.015,0.006,1.016
2026/01/08 10:03:59.096,-0.016,0.005,1.015
2026/01/08 10:03:59.116,-0.017,0.005,1.018
2026/01/08 10:03:59.136,-0.017,0.009,1.015
2026/01/08 10:03:59.156,-0.018,0.005,1.014
2026/01/08 10:03:59.177,-0.015,0.003,1.015
2026/01/08 10:03:59.197,-0.016,0.006,1.015
2026/01/08 10:03:59.217,-0.016,0.005,1.015
2026/01/08 10:03:59.237,-0.017,-0.002,1.017
2026/01/08 10:03:59.257,-0.019,0.004,1.015
2026/01/08 10:03:59.278,-0.018,0.004,1.019
2026/01/08 10:03:59.298,-0.016,0.002,1.012
2026/01/08 10:03:59.318,-0.017,0.006,1.014
2026/01/08 10:03:59.338,-0.016,0.007,1.016
2026/01/08 10:03:59.358,-0.019,0.001,1.017
2026/01/08 10:03:59.379,-0.017,0.001,1.015
2026/01/08 10:03:59.399,-0.02,0.002,1.016
2026/01/08 10:03:59.419,-0.015,0.006,1.019
2026/01/08 10:03:59.439,-0.015,0.0,1.016
2026/01/08 10:03:59.459,-0.015,0.006,1.01
2026/01/08 10:03:59.480,-0.021,0.002,1.013
2026/01/08 10:03:59.500,-0.014,0.005,1.015
2026/01/08 10:03:59.520,-0.014,0.005,1.02
2026/01/08 10:03:59.540,-0.015,0.001,1.018
2026/01/08 10:03:59.560,-0.019,0.003,1.019
2026/01/08 10:03:59.581,-0.018,0.007,1.014
2026/01/08 10:03:59.601,-0.015,0.006,1.016
2026/01/08 10:03:59.621,-0.017,0.001,1.019
2026/01/08 10:03:59.641,-0.016,0.001,1.016
2026/01/08 10:03:59.661,-0.018,0.003,1.019
2026/01/08 10:03:59.682,-0.014,0.002,1.016
2026/01/08 10:03:59.702,-0.019,0.006,1.015
2026/01/08 10:03:59.722,-0.018,-0.002,1.016
2026/01/08 10:03:59.742,-0.018,0.001,1.015
2026/01/08 10:03:59.762,-0.016,0.002,1.017
2026/01/08 10:03:59.782,-0.02,0.005,1.015
2026/01/08 10:03:59.803,-0.014,0.003,1.019
2026/01/08 10:03:59.823,-0.018,0.004,1.014
2026/01/08 10:03:59.843,-0.017,0.004,1.018
2026/01/08 10:03:59.863,-0.015,0.002,1.014
2026/01/08 10:03:59.883,-0.016,0.001,1.016
2026/01/08 10:03:59.904,-0.019,0.004,1.019
2026/01/08 10:03:59.924,-0.018,0.003,1.016
2026/01/08 10:03:59.944,-0.016,-0.001,1.015
2026/01/08 10:03:59.964,-0.02,0.005,1.017
2026/01/08 10:03:59.984,-0.018,0.004,1.012
2026/01/08 10:04:00.005,-0.016,0.008,1.016
2026/01/08 10:04:00.025,-0.018,0.0,1.016
2026/01/08 10:04:00.045,-0.019,0.002,1.014
2026/01/08 10:04:00.065,-0.019,0.005,1.015
2026/01/08 10:04:00.085,-0.016,0.004,1.017
2026/01/08 10:04:00.106,-0.015,0.005,1.016
2026/01/08 10:04:00.126,-0.018,0.007,1.013
2026/01/08 10:04:00.146,-0.019,0.006,1.02
2026/01/08 10:04:00.166,-0.016,0.004,1.017
2026/01/08 10:04:00.186,-0.016,0.002,1.016
2026/01/08 10:04:00.207,-0.019,0.004,1.013
2026/01/08 10:04:00.227,-0.015,0.0,1.019
2026/01/08 10:04:00.247,-0.019,0.006,1.015
2026/01/08 10:04:00.267,-0.016,0.005,1.017
2026/01/08 10:04:00.287,-0.018,0.003,1.017
2026/01/08 10:04:00.308,-0.015,0.002,1.02
2026/01/08 10:04:00.328,-0.016,0.003,1.016
2026/01/08 10:04:00.348,-0.019,0.003,1.016
2026/01/08 10:04:00.368,-0.02,0.005,1.017
2026/01/08 10:04:00.388,-0.019,0.007,1.019
2026/01/08 10:04:00.409,-0.017,0.007,1.016
2026/01/08 10:04:00.429,-0.016,0.002,1.018
2026/01/08 10:04:00.449,-0.018,0.006,1.017
2026/01/08 10:04:00.469,-0.015,-0.002,1.016
2026/01/08 10:04:00.489,-0.016,0.002,1.015
2026/01/08 10:04:00.510,-0.016,0.004,1.016
2026/01/08 10:04:00.530,-0.015,0.003,1.019
2026/01/08 10:04:00.550,-0.015,0.004,1.015
2026/01/08 10:04:00.570,-0.019,0.003,1.016
2026/01/08 10:04:00.590,-0.017,0.002,1.017
2026/01/08 10:04:00.610,-0.017,0.002,1.017
2026/01/08 10:04:00.631,-0.016,0.004,1.013
2026/01/08 10:04:00.651,-0.019,0.002,1.016
2026/01/08 10:04:00.671,-0.017,0.002,1.017
2026/01/08 10:04:00.691,-0.014,0.004,1.015
2026/01/08 10:04:00.711,-0.017,0.002,1.017
2026/01/08 10:04:00.732,-0.017,0.005,1.016
2026/01/08 10:04:00.752,-0.015,0.007,1.02
2026/01/08 10:04:00.772,-0.019,0.003,1.014
2026/01/08 10:04:00.792,-0.019,0.001,1.015
2026/01/08 10:04:00.812,-0.018,-0.001,1.013
2026/01/08 10:04:00.833,-0.015,0.006,1.012
2026/01/08 10:04:00.853,-0.018,0.005,1.016
2026/01/08 10:04:00.873,-0.013,0.005,1.012
2026/01/08 10:04:00.893,-0.016,0.002,1.015
2026/01/08 10:04:00.913,-0.016,0.003,1.016
2026/01/08 10:04:00.934,-0.018,0.002,1.014
2026/01/08 10:04:00.954,-0.018,0.005,1.016
2026/01/08 10:04:00.974,-0.021,0.005,1.017
2026/01/08 10:04:00.994,-0.017,0.004,1.017
2026/01/08 10:04:01.014,-0.014,0.005,1.018
2026/01/08 10:04:01.035,-0.012,0.001,1.015
2026/01/08 10:04:01.055,-0.014,0.0,1.014
2026/01/08 10:04:01.075,-0.018,0.007,1.021
2026/01/08 10:04:01.095,-0.012,0.002,1.015
2026/01/08 10:04:01.115,-0.017,0.002,1.013
2026/01/08 10:04:01.136,-0.017,0.0,1.017
2026/01/08 10:04:01.156,-0.018,0.002,1.016
2026/01/08 10:04:01.176,-0.015,0.002,1.013
2026/01/08 10:04:01.196,-0.017,0.002,1.018
2026/01/08 10:04:01.216,-0.017,0.003,1.014
2026/01/08 10:04:01.237,-0.016,0.002,1.013
2026/01/08 10:04:01.257,-0.016,0.006,1.018
2026/01/08 10:04:01.277,-0.019,0.006,1.015
2026/01/08 10:04:01.297,-0.017,0.003,1.017
2026/01/08 10:04:01.317,-0.024,0.003,1.018
2026/01/08 10:04:01.337,-0.018,0.003,1.015
2026/01/08 10:04:01.358,-0.017,0.003,1.016
2026/01/08 10:04:01.378,-0.015,0.002,1.015
2026/01/08 10:04:01.398,-0.02,0.003,1.016
2026/01/08 10:04:01.418,-0.02,0.006,1.012
2026/01/08 10:04:01.438,-0.017,0.005,1.014
2026/01/08 10:04:01.459,-0.018,0.005,1.013
2026/01/08 10:04:01.479,-0.016,0.006,1.016
2026/01/08 10:04:01.499,-0.017,0.003,1.016
2026/01/08 10:04:01.519,-0.02,0.004,1.014
2026/01/08 10:04:01.539,-0.016,0.004,1.015
2026/01/08 10:04:01.560,-0.016,0.003,1.015
2026/01/08 10:04:01.580,-0.015,0.008,1.015
2026/01/08 10:04:01.600,-0.019,0.005,1.016
2026/01/08 10:04:01.620,-0.016,0.002,1.017
2026/01/08 10:04:01.640,-0.017,0.005,1.016
2026/01/08 10:04:01.661,-0.015,0.003,1.017
2026/01/08 10:04:01.681,-0.02,0.006,1.016
2026/01/08 10:04:01.701,-0.018,0.002,1.015
2026/01/08 10:04:01.721,-0.018,0.007,1.014
2026/01/08 10:04:01.741,-0.017,0.004,1.018
2026/01/08 10:04:01.762,-0.016,0.002,1.014
2026/01/08 10:04:01.782,-0.017,0.002,1.018
2026/01/08 10:04:01.802,-0.015,0.005,1.019
2026/01/08 10:04:01.822,-0.017,0.004,1.018
2026/01/08 10:04:01.842,-0.021,0.01,1.015
2026/01/08 10:04:01.863,-0.01,-0.005,1.02
2026/01/08 10:04:01.883,-0.025,0.015,1.02
2026/01/08 10:04:01.903,-0.013,0.003,1.018
2026/01/08 10:04:01.923,-0.019,0.009,1.015
2026/01/08 10:04:01.943,-0.014,-0.001,1.013
2026/01/08 10:04:01.964,-0.018,0.002,1.015
2026/01/08 10:04:01.984,-0.015,0.005,1.014
2026/01/08 10:04:02.004,-0.013,0.003,1.022
2026/01/08 10:04:02.024,-0.022,0.011,1.011
2026/01/08 10:04:02.044,-0.018,0.003,1.017
2026/01/08 10:04:02.065,-0.018,0.001,1.015
2026/01/08 10:04:02.085,-0.016,0.0,1.015
2026/01/08 10:04:02.105,-0.021,0.003,1.018
2026/01/08 10:04:02.125,-0.02,0.004,1.011
2026/01/08 10:04:02.145,-0.015,0.001,1.018
2026/01/08 10:04:02.165,-0.015,0.004,1.015
2026/01/08 10:04:02.186,-0.016,0.007,1.018
2026/01/08 10:04:02.206,-0.014,0.003,1.017
2026/01/08 10:04:02.226,-0.018,0.003,1.016
2026/01/08 10:04:02.246,-0.018,0.007,1.014
2026/01/08 10:04:02.266,-0.019,0.003,1.015
2026/01/08 10:04:02.287,-0.013,0.0,1.019
2026/01/08 10:04:02.307,-0.02,0.005,1.015
2026/01/08 10:04:02.327,-0.019,0.003,1.017
2026/01/08 10:04:02.347,-0.02,0.005,1.014
2026/01/08 10:04:02.367,-0.017,0.003,1.016
2026/01/08 10:04:02.388,-0.018,0.001,1.017
2026/01/08 10:04:02.408,-0.014,0.004,1.015
2026/01/08 10:04:02.428,-0.022,0.005,1.015
2026/01/08 10:04:02.448,-0.018,0.007,1.013
2026/01/08 10:04:02.468,-0.015,0.003,1.015
2026/01/08 10:04:02.489,-0.02,0.005,1.013
2026/01/08 10:04:02.509,-0.017,0.005,1.016
2026/01/08 10:04:02.529,-0.02,0.005,1.02
2026/01/08 10:04:02.549,-0.019,0.001,1.015
2026/01/08 10:04:02.569,-0.018,0.003,1.021
2026/01/08 10:04:02.590,-0.016,0.002,1.015
2026/01/08 10:04:02.610,-0.017,0.005,1.016
2026/01/08 10:04:02.630,-0.018,0.007,1.015
2026/01/08 10:04:02.650,-0.016,0.005,1.019
2026/01/08 10:04:02.670,-0.016,0.005,1.017
2026/01/08 10:04:02.691,-0.015,0.005,1.017
2026/01/08 10:04:02.711,-0.018,0.005,1.014
2026/01/08 10:04:02.731,-0.017,0.002,1.015
2026/01/08 10:04:02.751,-0.018,0.002,1.012
2026/01/08 10:04:02.771,-0.02,0.003,1.017
2026/01/08 10:04:02.792,-0.014,0.0,1.017
2026/01/08 10:04:02.812,-0.016,0.003,1.012
2026/01/08 10:04:02.832,-0.016,0.005,1.016
2026/01/08 10:04:02.852,-0.02,0.004,1.012
2026/01/08 10:04:02.872,-0.017,0.001,1.014
2026/01/08 10:04:02.892,-0.017,0.004,1.016
2026/01/08 10:04:02.913,-0.019,0.007,1.014
2026/01/08 10:04:02.933,-0.016,0.003,1.015
2026/01/08 10:04:02.953,-0.019,0.004,1.012
2026/01/08 10:04:02.973,-0.019,0.004,1.016
2026/01/08 10:04:02.993,-0.015,0.007,1.016
2026/01/08 10:04:03.014,-0.018,0.001,1.017
2026/01/08 10:04:03.034,-0.019,0.005,1.014
2026/01/08 10:04:03.054,-0.015,0.005,1.015
2026/01/08 10:04:03.074,-0.019,0.009,1.016
2026/01/08 10:04:03.094,-0.014,0.003,1.018
2026/01/08 10:04:03.115,-0.018,0.003,1.015
2026/01/08 10:04:03.135,-0.016,0.003,1.017
2026/01/08 10:04:03.155,-0.019,0.005,1.014
2026/01/08 10:04:03.175,-0.021,0.002,1.019
2026/01/08 10:04:03.195,-0.014,0.004,1.014
2026/01/08 10:04:03.216,-0.012,0.003,1.017
2026/01/08 10:04:03.236,-0.016,0.002,1.015
2026/01/08 10:04:03.256,-0.017,0.001,1.016
2026/01/08 10:04:03.276,-0.015,0.002,1.015
2026/01/08 10:04:03.296,-0.016,0.003,1.018
2026/01/08 10:04:03.317,-0.02,0.006,1.011
2026/01/08 10:04:03.337,-0.015,0.004,1.017
2026/01/08 10:04:03.357,-0.022,0.004,1.016
2026/01/08 10:04:03.377,-0.02,0.003,1.018
2026/01/08 10:04:03.397,-0.015,0.007,1.016
2026/01/08 10:04:03.418,-0.016,-0.001,1.018
2026/01/08 10:04:03.438,-0.016,0.002,1.016
2026/01/08 10:04:03.458,-0.018,0.002,1.014
2026/01/08 10:04:03.478,-0.018,0.001,1.015
2026/01/08 10:04:03.498,-0.019,0.005,1.015
2026/01/08 10:04:03.519,-0.016,0.004,1.014
2026/01/08 10:04:03.539,-0.02,0.006,1.014
2026/01/08 10:04:03.559,-0.018,0.002,1.016
2026/01/08 10:04:03.579,-0.019,0.001,1.013
2026/01/08 10:04:03.599,-0.018,0.003,1.014
2026/01/08 10:04:03.620,-0.015,0.002,1.013
2026/01/08 10:04:03.640,-0.017,-0.001,1.017
2026/01/08 10:04:03.660,-0.016,0.005,1.014
2026/01/08 10:04:03.680,-0.015,0.004,1.018
2026/01/08 10:04:03.700,-0.019,0.007,1.013
2026/01/08 10:04:03.721,-0.02,0.006,1.015
2026/01/08 10:04:03.741,-0.017,0.005,1.02
2026/01/08 10:04:03.761,-0.018,0.004,1.016
2026/01/08 10:04:03.781,-0.013,0.007,1.018
2026/01/08 10:04:03.801,-0.017,0.004,1.015
2026/01/08 10:04:03.822,-0.016,0.005,1.014
2026/01/08 10:04:03.842,-0.015,0.003,1.016
2026/01/08 10:04:03.862,-0.021,0.005,1.017
2026/01/08 10:04:03.882,-0.017,0.005,1.018
2026/01/08 10:04:03.902,-0.018,0.005,1.012
2026/01/08 10:04:03.922,-0.02,0.002,1.012
2026/01/08 10:04:03.943,-0.017,0.002,1.017
2026/01/08 10:04:03.963,-0.016,0.002,1.015
2026/01/08 10:04:03.983,-0.017,0.007,1.015
2026/01/08 10:04:04.003,-0.016,0.003,1.014
2026/01/08 10:04:04.023,-0.02,-0.003,1.017
2026/01/08 10:04:04.044,-0.019,0.007,1.013
2026/01/08 10:04:04.064,-0.019,0.007,1.018
2026/01/08 10:04:04.084,-0.019,0.005,1.014
2026/01/08 10:04:04.104,-0.016,0.003,1.016
2026/01/08 10:04:04.124,-0.016,0.002,1.019
2026/01/08 10:04:04.145,-0.018,0.004,1.013
2026/01/08 10:04:04.165,-0.015,0.004,1.015
2026/01/08 10:04:04.185,-0.015,0.004,1.016
2026/01/08 10:04:04.205,-0.021,0.006,1.018
2026/01/08 10:04:04.225,-0.016,0.002,1.016
2026/01/08 10:04:04.246,-0.016,0.002,1.018
2026/01/08 10:04:04.266,-0.014,0.005,1.015
2026/01/08 10:04:04.286,-0.016,0.0,1.016
2026/01/08 10:04:04.306,-0.015,-0.001,1.017
2026/01/08 10:04:04.326,-0.019,0.0,1.013
2026/01/08 10:04:04.347,-0.018,0.008,1.015
2026/01/08 10:04:04.367,-0.018,0.004,1.015
2026/01/08 10:04:04.387,-0.017,0.002,1.014
2026/01/08 10:04:04.407,-0.019,0.004,1.013
2026/01/08 10:04:04.427,-0.019,0.003,1.013
2026/01/08 10:04:04.448,-0.018,0.005,1.014
2026/01/08 10:04:04.468,-0.018,0.005,1.017
2026/01/08 10:04:04.488,-0.016,0.004,1.015
2026/01/08 10:04:04.508,-0.02,0.008,1.014
2026/01/08 10:04:04.528,-0.018,0.003,1.016
2026/01/08 10:04:04.549,-0.014,0.003,1.016
2026/01/08 10:04:04.569,-0.016,0.002,1.014
2026/01/08 10:04:04.589,-0.015,0.003,1.012
2026/01/08 10:04:04.609,-0.017,0.001,1.016
2026/01/08 10:04:04.629,-0.014,0.003,1.015
2026/01/08 10:04:04.650,-0.017,0.005,1.018
2026/01/08 10:04:04.670,-0.016,0.004,1.017
2026/01/08 10:04:04.690,-0.015,0.003,1.017
2026/01/08 10:04:04.710,-0.016,0.003,1.015
2026/01/08 10:04:04.730,-0.02,0.005,1.014
2026/01/08 10:04:04.751,-0.015,0.004,1.018
2026/01/08 10:04:04.771,-0.016,0.001,1.016
2026/01/08 10:04:04.791,-0.017,0.006,1.016
2026/01/08 10:04:04.811,-0.016,0.003,1.015
2026/01/08 10:04:04.831,-0.017,0.002,1.015
2026/01/08 10:04:04.852,-0.02,0.004,1.017
2026/01/08 10:04:04.872,-0.019,0.002,1.018
2026/01/08 10:04:04.892,-0.017,0.002,1.015
2026/01/08 10:04:04.912,-0.015,0.003,1.014
2026/01/08 10:04:04.932,-0.016,0.001,1.017
2026/01/08 10:04:04.952,-0.017,0.002,1.017
2026/01/08 10:04:04.973,-0.016,0.002,1.016
2026/01/08 10:04:04.993,-0.017,0.003,1.016
2026/01/08 10:04:05.013,-0.019,0.0,1.012
2026/01/08 10:04:05.033,-0.014,0.001,1.013
2026/01/08 10:04:05.053,-0.018,0.006,1.014
2026/01/08 10:04:05.074,-0.018,0.003,1.016
2026/01/08 10:04:05.094,-0.019,0.002,1.016
2026/01/08 10:04:05.114,-0.018,0.004,1.018
2026/01/08 10:04:05.134,-0.016,0.004,1.018
2026/01/08 10:04:05.154,-0.018,0.007,1.017
2026/01/08 10:04:05.175,-0.015,0.005,1.015
2026/01/08 10:04:05.195,-0.016,0.005,1.017
2026/01/08 10:04:05.215,-0.016,0.002,1.014
2026/01/08 10:04:05.235,-0.017,0.003,1.019
2026/01/08 10:04:05.255,-0.017,0.003,1.011
2026/01/08 10:04:05.276,-0.016,0.005,1.017
2026/01/08 10:04:05.296,-0.015,0.005,1.016
2026/01/08 10:04:05.316,-0.021,0.006,1.015
2026/01/08 10:04:05.336,-0.018,0.004,1.018
2026/01/08 10:04:05.356,-0.015,0.004,1.019
2026/01/08 10:04:05.377,-0.016,0.003,1.018
2026/01/08 10:04:05.397,-0.022,0.003,1.017
2026/01/08 10:04:05.417,-0.017,0.004,1.016
2026/01/08 10:04:05.437,-0.018,0.002,1.014
2026/01/08 10:04:05.457,-0.016,0.004,1.014
2026/01/08 10:04:05.478,-0.017,0.005,1.013
2026/01/08 10:04:05.498,-0.015,0.006,1.018
2026/01/08 10:04:05.518,-0.017,0.004,1.016
2026/01/08 10:04:05.538,-0.018,0.005,1.017
2026/01/08 10:04:05.558,-0.017,0.004,1.017
2026/01/08 10:04:05.579,-0.016,0.001,1.016
2026/01/08 10:04:05.599,-0.019,0.005,1.016
2026/01/08 10:04:05.619,-0.014,-0.002,1.015
2026/01/08 10:04:05.639,-0.014,0.005,1.016
2026/01/08 10:04:05.659,-0.014,0.004,1.018
2026/01/08 10:04:05.680,-0.016,0.003,1.015
2026/01/08 10:04:05.700,-0.016,0.004,1.014
2026/01/08 10:04:05.720,-0.018,0.001,1.017
2026/01/08 10:04:05.740,-0.019,0.001,1.015
2026/01/08 10:04:05.760,-0.015,0.002,1.015
2026/01/08 10:04:05.781,-0.018,0.003,1.014
2026/01/08 10:04:05.801,-0.02,0.005,1.015
2026/01/08 10:04:05.821,-0.016,0.004,1.014
2026/01/08 10:04:05.841,-0.015,0.001,1.014
2026/01/08 10:04:05.861,-0.018,0.0,1.013
2026/01/08 10:04:05.882,-0.016,0.006,1.017
2026/01/08 10:04:05.902,-0.017,0.006,1.016
2026/01/08 10:04:05.922,-0.018,0.004,1.014
2026/01/08 10:04:05.942,-0.018,0.005,1.016
2026/01/08 10:04:05.962,-0.015,0.003,1.016
2026/01/08 10:04:05.982,-0.017,0.003,1.017
2026/01/08 10:04:06.003,-0.018,0.006,1.016
2026/01/08 10:04:06.023,-0.016,0.002,1.015
2026/01/08 10:04:06.043,-0.017,0.004,1.013
2026/01/08 10:04:06.063,-0.016,0.003,1.013
2026/01/08 10:04:06.083,-0.017,0.003,1.018
2026/01/08 10:04:06.104,-0.016,0.004,1.018
2026/01/08 10:04:06.124,-0.02,0.005,1.016
2026/01/08 10:04:06.144,-0.017,0.004,1.016
2026/01/08 10:04:06.164,-0.015,0.005,1.018
2026/01/08 10:04:06.184,-0.017,0.003,1.016
2026/01/08 10:04:06.205,-0.019,0.002,1.015
2026/01/08 10:04:06.225,-0.018,0.007,1.016
2026/01/08 10:04:06.245,-0.016,0.004,1.02
2026/01/08 10:04:06.265,-0.015,0.008,1.019
2026/01/08 10:04:06.285,-0.02,0.006,1.018
2026/01/08 10:04:06.306,-0.013,0.005,1.015
2026/01/08 10:04:06.326,-0.02,0.003,1.015
2026/01/08 10:04:06.346,-0.018,0.005,1.02
2026/01/08 10:04:06.366,-0.018,0.006,1.015
2026/01/08 10:04:06.386,-0.015,0.004,1.019
2026/01/08 10:04:06.407,-0.016,0.006,1.014
2026/01/08 10:04:06.427,-0.017,0.004,1.014
2026/01/08 10:04:06.447,-0.018,0.006,1.016
2026/01/08 10:04:06.467,-0.018,0.005,1.011
2026/01/08 10:04:06.487,-0.015,0.005,1.014
2026/01/08 10:04:06.508,-0.019,0.005,1.016
2026/01/08 10:04:06.528,-0.018,0.006,1.014
2026/01/08 10:04:06.548,-0.021,0.006,1.014
2026/01/08 10:04:06.568,-0.017,0.002,1.015
2026/01/08 10:04:06.588,-0.016,0.005,1.014
2026/01/08 10:04:06.609,-0.016,0.005,1.018
2026/01/08 10:04:06.629,-0.015,0.006,1.014
2026/01/08 10:04:06.649,-0.014,0.005,1.016
2026/01/08 10:04:06.669,-0.016,0.004,1.016
2026/01/08 10:04:06.689,-0.016,0.002,1.016
2026/01/08 10:04:06.710,-0.014,0.004,1.018
2026/01/08 10:04:06.730,-0.017,0.001,1.013
2026/01/08 10:04:06.750,-0.018,0.004,1.014
2026/01/08 10:04:06.770,-0.019,0.003,1.015
2026/01/08 10:04:06.790,-0.017,0.003,1.014
2026/01/08 10:04:06.811,-0.019,0.006,1.02
2026/01/08 10:04:06.831,-0.017,0.005,1.014
2026/01/08 10:04:06.851,-0.019,0.001,1.015
2026/01/08 10:04:06.871,-0.018,0.005,1.014
2026/01/08 10:04:06.891,-0.015,0.002,1.018
2026/01/08 10:04:06.912,-0.02,0.004,1.014
2026/01/08 10:04:06.932,-0.018,0.001,1.017
2026/01/08 10:04:06.952,-0.015,0.003,1.016
2026/01/08 10:04:06.972,-0.015,0.007,1.015
2026/01/08 10:04:06.992,-0.018,0.003,1.015
2026/01/08 10:04:07.012,-0.012,0.001,1.017
2026/01/08 10:04:07.033,-0.015,0.004,1.016
2026/01/08 10:04:07.053,-0.017,0.003,1.015
2026/01/08 10:04:07.073,-0.018,0.003,1.016
2026/01/08 10:04:07.093,-0.019,0.004,1.014
2026/01/08 10:04:07.113,-0.018,0.004,1.02
2026/01/08 10:04:07.134,-0.016,0.001,1.016
2026/01/08 10:04:07.154,-0.016,0.006,1.018
2026/01/08 10:04:07.174,-0.015,0.002,1.019
2026/01/08 10:04:07.194,-0.018,0.005,1.019
2026/01/08 10:04:07.214,-0.016,0.003,1.018
2026/01/08 10:04:07.235,-0.016,0.004,1.017
2026/01/08 10:04:07.255,-0.018,0.007,1.016
2026/01/08 10:04:07.275,-0.018,0.003,1.013
2026/01/08 10:04:07.295,-0.017,0.003,1.014
2026/01/08 10:04:07.315,-0.018,0.002,1.015
2026/01/08 10:04:07.336,-0.015,0.003,1.013
2026/01/08 10:04:07.356,-0.018,0.007,1.013
2026/01/08 10:04:07.376,-0.015,0.002,1.016
2026/01/08 10:04:07.396,-0.02,0.003,1.02
2026/01/08 10:04:07.416,-0.014,0.006,1.011
2026/01/08 10:04:07.437,-0.018,0.004,1.017
2026/01/08 10:04:07.457,-0.018,0.007,1.016
2026/01/08 10:04:07.477,-0.019,0.005,1.016
2026/01/08 10:04:07.497,-0.017,0.006,1.016
2026/01/08 10:04:07.517,-0.014,0.005,1.016
2026/01/08 10:04:07.538,-0.017,0.001,1.021
2026/01/08 10:04:07.558,-0.016,0.002,1.013
2026/01/08 10:04:07.578,-0.015,0.004,1.017
2026/01/08 10:04:07.598,-0.014,0.003,1.018
2026/01/08 10:04:07.618,-0.017,0.003,1.015
2026/01/08 10:04:07.639,-0.018,0.003,1.016
2026/01/08 10:04:07.659,-0.017,0.004,1.012
2026/01/08 10:04:07.679,-0.016,0.003,1.013
2026/01/08 10:04:07.699,-0.017,0.003,1.017
2026/01/08 10:04:07.719,-0.016,0.002,1.018
2026/01/08 10:04:07.740,-0.017,0.002,1.018
2026/01/08 10:04:07.760,-0.017,0.004,1.016
2026/01/08 10:04:07.780,-0.017,0.006,1.013
2026/01/08 10:04:07.800,-0.018,0.002,1.018
2026/01/08 10:04:07.820,-0.017,0.002,1.017
2026/01/08 10:04:07.841,-0.018,0.005,1.017
2026/01/08 10:04:07.861,-0.021,0.003,1.016
2026/01/08 10:04:07.881,-0.013,0.003,1.016
2026/01/08 10:04:07.901,-0.017,0.004,1.016
2026/01/08 10:04:07.921,-0.017,0.004,1.014
2026/01/08 10:04:07.942,-0.02,0.006,1.016
2026/01/08 10:04:07.962,-0.016,0.005,1.014
2026/01/08 10:04:07.982,-0.02,0.003,1.013
2026/01/08 10:04:08.002,-0.018,0.003,1.017
2026/01/08 10:04:08.022,-0.018,0.005,1.013
2026/01/08 10:04:08.043,-0.018,0.004,1.016
2026/01/08 10:04:08.063,-0.012,0.002,1.016
2026/01/08 10:04:08.083,-0.017,0.001,1.017
2026/01/08 10:04:08.103,-0.017,0.004,1.017
2026/01/08 10:04:08.123,-0.018,0.006,1.017
2026/01/08 10:04:08.143,-0.02,0.003,1.013
2026/01/08 10:04:08.164,-0.018,0.001,1.014
2026/01/08 10:04:08.184,-0.019,0.007,1.018
2026/01/08 10:04:08.204,-0.017,0.007,1.016
2026/01/08 10:04:08.224,-0.015,0.0,1.013
2026/01/08 10:04:08.244,-0.013,0.002,1.014
2026/01/08 10:04:08.265,-0.016,0.002,1.017
2026/01/08 10:04:08.285,-0.017,0.005,1.017
2026/01/08 10:04:08.305,-0.017,0.001,1.018
2026/01/08 10:04:08.325,-0.018,0.005,1.016
2026/01/08 10:04:08.345,-0.016,0.005,1.014
2026/01/08 10:04:08.366,-0.017,0.003,1.011
2026/01/08 10:04:08.386,-0.018,0.004,1.015
2026/01/08 10:04:08.406,-0.019,0.002,1.016
2026/01/08 10:04:08.426,-0.016,0.003,1.018
2026/01/08 10:04:08.446,-0.018,0.003,1.016
2026/01/08 10:04:08.467,-0.017,0.005,1.016
2026/01/08 10:04:08.487,-0.017,0.005,1.015
2026/01/08 10:04:08.507,-0.021,0.004,1.017
2026/01/08 10:04:08.527,-0.017,0.005,1.019
2026/01/08 10:04:08.547,-0.017,0.006,1.016
2026/01/08 10:04:08.568,-0.017,0.006,1.016
2026/01/08 10:04:08.588,-0.015,0.005,1.02
2026/01/08 10:04:08.608,-0.017,0.0,1.016
2026/01/08 10:04:08.628,-0.014,0.0,1.016
2026/01/08 10:04:08.648,-0.015,0.003,1.015
2026/01/08 10:04:08.669,-0.02,0.009,1.013
2026/01/08 10:04:08.689,-0.018,0.002,1.018
2026/01/08 10:04:08.709,-0.016,0.004,1.015
2026/01/08 10:04:08.729,-0.018,0.003,1.016
2026/01/08 10:04:08.749,-0.017,0.004,1.016
2026/01/08 10:04:08.770,-0.018,0.005,1.015
2026/01/08 10:04:08.790,-0.017,0.004,1.018
2026/01/08 10:04:08.810,-0.018,0.008,1.016
2026/01/08 10:04:08.830,-0.019,0.003,1.017
2026/01/08 10:04:08.850,-0.018,0.003,1.016
2026/01/08 10:04:08.871,-0.019,0.004,1.015
2026/01/08 10:04:08.891,-0.018,0.004,1.015
2026/01/08 10:04:08.911,-0.019,0.004,1.019
2026/01/08 10:04:08.931,-0.017,0.009,1.016
2026/01/08 10:04:08.951,-0.017,0.007,1.015
2026/01/08 10:04:08.972,-0.016,0.006,1.017
2026/01/08 10:04:08.992,-0.021,0.006,1.019
2026/01/08 10:04:09.012,-0.017,0.006,1.018
2026/01/08 10:04:09.032,-0.015,-0.002,1.015
2026/01/08 10:04:09.052,-0.015,-0.002,1.017
2026/01/08 10:04:09.073,-0.018,0.002,1.014
2026/01/08 10:04:09.093,-0.016,0.004,1.015
2026/01/08 10:04:09.113,-0.017,0.003,1.017
2026/01/08 10:04:09.133,-0.016,0.004,1.016
2026/01/08 10:04:09.153,-0.018,0.005,1.017
2026/01/08 10:04:09.173,-0.018,0.004,1.015
2026/01/08 10:04:09.194,-0.016,0.006,1.018
2026/01/08 10:04:09.214,-0.017,0.001,1.016
2026/01/08 10:04:09.234,-0.018,0.003,1.015
2026/01/08 10:04:09.254,-0.012,0.007,1.015
2026/01/08 10:04:09.274,-0.017,0.0,1.017
2026/01/08 10:04:09.295,-0.015,0.006,1.014
2026/01/08 10:04:09.315,-0.015,0.006,1.017
2026/01/08 10:04:09.335,-0.017,0.005,1.012
2026/01/08 10:04:09.355,-0.02,0.005,1.017
2026/01/08 10:04:09.375,-0.016,0.003,1.014
2026/01/08 10:04:09.396,-0.019,0.002,1.015
2026/01/08 10:04:09.416,-0.017,0.004,1.014
2026/01/08 10:04:09.436,-0.018,0.006,1.014
2026/01/08 10:04:09.456,-0.018,0.005,1.018
2026/01/08 10:04:09.476,-0.016,0.007,1.016
2026/01/08 10:04:09.497,-0.016,0.0,1.019
2026/01/08 10:04:09.517,-0.014,0.004,1.016
2026/01/08 10:04:09.537,-0.017,0.005,1.016
2026/01/08 10:04:09.557,-0.015,0.004,1.017
2026/01/08 10:04:09.577,-0.017,0.0,1.016
2026/01/08 10:04:09.598,-0.019,0.003,1.015
2026/01/08 10:04:09.618,-0.016,0.001,1.014
2026/01/08 10:04:09.638,-0.018,0.002,1.016
2026/01/08 10:04:09.658,-0.018,0.006,1.014
2026/01/08 10:04:09.678,-0.018,0.004,1.021
2026/01/08 10:04:09.699,-0.015,0.003,1.016
2026/01/08 10:04:09.719,-0.016,0.003,1.016
2026/01/08 10:04:09.739,-0.015,0.0,1.017
2026/01/08 10:04:09.759,-0.018,0.005,1.016
2026/01/08 10:04:09.779,-0.017,0.002,1.016
2026/01/08 10:04:09.800,-0.02,0.002,1.017
2026/01/08 10:04:09.820,-0.02,-0.001,1.018
2026/01/08 10:04:09.840,-0.018,0.003,1.012
2026/01/08 10:04:09.860,-0.015,0.002,1.017
2026/01/08 10:04:09.880,-0.017,0.001,1.016
2026/01/08 10:04:09.901,-0.014,0.006,1.018
2026/01/08 10:04:09.921,-0.014,0.006,1.013
2026/01/08 10:04:09.941,-0.015,0.007,1.018
2026/01/08 10:04:09.961,-0.019,0.003,1.018
2026/01/08 10:04:09.981,-0.015,0.003,1.012
2026/01/08 10:04:10.002,-0.018,0.008,1.016
2026/01/08 10:04:10.022,-0.017,0.005,1.017
2026/01/08 10:04:10.042,-0.02,0.007,1.017
2026/01/08 10:04:10.062,-0.016,-0.001,1.013
2026/01/08 10:04:10.082,-0.015,0.002,1.014
2026/01/08 10:04:10.102,-0.016,0.004,1.018
2026/01/08 10:04:10.123,-0.019,0.006,1.015
2026/01/08 10:04:10.143,-0.017,0.002,1.017
2026/01/08 10:04:10.163,-0.012,0.005,1.017
2026/01/08 10:04:10.183,-0.016,0.003,1.014
2026/01/08 10:04:10.203,-0.018,0.003,1.016
2026/01/08 10:04:10.224,-0.016,0.004,1.016
2026/01/08 10:04:10.244,-0.018,0.0,1.014
2026/01/08 10:04:10.264,-0.017,0.002,1.015
2026/01/08 10:04:10.284,-0.02,0.008,1.016
2026/01/08 10:04:10.304,-0.017,0.004,1.017
2026/01/08 10:04:10.325,-0.019,-0.001,1.014
2026/01/08 10:04:10.345,-0.015,0.005,1.02
2026/01/08 10:04:10.365,-0.018,0.002,1.019
2026/01/08 10:04:10.385,-0.017,0.003,1.018
2026/01/08 10:04:10.405,-0.016,0.006,1.016
2026/01/08 10:04:10.426,-0.019,0.002,1.017
2026/01/08 10:04:10.446,-0.016,0.004,1.017
2026/01/08 10:04:10.466,-0.019,0.006,1.016
2026/01/08 10:04:10.486,-0.017,0.003,1.015
2026/01/08 10:04:10.506,-0.018,0.003,1.013
2026/01/08 10:04:10.527,-0.016,0.003,1.015
2026/01/08 10:04:10.547,-0.016,0.003,1.015
2026/01/08 10:04:10.567,-0.019,0.001,1.014
2026/01/08 10:04:10.587,-0.015,0.003,1.012
2026/01/08 10:04:10.607,-0.015,0.001,1.018
2026/01/08 10:04:10.628,-0.017,0.004,1.017
2026/01/08 10:04:10.648,-0.016,-0.001,1.015
2026/01/08 10:04:10.668,-0.019,0.001,1.013
2026/01/08 10:04:10.688,-0.014,0.007,1.019
2026/01/08 10:04:10.708,-0.016,0.0,1.017
2026/01/08 10:04:10.729,-0.02,0.004,1.017
2026/01/08 10:04:10.749,-0.016,0.004,1.012
2026/01/08 10:04:10.769,-0.017,0.004,1.019
2026/01/08 10:04:10.789,-0.02,0.002,1.012
2026/01/08 10:04:10.809,-0.019,0.007,1.013
2026/01/08 10:04:10.830,-0.018,0.003,1.014
2026/01/08 10:04:10.850,-0.017,0.003,1.016
2026/01/08 10:04:10.870,-0.02,0.002,1.015
2026/01/08 10:04:10.890,-0.018,0.002,1.017
2026/01/08 10:04:10.910,-0.013,-0.001,1.017
2026/01/08 10:04:10.931,-0.018,0.003,1.012
2026/01/08 10:04:10.951,-0.018,0.004,1.016
2026/01/08 10:04:10.971,-0.018,0.003,1.019
2026/01/08 10:04:10.991,-0.017,0.0,1.018
2026/01/08 10:04:11.011,-0.016,0.004,1.014
2026/01/08 10:04:11.031,-0.019,0.006,1.015
2026/01/08 10:04:11.052,-0.018,0.0,1.015
2026/01/08 10:04:11.072,-0.018,0.004,1.015
2026/01/08 10:04:11.092,-0.016,0.004,1.017
2026/01/08 10:04:11.112,-0.019,0.006,1.016
2026/01/08 10:04:11.132,-0.019,0.005,1.017
2026/01/08 10:04:11.153,-0.017,0.007,1.015
2026/01/08 10:04:11.173,-0.015,0.006,1.014
2026/01/08 10:04:11.193,-0.018,0.006,1.018
2026/01/08 10:04:11.213,-0.015,0.001,1.01
2026/01/08 10:04:11.233,-0.016,0.002,1.012
2026/01/08 10:04:11.254,-0.019,-0.002,1.015
2026/01/08 10:04:11.274,-0.017,0.001,1.015
2026/01/08 10:04:11.294,-0.018,0.004,1.017
2026/01/08 10:04:11.314,-0.019,0.002,1.012
2026/01/08 10:04:11.334,-0.016,0.005,1.019
2026/01/08 10:04:11.355,-0.017,0.005,1.016
2026/01/08 10:04:11.375,-0.019,0.004,1.017
2026/01/08 10:04:11.395,-0.02,0.005,1.013
2026/01/08 10:04:11.415,-0.02,0.005,1.012
2026/01/08 10:04:11.435,-0.016,0.004,1.017
2026/01/08 10:04:11.456,-0.02,0.001,1.013
2026/01/08 10:04:11.476,-0.018,0.003,1.017
2026/01/08 10:04:11.496,-0.018,0.001,1.012
2026/01/08 10:04:11.516,-0.017,0.002,1.014
2026/01/08 10:04:11.536,-0.014,0.004,1.017
2026/01/08 10:04:11.557,-0.016,0.001,1.015
2026/01/08 10:04:11.577,-0.018,0.006,1.015
2026/01/08 10:04:11.597,-0.018,0.008,1.014
2026/01/08 10:04:11.617,-0.018,0.006,1.017
2026/01/08 10:04:11.637,-0.016,0.001,1.015
2026/01/08 10:04:11.658,-0.016,0.003,1.015
2026/01/08 10:04:11.678,-0.017,0.0,1.019
2026/01/08 10:04:11.698,-0.019,0.006,1.017
2026/01/08 10:04:11.718,-0.018,0.006,1.016
2026/01/08 10:04:11.738,-0.017,0.006,1.02
2026/01/08 10:04:11.759,-0.016,0.007,1.018
2026/01/08 10:04:11.779,-0.018,0.007,1.014
2026/01/08 10:04:11.799,-0.018,0.003,1.019
2026/01/08 10:04:11.819,-0.018,0.004,1.016
2026/01/08 10:04:11.839,-0.016,0.003,1.016
2026/01/08 10:04:11.859,-0.015,0.007,1.018
2026/01/08 10:04:11.880,-0.017,0.004,1.015
2026/01/08 10:04:11.900,-0.016,0.007,1.017
2026/01/08 10:04:11.920,-0.019,-0.001,1.015
2026/01/08 10:04:11.940,-0.017,0.008,1.016
2026/01/08 10:04:11.960,-0.016,0.003,1.014
2026/01/08 10:04:11.981,-0.015,0.004,1.016
2026/01/08 10:04:12.001,-0.015,0.004,1.015
2026/01/08 10:04:12.021,-0.015,0.004,1.016
2026/01/08 10:04:12.041,-0.02,0.002,1.02
2026/01/08 10:04:12.061,-0.02,0.008,1.015
2026/01/08 10:04:12.082,-0.016,0.002,1.016
2026/01/08 10:04:12.102,-0.015,0.007,1.019
2026/01/08 10:04:12.122,-0.016,0.001,1.015
2026/01/08 10:04:12.142,-0.017,0.006,1.019
2026/01/08 10:04:12.162,-0.014,0.002,1.014
2026/01/08 10:04:12.183,-0.015,0.005,1.014
2026/01/08 10:04:12.203,-0.021,0.007,1.016
2026/01/08 10:04:12.223,-0.019,0.008,1.015
2026/01/08 10:04:12.243,-0.02,0.005,1.016
2026/01/08 10:04:12.263,-0.015,0.005,1.013
2026/01/08 10:04:12.284,-0.017,0.004,1.015
2026/01/08 10:04:12.304,-0.019,0.003,1.015
2026/01/08 10:04:12.324,-0.02,0.003,1.014
2026/01/08 10:04:12.344,-0.017,0.004,1.018
2026/01/08 10:04:12.364,-0.017,0.007,1.017
2026/01/08 10:04:12.385,-0.016,0.003,1.015
2026/01/08 10:04:12.405,-0.018,0.003,1.014
2026/01/08 10:04:12.425,-0.016,0.003,1.018
2026/01/08 10:04:12.445,-0.017,0.004,1.014
2026/01/08 10:04:12.465,-0.017,0.005,1.015
2026/01/08 10:04:12.486,-0.019,0.002,1.013
2026/01/08 10:04:12.506,-0.019,0.005,1.016
2026/01/08 10:04:12.526,-0.018,0.004,1.017
2026/01/08 10:04:12.546,-0.015,0.003,1.013
2026/01/08 10:04:12.566,-0.017,0.006,1.013
2026/01/08 10:04:12.587,-0.019,0.003,1.016
2026/01/08 10:04:12.607,-0.02,0.006,1.016
2026/01/08 10:04:12.627,-0.014,0.002,1.017
2026/01/08 10:04:12.647,-0.015,0.006,1.013
2026/01/08 10:04:12.667,-0.016,0.003,1.017
2026/01/08 10:04:12.687,-0.021,0.001,1.016
2026/01/08 10:04:12.708,-0.018,0.004,1.017
2026/01/08 10:04:12.728,-0.018,0.006,1.016
2026/01/08 10:04:12.748,-0.018,0.004,1.017
2026/01/08 10:04:12.768,-0.017,0.002,1.014
2026/01/08 10:04:12.788,-0.019,0.003,1.016
2026/01/08 10:04:12.809,-0.017,0.008,1.014
2026/01/08 10:04:12.829,-0.015,0.002,1.014
2026/01/08 10:04:12.849,-0.019,0.004,1.015
2026/01/08 10:04:12.869,-0.015,0.003,1.018
2026/01/08 10:04:12.889,-0.019,0.002,1.012
2026/01/08 10:04:12.910,-0.018,0.004,1.019
2026/01/08 10:04:12.930,-0.017,0.006,1.013
2026/01/08 10:04:12.950,-0.019,0.0,1.018
2026/01/08 10:04:12.970,-0.018,0.007,1.013
2026/01/08 10:04:12.990,-0.017,0.003,1.019
2026/01/08 10:04:13.011,-0.017,0.002,1.013
2026/01/08 10:04:13.031,-0.022,0.003,1.016
2026/01/08 10:04:13.051,-0.02,0.008,1.015
2026/01/08 10:04:13.071,-0.017,0.004,1.015
2026/01/08 10:04:13.091,-0.019,0.004,1.014
2026/01/08 10:04:13.112,-0.015,0.004,1.016
2026/01/08 10:04:13.132,-0.017,0.001,1.014
2026/01/08 10:04:13.152,-0.019,0.003,1.015
2026/01/08 10:04:13.172,-0.021,0.002,1.016
2026/01/08 10:04:13.192,-0.02,0.006,1.015
2026/01/08 10:04:13.213,-0.015,0.003,1.016
2026/01/08 10:04:13.233,-0.019,0.007,1.016
2026/01/08 10:04:13.253,-0.02,0.003,1.015
2026/01/08 10:04:13.273,-0.016,0.004,1.017
2026/01/08 10:04:13.293,-0.016,0.002,1.016
2026/01/08 10:04:13.314,-0.016,0.001,1.015
2026/01/08 10:04:13.334,-0.017,0.007,1.017
2026/01/08 10:04:13.354,-0.018,-0.006,1.016
2026/01/08 10:04:13.374,-0.017,0.003,1.015
2026/01/08 10:04:13.394,-0.014,0.003,1.018
2026/01/08 10:04:13.415,-0.02,0.006,1.014
2026/01/08 10:04:13.435,-0.015,0.002,1.014
2026/01/08 10:04:13.455,-0.015,0.005,1.014
2026/01/08 10:04:13.475,-0.016,0.006,1.018
2026/01/08 10:04:13.495,-0.018,-0.001,1.019
2026/01/08 10:04:13.515,-0.018,0.0,1.02
2026/01/08 10:04:13.536,-0.017,0.004,1.018
2026/01/08 10:04:13.556,-0.019,0.003,1.015
2026/01/08 10:04:13.576,-0.014,0.004,1.018
2026/01/08 10:04:13.596,-0.016,0.003,1.018
2026/01/08 10:04:13.616,-0.015,0.002,1.015
2026/01/08 10:04:13.637,-0.017,0.006,1.018
2026/01/08 10:04:13.657,-0.016,0.003,1.013
2026/01/08 10:04:13.677,-0.016,0.003,1.017
2026/01/08 10:04:13.697,-0.018,0.007,1.014
2026/01/08 10:04:13.717,-0.015,0.003,1.013
2026/01/08 10:04:13.738,-0.018,0.003,1.013
2026/01/08 10:04:13.758,-0.015,0.001,1.015
2026/01/08 10:04:13.778,-0.016,0.002,1.015
2026/01/08 10:04:13.798,-0.02,0.006,1.015
2026/01/08 10:04:13.818,-0.018,0.002,1.013
2026/01/08 10:04:13.839,-0.02,0.002,1.017
2026/01/08 10:04:13.859,-0.018,0.003,1.016
2026/01/08 10:04:13.879,-0.019,0.003,1.015
2026/01/08 10:04:13.899,-0.016,0.002,1.018
2026/01/08 10:04:13.919,-0.015,0.007,1.016
2026/01/08 10:04:13.940,-0.018,0.0,1.016
2026/01/08 10:04:13.960,-0.019,0.006,1.013
2026/01/08 10:04:13.980,-0.013,0.003,1.016
2026/01/08 10:04:14.000,-0.016,0.004,1.015
2026/01/08 10:04:14.020,-0.019,0.006,1.015
2026/01/08 10:04:14.041,-0.015,0.006,1.017
2026/01/08 10:04:14.061,-0.02,0.005,1.018
2026/01/08 10:04:14.081,-0.018,0.003,1.01
2026/01/08 10:04:14.101,-0.017,-0.001,1.015
2026/01/08 10:04:14.121,-0.018,0.002,1.016
2026/01/08 10:04:14.142,-0.015,0.005,1.012
2026/01/08 10:04:14.162,-0.015,0.004,1.019
2026/01/08 10:04:14.182,-0.02,0.002,1.018
2026/01/08 10:04:14.202,-0.018,0.005,1.012
2026/01/08 10:04:14.222,-0.02,0.003,1.011
2026/01/08 10:04:14.242,-0.018,0.005,1.017
2026/01/08 10:04:14.263,-0.015,0.005,1.015
2026/01/08 10:04:14.283,-0.017,0.004,1.017
2026/01/08 10:04:14.303,-0.019,0.001,1.016
2026/01/08 10:04:14.323,-0.015,0.005,1.02
2026/01/08 10:04:14.343,-0.017,0.002,1.014
2026/01/08 10:04:14.364,-0.02,0.005,1.017
2026/01/08 10:04:14.384,-0.021,0.002,1.015
2026/01/08 10:04:14.404,-0.018,0.004,1.015
2026/01/08 10:04:14.424,-0.017,0.001,1.015
2026/01/08 10:04:14.444,-0.017,0.004,1.016
2026/01/08 10:04:14.465,-0.018,0.002,1.013
2026/01/08 10:04:14.485,-0.015,0.005,1.02
2026/01/08 10:04:14.505,-0.018,0.003,1.016
2026/01/08 10:04:14.525,-0.02,0.0,1.015
2026/01/08 10:04:14.545,-0.018,0.004,1.016
2026/01/08 10:04:14.566,-0.018,0.0,1.016
2026/01/08 10:04:14.586,-0.014,0.006,1.016
2026/01/08 10:04:14.606,-0.017,0.004,1.014
2026/01/08 10:04:14.626,-0.018,0.002,1.013
2026/01/08 10:04:14.646,-0.015,0.007,1.014
2026/01/08 10:04:14.667,-0.018,0.006,1.013
2026/01/08 10:04:14.687,-0.018,0.0,1.015
2026/01/08 10:04:14.707,-0.017,0.007,1.015
2026/01/08 10:04:14.727,-0.017,0.004,1.016
2026/01/08 10:04:14.747,-0.021,0.005,1.017
2026/01/08 10:04:14.768,-0.02,0.005,1.017
2026/01/08 10:04:14.788,-0.017,0.004,1.017
2026/01/08 10:04:14.808,-0.018,0.003,1.014
2026/01/08 10:04:14.828,-0.017,0.006,1.014
2026/01/08 10:04:14.848,-0.016,0.006,1.018
2026/01/08 10:04:14.869,-0.018,0.003,1.017
2026/01/08 10:04:14.889,-0.019,0.0,1.018
2026/01/08 10:04:14.909,-0.016,0.004,1.014
2026/01/08 10:04:14.929,-0.017,0.005,1.015
2026/01/08 10:04:14.949,-0.015,0.002,1.019
2026/01/08 10:04:14.970,-0.017,0.006,1.016
2026/01/08 10:04:14.990,-0.016,0.007,1.011
2026/01/08 10:04:15.010,-0.016,0.005,1.015
2026/01/08 10:04:15.030,-0.017,0.001,1.016
2026/01/08 10:04:15.050,-0.015,0.006,1.018
2026/01/08 10:04:15.070,-0.013,0.006,1.016
2026/01/08 10:04:15.091,-0.016,0.006,1.013
2026/01/08 10:04:15.111,-0.02,0.004,1.014
2026/01/08 10:04:15.131,-0.017,0.006,1.014
2026/01/08 10:04:15.151,-0.017,0.003,1.019
2026/01/08 10:04:15.171,-0.015,0.006,1.017
2026/01/08 10:04:15.192,-0.017,0.005,1.016
2026/01/08 10:04:15.212,-0.016,0.002,1.017
2026/01/08 10:04:15.232,-0.018,0.006,1.02
2026/01/08 10:04:15.252,-0.018,0.003,1.016
2026/01/08 10:04:15.272,-0.019,0.006,1.015
2026/01/08 10:04:15.293,-0.015,0.002,1.014
2026/01/08 10:04:15.313,-0.016,0.004,1.019
2026/01/08 10:04:15.333,-0.015,0.007,1.019
2026/01/08 10:04:15.353,-0.019,0.008,1.016
2026/01/08 10:04:15.373,-0.015,0.002,1.019
2026/01/08 10:04:15.394,-0.016,0.003,1.012
2026/01/08 10:04:15.414,-0.02,0.006,1.014
2026/01/08 10:04:15.434,-0.017,0.004,1.015
2026/01/08 10:04:15.454,-0.018,0.007,1.015
2026/01/08 10:04:15.474,-0.017,0.004,1.013
2026/01/08 10:04:15.495,-0.018,0.003,1.013
2026/01/08 10:04:15.515,-0.015,0.004,1.018
2026/01/08 10:04:15.535,-0.017,0.003,1.017
2026/01/08 10:04:15.555,-0.017,0.001,1.015
2026/01/08 10:04:15.575,-0.016,0.007,1.016
2026/01/08 10:04:15.596,-0.019,0.004,1.017
2026/01/08 10:04:15.616,-0.02,0.004,1.015
2026/01/08 10:04:15.636,-0.018,0.0,1.015
2026/01/08 10:04:15.656,-0.018,0.007,1.019
2026/01/08 10:04:15.676,-0.015,0.003,1.015
2026/01/08 10:04:15.697,-0.02,0.009,1.017
2026/01/08 10:04:15.717,-0.017,0.007,1.013
2026/01/08 10:04:15.737,-0.015,0.004,1.018
2026/01/08 10:04:15.757,-0.016,0.005,1.022
2026/01/08 10:04:15.777,-0.02,0.005,1.014
2026/01/08 10:04:15.798,-0.014,0.003,1.015
2026/01/08 10:04:15.818,-0.018,0.001,1.014
2026/01/08 10:04:15.838,-0.018,0.007,1.015
2026/01/08 10:04:15.858,-0.017,0.005,1.016
2026/01/08 10:04:15.878,-0.02,0.005,1.017
2026/01/08 10:04:15.899,-0.015,0.002,1.016
2026/01/08 10:04:15.919,-0.016,0.007,1.016
2026/01/08 10:04:15.939,-0.018,0.007,1.017
2026/01/08 10:04:15.959,-0.017,0.004,1.014
2026/01/08 10:04:15.979,-0.016,0.005,1.016
2026/01/08 10:04:15.999,-0.018,0.005,1.016
2026/01/08 10:04:16.020,-0.016,0.009,1.016
2026/01/08 10:04:16.040,-0.017,0.005,1.016
2026/01/08 10:04:16.060,-0.018,0.003,1.016
2026/01/08 10:04:16.080,-0.018,0.003,1.015
2026/01/08 10:04:16.100,-0.015,0.001,1.017
2026/01/08 10:04:16.121,-0.017,0.005,1.017
2026/01/08 10:04:16.141,-0.02,0.007,1.018
2026/01/08 10:04:16.161,-0.016,0.001,1.016
2026/01/08 10:04:16.181,-0.019,0.006,1.017
2026/01/08 10:04:16.201,-0.017,0.003,1.017
2026/01/08 10:04:16.222,-0.017,0.002,1.018
2026/01/08 10:04:16.242,-0.019,0.004,1.015
2026/01/08 10:04:16.262,-0.017,0.001,1.016
2026/01/08 10:04:16.282,-0.019,0.002,1.015
2026/01/08 10:04:16.302,-0.017,0.007,1.015
2026/01/08 10:04:16.323,-0.017,0.006,1.016
2026/01/08 10:04:16.343,-0.016,0.001,1.015
2026/01/08 10:04:16.363,-0.017,0.005,1.012
2026/01/08 10:04:16.383,-0.021,0.005,1.014
2026/01/08 10:04:16.403,-0.015,0.008,1.014
2026/01/08 10:04:16.424,-0.018,0.007,1.009
2026/01/08 10:04:16.444,-0.016,0.001,1.015
2026/01/08 10:04:16.464,-0.018,0.002,1.014
2026/01/08 10:04:16.484,-0.016,0.003,1.014
2026/01/08 10:04:16.504,-0.018,0.003,1.015
2026/01/08 10:04:16.525,-0.018,0.004,1.015
2026/01/08 10:04:16.545,-0.02,0.003,1.017
2026/01/08 10:04:16.565,-0.017,0.001,1.01
2026/01/08 10:04:16.585,-0.018,0.004,1.015
2026/01/08 10:04:16.605,-0.019,0.003,1.015
2026/01/08 10:04:16.626,-0.021,0.002,1.013
2026/01/08 10:04:16.646,-0.014,0.003,1.016
2026/01/08 10:04:16.666,-0.016,0.004,1.018
2026/01/08 10:04:16.686,-0.018,0.001,1.013
2026/01/08 10:04:16.706,-0.019,0.003,1.017
2026/01/08 10:04:16.727,-0.014,0.003,1.015
2026/01/08 10:04:16.747,-0.018,0.004,1.015
2026/01/08 10:04:16.767,-0.015,0.006,1.015
2026/01/08 10:04:16.787,-0.022,0.003,1.014
2026/01/08 10:04:16.807,-0.018,0.002,1.015
2026/01/08 10:04:16.828,-0.018,0.002,1.012
2026/01/08 10:04:16.848,-0.014,0.004,1.019
2026/01/08 10:04:16.868,-0.021,0.002,1.014
2026/01/08 10:04:16.888,-0.015,0.0,1.015
2026/01/08 10:04:16.908,-0.013,0.007,1.016
2026/01/08 10:04:16.928,-0.015,0.007,1.016
2026/01/08 10:04:16.949,-0.02,0.006,1.014
2026/01/08 10:04:16.969,-0.017,0.004,1.019
2026/01/08 10:04:16.989,-0.018,0.004,1.017
2026/01/08 10:04:17.009,-0.018,0.003,1.012
2026/01/08 10:04:17.029,-0.017,0.003,1.017
2026/01/08 10:04:17.050,-0.018,0.003,1.017
2026/01/08 10:04:17.070,-0.017,0.001,1.014
2026/01/08 10:04:17.090,-0.017,0.003,1.015
2026/01/08 10:04:17.110,-0.014,0.002,1.015
2026/01/08 10:04:17.130,-0.014,0.004,1.017
2026/01/08 10:04:17.151,-0.014,0.004,1.016
2026/01/08 10:04:17.171,-0.019,0.0,1.013
2026/01/08 10:04:17.191,-0.016,0.002,1.017
2026/01/08 10:04:17.211,-0.02,0.005,1.015
2026/01/08 10:04:17.231,-0.014,0.003,1.015
2026/01/08 10:04:17.252,-0.017,0.002,1.017
2026/01/08 10:04:17.272,-0.02,0.001,1.016
2026/01/08 10:04:17.292,-0.018,0.006,1.015
2026/01/08 10:04:17.312,-0.017,0.007,1.017
2026/01/08 10:04:17.332,-0.016,0.006,1.015
2026/01/08 10:04:17.353,-0.016,0.005,1.014
2026/01/08 10:04:17.373,-0.017,0.003,1.017
2026/01/08 10:04:17.393,-0.019,0.001,1.013
2026/01/08 10:04:17.413,-0.017,0.004,1.017
2026/01/08 10:04:17.433,-0.017,0.002,1.016
2026/01/08 10:04:17.454,-0.018,0.007,1.015
2026/01/08 10:04:17.474,-0.017,0.004,1.018
2026/01/08 10:04:17.494,-0.017,0.005,1.018
2026/01/08 10:04:17.514,-0.019,0.003,1.013
2026/01/08 10:04:17.534,-0.018,0.003,1.013
2026/01/08 10:04:17.555,-0.018,0.004,1.015
2026/01/08 10:04:17.575,-0.017,0.003,1.015
2026/01/08 10:04:17.595,-0.017,0.004,1.015
2026/01/08 10:04:17.615,-0.015,0.008,1.017
2026/01/08 10:04:17.635,-0.016,0.004,1.014
2026/01/08 10:04:17.656,-0.016,0.0,1.013
2026/01/08 10:04:17.676,-0.019,0.003,1.016
2026/01/08 10:04:17.696,-0.019,0.003,1.017
2026/01/08 10:04:17.716,-0.015,0.003,1.014
2026/01/08 10:04:17.736,-0.019,0.004,1.014
2026/01/08 10:04:17.756,-0.014,0.003,1.016
2026/01/08 10:04:17.777,-0.018,0.003,1.014
2026/01/08 10:04:17.797,-0.018,0.001,1.017
2026/01/08 10:04:17.817,-0.017,0.003,1.016
2026/01/08 10:04:17.837,-0.018,0.006,1.011
2026/01/08 10:04:17.857,-0.018,0.002,1.018
2026/01/08 10:04:17.878,-0.021,0.003,1.02
2026/01/08 10:04:17.898,-0.016,0.004,1.014
2026/01/08 10:04:17.918,-0.018,0.002,1.017
2026/01/08 10:04:17.938,-0.018,0.002,1.014
2026/01/08 10:04:17.958,-0.016,0.004,1.018
2026/01/08 10:04:17.979,-0.016,0.004,1.016
2026/01/08 10:04:17.999,-0.017,0.006,1.017
2026/01/08 10:04:18.019,-0.014,0.002,1.012
2026/01/08 10:04:18.039,-0.018,0.003,1.014
2026/01/08 10:04:18.059,-0.018,0.0,1.015
2026/01/08 10:04:18.080,-0.02,0.005,1.017
2026/01/08 10:04:18.100,-0.019,0.004,1.014
2026/01/08 10:04:18.120,-0.018,0.005,1.019
2026/01/08 10:04:18.140,-0.015,0.001,1.013
2026/01/08 10:04:18.160,-0.017,0.0,1.017
2026/01/08 10:04:18.181,-0.016,0.007,1.013
2026/01/08 10:04:18.201,-0.017,0.003,1.015
2026/01/08 10:04:18.221,-0.019,0.0,1.016
2026/01/08 10:04:18.241,-0.02,0.007,1.015
2026/01/08 10:04:18.261,-0.015,0.006,1.015
2026/01/08 10:04:18.282,-0.015,0.003,1.017
2026/01/08 10:04:18.302,-0.018,0.003,1.018
2026/01/08 10:04:18.322,-0.018,0.005,1.018
2026/01/08 10:04:18.342,-0.016,0.004,1.015
2026/01/08 10:04:18.362,-0.018,0.003,1.015
2026/01/08 10:04:18.383,-0.017,0.003,1.016
2026/01/08 10:04:18.403,-0.017,0.004,1.017
2026/01/08 10:04:18.423,-0.017,0.003,1.017
2026/01/08 10:04:18.443,-0.02,0.006,1.016
2026/01/08 10:04:18.463,-0.017,0.002,1.016
2026/01/08 10:04:18.484,-0.016,0.003,1.018
2026/01/08 10:04:18.504,-0.018,0.003,1.015
2026/01/08 10:04:18.524,-0.016,0.0,1.018
2026/01/08 10:04:18.544,-0.014,0.005,1.015
2026/01/08 10:04:18.564,-0.019,0.0,1.019
2026/01/08 10:04:18.584,-0.015,0.004,1.015
2026/01/08 10:04:18.605,-0.015,0.006,1.017
2026/01/08 10:04:18.625,-0.016,0.003,1.018
2026/01/08 10:04:18.645,-0.015,0.004,1.015
2026/01/08 10:04:18.665,-0.016,0.006,1.017
2026/01/08 10:04:18.685,-0.018,0.007,1.017
2026/01/08 10:04:18.706,-0.015,0.003,1.02
2026/01/08 10:04:18.726,-0.015,0.008,1.017
2026/01/08 10:04:18.746,-0.018,0.005,1.014
2026/01/08 10:04:18.766,-0.018,0.003,1.015
2026/01/08 10:04:18.786,-0.014,0.0,1.014
2026/01/08 10:04:18.807,-0.017,0.006,1.015
2026/01/08 10:04:18.827,-0.015,0.004,1.018
2026/01/08 10:04:18.847,-0.015,0.002,1.017
2026/01/08 10:04:18.867,-0.017,-0.001,1.015
2026/01/08 10:04:18.887,-0.015,0.004,1.018
2026/01/08 10:04:18.908,-0.015,0.005,1.016
2026/01/08 10:04:18.928,-0.017,0.006,1.018
2026/01/08 10:04:18.948,-0.018,0.005,1.017
2026/01/08 10:04:18.968,-0.015,0.005,1.02
2026/01/08 10:04:18.988,-0.015,0.001,1.015
2026/01/08 10:04:19.009,-0.018,0.005,1.013
2026/01/08 10:04:19.029,-0.017,0.002,1.015
2026/01/08 10:04:19.049,-0.017,0.003,1.015
2026/01/08 10:04:19.069,-0.018,0.001,1.015
2026/01/08 10:04:19.089,-0.014,0.005,1.016
2026/01/08 10:04:19.110,-0.016,0.003,1.014
2026/01/08 10:04:19.130,-0.014,0.001,1.014
2026/01/08 10:04:19.150,-0.017,0.003,1.016
2026/01/08 10:04:19.170,-0.019,0.0,1.017
2026/01/08 10:04:19.190,-0.017,0.001,1.015
2026/01/08 10:04:19.211,-0.014,0.008,1.015
2026/01/08 10:04:19.231,-0.015,0.0,1.017
2026/01/08 10:04:19.251,-0.018,0.003,1.015
2026/01/08 10:04:19.271,-0.016,0.008,1.014
2026/01/08 10:04:19.291,-0.015,0.004,1.016
2026/01/08 10:04:19.312,-0.014,0.005,1.014
2026/01/08 10:04:19.332,-0.018,0.003,1.013
2026/01/08 10:04:19.352,-0.018,0.001,1.017
2026/01/08 10:04:19.372,-0.017,0.001,1.015
2026/01/08 10:04:19.392,-0.016,0.0,1.016
2026/01/08 10:04:19.412,-0.017,0.001,1.02
2026/01/08 10:04:19.433,-0.016,0.006,1.013
2026/01/08 10:04:19.453,-0.016,0.002,1.015
2026/01/08 10:04:19.473,-0.015,0.0,1.015
2026/01/08 10:04:19.493,-0.016,0.002,1.017
2026/01/08 10:04:19.513,-0.016,0.003,1.018
2026/01/08 10:04:19.534,-0.015,0.006,1.016
2026/01/08 10:04:19.554,-0.016,0.008,1.016
2026/01/08 10:04:19.574,-0.016,0.005,1.017
2026/01/08 10:04:19.594,-0.018,0.006,1.015
2026/01/08 10:04:19.614,-0.016,0.001,1.017
2026/01/08 10:04:19.635,-0.017,0.007,1.019
2026/01/08 10:04:19.655,-0.018,0.006,1.017
2026/01/08 10:04:19.675,-0.016,0.005,1.018
2026/01/08 10:04:19.695,-0.02,0.004,1.016
2026/01/08 10:04:19.715,-0.018,0.003,1.014
2026/01/08 10:04:19.736,-0.019,0.002,1.015
2026/01/08 10:04:19.756,-0.018,0.004,1.012
2026/01/08 10:04:19.776,-0.015,0.001,1.015
2026/01/08 10:04:19.796,-0.016,0.005,1.016
2026/01/08 10:04:19.816,-0.019,0.006,1.015
2026/01/08 10:04:19.837,-0.018,0.007,1.016
2026/01/08 10:04:19.857,-0.014,0.006,1.012
2026/01/08 10:04:19.877,-0.019,-0.001,1.015
2026/01/08 10:04:19.897,-0.017,0.001,1.017
2026/01/08 10:04:19.917,-0.015,0.004,1.016
2026/01/08 10:04:19.938,-0.018,0.003,1.016
2026/01/08 10:04:19.958,-0.015,0.005,1.017
2026/01/08 10:04:19.978,-0.015,0.001,1.015
2026/01/08 10:04:19.998,-0.017,0.002,1.015
2026/01/08 10:04:20.018,-0.019,0.0,1.015
2026/01/08 10:04:20.039,-0.014,0.003,1.016
2026/01/08 10:04:20.059,-0.018,0.004,1.015
2026/01/08 10:04:20.079,-0.017,0.006,1.016
2026/01/08 10:04:20.099,-0.017,0.007,1.018
2026/01/08 10:04:20.119,-0.017,0.003,1.016
2026/01/08 10:04:20.139,-0.023,0.004,1.016
2026/01/08 10:04:20.160,-0.017,0.007,1.013
2026/01/08 10:04:20.180,-0.012,0.005,1.016
2026/01/08 10:04:20.200,-0.015,0.002,1.015
2026/01/08 10:04:20.220,-0.015,0.005,1.017
2026/01/08 10:04:20.240,-0.018,0.005,1.014
2026/01/08 10:04:20.261,-0.018,0.005,1.014
2026/01/08 10:04:20.281,-0.011,0.005,1.016
2026/01/08 10:04:20.301,-0.02,0.004,1.013
2026/01/08 10:04:20.321,-0.016,0.006,1.017
2026/01/08 10:04:20.341,-0.017,0.002,1.017
2026/01/08 10:04:20.362,-0.017,0.004,1.015
2026/01/08 10:04:20.382,-0.017,0.004,1.016
2026/01/08 10:04:20.402,-0.018,0.003,1.014
2026/01/08 10:04:20.422,-0.015,0.004,1.016
2026/01/08 10:04:20.442,-0.016,0.006,1.016
2026/01/08 10:04:20.463,-0.015,0.005,1.014
2026/01/08 10:04:20.483,-0.017,0.003,1.012
2026/01/08 10:04:20.503,-0.017,0.005,1.012
2026/01/08 10:04:20.523,-0.015,0.009,1.017
2026/01/08 10:04:20.543,-0.017,0.006,1.014
2026/01/08 10:04:20.564,-0.015,0.003,1.014
2026/01/08 10:04:20.584,-0.015,0.003,1.016
2026/01/08 10:04:20.604,-0.02,0.002,1.012
2026/01/08 10:04:20.624,-0.017,0.004,1.015
2026/01/08 10:04:20.644,-0.019,0.008,1.016
2026/01/08 10:04:20.665,-0.013,0.005,1.014
2026/01/08 10:04:20.685,-0.021,0.002,1.014
2026/01/08 10:04:20.705,-0.016,0.006,1.014
2026/01/08 10:04:20.725,-0.016,0.006,1.012
2026/01/08 10:04:20.745,-0.018,0.004,1.015
2026/01/08 10:04:20.766,-0.017,0.005,1.019
2026/01/08 10:04:20.786,-0.015,0.006,1.019
2026/01/08 10:04:20.806,-0.015,0.006,1.014
2026/01/08 10:04:20.826,-0.016,0.009,1.013
2026/01/08 10:04:20.846,-0.018,0.004,1.016
2026/01/08 10:04:20.867,-0.014,0.003,1.016
2026/01/08 10:04:20.887,-0.015,0.004,1.019
2026/01/08 10:04:20.907,-0.019,0.005,1.013
2026/01/08 10:04:20.927,-0.017,0.004,1.017
2026/01/08 10:04:20.947,-0.017,0.002,1.014
2026/01/08 10:04:20.967,-0.016,0.005,1.016
2026/01/08 10:04:20.988,-0.018,0.003,1.017
2026/01/08 10:04:21.008,-0.017,0.009,1.017
2026/01/08 10:04:21.028,-0.017,0.0,1.016
2026/01/08 10:04:21.048,-0.017,0.005,1.016
2026/01/08 10:04:21.068,-0.017,0.005,1.018
2026/01/08 10:04:21.089,-0.017,0.005,1.015
2026/01/08 10:04:21.109,-0.016,0.002,1.015
2026/01/08 10:04:21.129,-0.02,0.0,1.017
2026/01/08 10:04:21.149,-0.016,0.006,1.014
2026/01/08 10:04:21.169,-0.016,0.003,1.021
2026/01/08 10:04:21.190,-0.019,0.003,1.019
2026/01/08 10:04:21.210,-0.018,0.002,1.016
2026/01/08 10:04:21.230,-0.018,-0.001,1.019
2026/01/08 10:04:21.250,-0.019,0.004,1.017
2026/01/08 10:04:21.270,-0.022,0.0,1.018
2026/01/08 10:04:21.291,-0.019,0.006,1.016
2026/01/08 10:04:21.311,-0.017,0.003,1.013
2026/01/08 10:04:21.331,-0.016,0.007,1.014
2026/01/08 10:04:21.351,-0.016,0.002,1.015
2026/01/08 10:04:21.371,-0.016,0.002,1.014
2026/01/08 10:04:21.392,-0.017,0.002,1.016
2026/01/08 10:04:21.412,-0.014,0.002,1.018
2026/01/08 10:04:21.432,-0.017,0.006,1.013
2026/01/08 10:04:21.452,-0.018,0.007,1.016
2026/01/08 10:04:21.472,-0.018,0.005,1.019
2026/01/08 10:04:21.493,-0.015,0.001,1.017
2026/01/08 10:04:21.513,-0.019,0.004,1.014
2026/01/08 10:04:21.533,-0.017,0.002,1.015
2026/01/08 10:04:21.553,-0.016,0.005,1.018
2026/01/08 10:04:21.573,-0.017,0.003,1.014
2026/01/08 10:04:21.594,-0.019,0.004,1.014
2026/01/08 10:04:21.614,-0.012,0.004,1.018
2026/01/08 10:04:21.634,-0.015,0.003,1.019
2026/01/08 10:04:21.654,-0.015,0.002,1.015
2026/01/08 10:04:21.674,-0.017,0.002,1.019
2026/01/08 10:04:21.695,-0.016,0.0,1.012
2026/01/08 10:04:21.715,-0.018,0.004,1.018
2026/01/08 10:04:21.735,-0.02,0.001,1.016
2026/01/08 10:04:21.755,-0.017,0.006,1.018
2026/01/08 10:04:21.775,-0.014,0.003,1.017
2026/01/08 10:04:21.796,-0.014,0.004,1.013
2026/01/08 10:04:21.816,-0.016,0.007,1.017
2026/01/08 10:04:21.836,-0.019,0.006,1.019
2026/01/08 10:04:21.856,-0.017,0.005,1.015
2026/01/08 10:04:21.876,-0.016,0.007,1.016
2026/01/08 10:04:21.896,-0.018,0.004,1.014
2026/01/08 10:04:21.917,-0.015,0.004,1.018
2026/01/08 10:04:21.937,-0.018,0.006,1.013
2026/01/08 10:04:21.957,-0.016,0.002,1.015
2026/01/08 10:04:21.977,-0.019,0.002,1.015
2026/01/08 10:04:21.997,-0.017,0.005,1.016
2026/01/08 10:04:22.018,-0.013,0.006,1.017
2026/01/08 10:04:22.038,-0.014,0.004,1.016
2026/01/08 10:04:22.058,-0.017,0.003,1.017
2026/01/08 10:04:22.078,-0.016,0.005,1.016
2026/01/08 10:04:22.098,-0.021,0.006,1.014
2026/01/08 10:04:22.119,-0.013,0.004,1.012
2026/01/08 10:04:22.139,-0.017,0.003,1.016
2026/01/08 10:04:22.159,-0.021,0.0,1.017
2026/01/08 10:04:22.179,-0.015,0.005,1.014
2026/01/08 10:04:22.199,-0.018,0.005,1.019
2026/01/08 10:04:22.220,-0.019,0.003,1.013
2026/01/08 10:04:22.240,-0.017,0.007,1.013
2026/01/08 10:04:22.260,-0.017,0.002,1.018
2026/01/08 10:04:22.280,-0.015,0.001,1.017
2026/01/08 10:04:22.300,-0.015,0.003,1.012
2026/01/08 10:04:22.321,-0.015,0.005,1.012
2026/01/08 10:04:22.341,-0.014,-0.001,1.013
2026/01/08 10:04:22.361,-0.019,0.003,1.016
2026/01/08 10:04:22.381,-0.02,0.005,1.015
2026/01/08 10:04:22.401,-0.015,0.001,1.017
2026/01/08 10:04:22.422,-0.017,0.007,1.016
2026/01/08 10:04:22.442,-0.015,0.003,1.014
2026/01/08 10:04:22.462,-0.018,0.005,1.013
2026/01/08 10:04:22.482,-0.016,0.005,1.013
2026/01/08 10:04:22.502,-0.018,0.006,1.018
2026/01/08 10:04:22.523,-0.02,0.009,1.017
2026/01/08 10:04:22.543,-0.02,0.006,1.014
2026/01/08 10:04:22.563,-0.015,0.001,1.018
2026/01/08 10:04:22.583,-0.015,0.004,1.014
2026/01/08 10:04:22.603,-0.015,0.002,1.02
2026/01/08 10:04:22.624,-0.017,0.003,1.012
2026/01/08 10:04:22.644,-0.016,0.0,1.019
2026/01/08 10:04:22.664,-0.015,0.002,1.014
2026/01/08 10:04:22.684,-0.013,0.003,1.018
2026/01/08 10:04:22.704,-0.018,0.005,1.013
2026/01/08 10:04:22.725,-0.016,0.008,1.019
2026/01/08 10:04:22.745,-0.016,0.005,1.012
2026/01/08 10:04:22.765,-0.015,0.001,1.015
2026/01/08 10:04:22.785,-0.016,0.002,1.017
2026/01/08 10:04:22.805,-0.017,0.003,1.013
2026/01/08 10:04:22.826,-0.015,0.005,1.016
2026/01/08 10:04:22.846,-0.013,0.004,1.016
2026/01/08 10:04:22.866,-0.015,0.003,1.015
2026/01/08 10:04:22.886,-0.017,0.003,1.012
2026/01/08 10:04:22.906,-0.015,0.003,1.015
2026/01/08 10:04:22.926,-0.02,0.004,1.019
2026/01/08 10:04:22.947,-0.016,0.005,1.018
2026/01/08 10:04:22.967,-0.016,0.002,1.016
2026/01/08 10:04:22.987,-0.019,0.006,1.018
2026/01/08 10:04:23.007,-0.016,0.005,1.015
2026/01/08 10:04:23.027,-0.013,0.008,1.015
2026/01/08 10:04:23.048,-0.014,0.005,1.016
2026/01/08 10:04:23.068,-0.016,0.004,1.016
2026/01/08 10:04:23.088,-0.016,0.006,1.015
2026/01/08 10:04:23.108,-0.016,0.001,1.016
2026/01/08 10:04:23.128,-0.02,0.004,1.016
2026/01/08 10:04:23.149,-0.014,0.006,1.017
2026/01/08 10:04:23.169,-0.016,0.004,1.013
2026/01/08 10:04:23.189,-0.016,0.005,1.017
2026/01/08 10:04:23.209,-0.016,0.003,1.012
2026/01/08 10:04:23.229,-0.013,0.005,1.016
2026/01/08 10:04:23.250,-0.015,0.005,1.016
2026/01/08 10:04:23.270,-0.017,0.004,1.017
2026/01/08 10:04:23.290,-0.015,0.005,1.016
2026/01/08 10:04:23.310,-0.014,0.003,1.016
2026/01/08 10:04:23.330,-0.017,0.003,1.014
2026/01/08 10:04:23.351,-0.015,0.002,1.017
2026/01/08 10:04:23.371,-0.018,0.003,1.015
2026/01/08 10:04:23.391,-0.017,0.005,1.016
2026/01/08 10:04:23.411,-0.014,0.004,1.016
2026/01/08 10:04:23.431,-0.018,0.004,1.012
2026/01/08 10:04:23.452,-0.02,0.005,1.023
2026/01/08 10:04:23.472,-0.017,0.004,1.015
2026/01/08 10:04:23.492,-0.016,0.005,1.016
2026/01/08 10:04:23.512,-0.018,0.004,1.016
2026/01/08 10:04:23.532,-0.019,0.0,1.016
2026/01/08 10:04:23.553,-0.015,0.003,1.016
2026/01/08 10:04:23.573,-0.015,0.002,1.016
2026/01/08 10:04:23.593,-0.019,0.006,1.015
2026/01/08 10:04:23.613,-0.019,0.005,1.012
2026/01/08 10:04:23.633,-0.018,0.003,1.016
2026/01/08 10:04:23.654,-0.017,0.006,1.016
2026/01/08 10:04:23.674,-0.016,0.006,1.015
2026/01/08 10:04:23.694,-0.018,0.007,1.017
2026/01/08 10:04:23.714,-0.019,0.002,1.017
2026/01/08 10:04:23.734,-0.018,0.001,1.014
2026/01/08 10:04:23.755,-0.014,0.003,1.014
2026/01/08 10:04:23.775,-0.014,0.001,1.015
2026/01/08 10:04:23.795,-0.017,0.003,1.018
2026/01/08 10:04:23.815,-0.017,0.005,1.014
2026/01/08 10:04:23.835,-0.016,0.003,1.017
2026/01/08 10:04:23.855,-0.015,0.007,1.017
2026/01/08 10:04:23.876,-0.017,0.002,1.013
2026/01/08 10:04:23.896,-0.016,0.002,1.016
2026/01/08 10:04:23.916,-0.02,0.003,1.015
2026/01/08 10:04:23.936,-0.015,0.002,1.014
2026/01/08 10:04:23.956,-0.018,0.001,1.015
2026/01/08 10:04:23.977,-0.015,0.003,1.017
2026/01/08 10:04:23.997,-0.016,0.003,1.017
2026/01/08 10:04:24.017,-0.013,0.003,1.018
2026/01/08 10:04:24.037,-0.016,0.004,1.014
2026/01/08 10:04:24.057,-0.015,0.0,1.015
2026/01/08 10:04:24.078,-0.015,0.003,1.015
2026/01/08 10:04:24.098,-0.019,0.004,1.016
2026/01/08 10:04:24.118,-0.016,0.004,1.014
2026/01/08 10:04:24.138,-0.015,0.004,1.015
2026/01/08 10:04:24.158,-0.018,0.006,1.015
2026/01/08 10:04:24.179,-0.014,0.003,1.016
2026/01/08 10:04:24.199,-0.015,-0.001,1.011
2026/01/08 10:04:24.219,-0.017,-0.001,1.013
2026/01/08 10:04:24.239,-0.016,0.005,1.017
2026/01/08 10:04:24.259,-0.016,0.005,1.02
2026/01/08 10:04:24.280,-0.015,0.0,1.014
2026/01/08 10:04:24.300,-0.015,0.004,1.016
2026/01/08 10:04:24.320,-0.015,0.002,1.016
2026/01/08 10:04:24.340,-0.014,0.001,1.014
2026/01/08 10:04:24.360,-0.013,0.008,1.014
2026/01/08 10:04:24.381,-0.016,0.004,1.019
2026/01/08 10:04:24.401,-0.015,0.002,1.011
2026/01/08 10:04:24.421,-0.015,0.006,1.015
2026/01/08 10:04:24.441,-0.018,0.004,1.016
2026/01/08 10:04:24.461,-0.015,0.008,1.014
2026/01/08 10:04:24.482,-0.016,0.004,1.015
2026/01/08 10:04:24.502,-0.017,0.003,1.013
2026/01/08 10:04:24.522,-0.017,0.002,1.017
2026/01/08 10:04:24.542,-0.017,0.007,1.017
2026/01/08 10:04:24.562,-0.018,0.002,1.014
2026/01/08 10:04:24.583,-0.019,0.002,1.018
2026/01/08 10:04:24.603,-0.015,0.002,1.014
2026/01/08 10:04:24.623,-0.019,0.001,1.012
2026/01/08 10:04:24.643,-0.017,0.004,1.016
2026/01/08 10:04:24.663,-0.016,0.006,1.014
2026/01/08 10:04:24.684,-0.014,0.005,1.013
2026/01/08 10:04:24.704,-0.018,0.004,1.013
2026/01/08 10:04:24.724,-0.016,0.004,1.012
2026/01/08 10:04:24.744,-0.016,0.003,1.012
2026/01/08 10:04:24.764,-0.017,0.007,1.02
2026/01/08 10:04:24.784,-0.018,0.007,1.015
2026/01/08 10:04:24.805,-0.016,0.004,1.019
2026/01/08 10:04:24.825,-0.017,0.003,1.014
2026/01/08 10:04:24.845,-0.015,0.003,1.014
2026/01/08 10:04:24.865,-0.017,0.003,1.015
2026/01/08 10:04:24.885,-0.017,0.004,1.014
2026/01/08 10:04:24.906,-0.013,0.006,1.016
2026/01/08 10:04:24.926,-0.015,0.003,1.012
2026/01/08 10:04:24.946,-0.017,0.003,1.013
2026/01/08 10:04:24.966,-0.018,0.005,1.017
2026/01/08 10:04:24.986,-0.013,0.002,1.018
2026/01/08 10:04:25.007,-0.016,0.001,1.018
2026/01/08 10:04:25.027,-0.019,0.003,1.012
2026/01/08 10:04:25.047,-0.016,0.003,1.015
2026/01/08 10:04:25.067,-0.017,0.005,1.013
2026/01/08 10:04:25.087,-0.016,0.005,1.015
2026/01/08 10:04:25.108,-0.019,0.004,1.017
2026/01/08 10:04:25.128,-0.02,0.004,1.015
2026/01/08 10:04:25.148,-0.021,0.005,1.014
2026/01/08 10:04:25.168,-0.015,0.005,1.016
2026/01/08 10:04:25.188,-0.016,0.004,1.017
2026/01/08 10:04:25.209,-0.015,0.006,1.017
2026/01/08 10:04:25.229,-0.018,0.003,1.013
2026/01/08 10:04:25.249,-0.017,0.004,1.015
2026/01/08 10:04:25.269,-0.016,0.004,1.014
2026/01/08 10:04:25.289,-0.015,0.0,1.014
2026/01/08 10:04:25.310,-0.017,0.004,1.016
2026/01/08 10:04:25.330,-0.012,0.003,1.014
2026/01/08 10:04:25.350,-0.016,0.001,1.014
2026/01/08 10:04:25.370,-0.016,0.005,1.016
2026/01/08 10:04:25.390,-0.015,0.001,1.015
2026/01/08 10:04:25.411,-0.016,0.003,1.016
2026/01/08 10:04:25.431,-0.014,0.005,1.014
2026/01/08 10:04:25.451,-0.014,0.0,1.015
2026/01/08 10:04:25.471,-0.016,0.002,1.013
2026/01/08 10:04:25.491,-0.016,0.002,1.014
2026/01/08 10:04:25.512,-0.019,0.001,1.017
2026/01/08 10:04:25.532,-0.017,0.004,1.015
2026/01/08 10:04:25.552,-0.016,0.002,1.015
2026/01/08 10:04:25.572,-0.013,0.003,1.016
2026/01/08 10:04:25.592,-0.02,0.001,1.015
2026/01/08 10:04:25.612,-0.018,0.003,1.017
2026/01/08 10:04:25.633,-0.016,0.003,1.015
2026/01/08 10:04:25.653,-0.017,0.003,1.015
2026/01/08 10:04:25.673,-0.017,0.002,1.014
2026/01/08 10:04:25.693,-0.016,0.001,1.013
2026/01/08 10:04:25.713,-0.018,0.006,1.017
2026/01/08 10:04:25.734,-0.014,0.007,1.014
2026/01/08 10:04:25.754,-0.018,0.005,1.015
2026/01/08 10:04:25.774,-0.015,0.002,1.018
2026/01/08 10:04:25.794,-0.018,0.004,1.014
2026/01/08 10:04:25.814,-0.018,0.002,1.015
2026/01/08 10:04:25.835,-0.014,0.002,1.016
2026/01/08 10:04:25.855,-0.015,0.002,1.016
2026/01/08 10:04:25.875,-0.015,-0.001,1.013
2026/01/08 10:04:25.895,-0.019,0.003,1.015
2026/01/08 10:04:25.915,-0.017,0.003,1.017
2026/01/08 10:04:25.936,-0.015,0.002,1.018
2026/01/08 10:04:25.956,-0.016,0.007,1.018
2026/01/08 10:04:25.976,-0.017,0.008,1.016
2026/01/08 10:04:25.996,-0.016,0.005,1.017
2026/01/08 10:04:26.016,-0.013,0.001,1.01
2026/01/08 10:04:26.037,-0.013,0.007,1.015
2026/01/08 10:04:26.057,-0.018,0.004,1.012
2026/01/08 10:04:26.077,-0.015,0.004,1.018
2026/01/08 10:04:26.097,-0.017,0.004,1.016
2026/01/08 10:04:26.117,-0.015,0.006,1.016
2026/01/08 10:04:26.138,-0.015,0.005,1.013
2026/01/08 10:04:26.158,-0.017,0.006,1.014
2026/01/08 10:04:26.178,-0.015,0.002,1.015
2026/01/08 10:04:26.198,-0.017,0.007,1.011
2026/01/08 10:04:26.218,-0.02,0.002,1.014
2026/01/08 10:04:26.239,-0.017,0.003,1.014
2026/01/08 10:04:26.259,-0.019,0.0,1.014
2026/01/08 10:04:26.279,-0.014,0.004,1.017
2026/01/08 10:04:26.299,-0.015,0.006,1.014
2026/01/08 10:04:26.319,-0.02,0.003,1.017
2026/01/08 10:04:26.340,-0.017,-0.001,1.014
2026/01/08 10:04:26.360,-0.018,0.006,1.015
2026/01/08 10:04:26.380,-0.015,0.007,1.017
2026/01/08 10:04:26.400,-0.014,0.004,1.016
2026/01/08 10:04:26.420,-0.015,0.004,1.013
2026/01/08 10:04:26.441,-0.017,0.004,1.018
2026/01/08 10:04:26.461,-0.015,0.004,1.012
2026/01/08 10:04:26.481,-0.015,0.003,1.016
2026/01/08 10:04:26.501,-0.019,0.002,1.013
2026/01/08 10:04:26.521,-0.02,0.005,1.019
2026/01/08 10:04:26.541,-0.017,0.006,1.015
2026/01/08 10:04:26.562,-0.019,0.0,1.017
2026/01/08 10:04:26.582,-0.016,0.004,1.016
2026/01/08 10:04:26.602,-0.014,0.007,1.018
2026/01/08 10:04:26.622,-0.019,-0.002,1.014
2026/01/08 10:04:26.642,-0.017,0.006,1.016
2026/01/08 10:04:26.663,-0.019,0.005,1.016
2026/01/08 10:04:26.683,-0.019,0.004,1.016
2026/01/08 10:04:26.703,-0.016,0.003,1.014
2026/01/08 10:04:26.723,-0.017,0.004,1.016
2026/01/08 10:04:26.743,-0.019,0.007,1.015
2026/01/08 10:04:26.764,-0.016,0.003,1.016
2026/01/08 10:04:26.784,-0.018,0.004,1.015
2026/01/08 10:04:26.804,-0.021,0.005,1.016
2026/01/08 10:04:26.824,-0.017,0.003,1.015
2026/01/08 10:04:26.844,-0.015,0.005,1.014
2026/01/08 10:04:26.865,-0.017,0.002,1.014
2026/01/08 10:04:26.885,-0.018,0.007,1.02
2026/01/08 10:04:26.905,-0.015,0.004,1.016
2026/01/08 10:04:26.925,-0.017,0.006,1.017
2026/01/08 10:04:26.945,-0.017,0.004,1.016
2026/01/08 10:04:26.966,-0.015,0.002,1.015
2026/01/08 10:04:26.986,-0.015,0.007,1.013
2026/01/08 10:04:27.006,-0.017,0.006,1.014
2026/01/08 10:04:27.026,-0.017,0.004,1.013
2026/01/08 10:04:27.046,-0.018,0.003,1.017
2026/01/08 10:04:27.067,-0.016,0.003,1.016
2026/01/08 10:04:27.087,-0.018,0.003,1.018
2026/01/08 10:04:27.107,-0.017,0.003,1.015
2026/01/08 10:04:27.127,-0.014,0.007,1.014
2026/01/08 10:04:27.147,-0.019,0.0,1.017
2026/01/08 10:04:27.168,-0.016,0.001,1.015
2026/01/08 10:04:27.188,-0.02,0.004,1.016
2026/01/08 10:04:27.208,-0.016,0.004,1.014
2026/01/08 10:04:27.228,-0.015,0.005,1.016
2026/01/08 10:04:27.248,-0.012,0.004,1.02
2026/01/08 10:04:27.269,-0.017,0.005,1.014
2026/01/08 10:04:27.289,-0.018,0.003,1.019
2026/01/08 10:04:27.309,-0.016,0.004,1.016
2026/01/08 10:04:27.329,-0.019,0.003,1.018
2026/01/08 10:04:27.349,-0.017,0.005,1.013
2026/01/08 10:04:27.370,-0.016,0.002,1.017
2026/01/08 10:04:27.390,-0.014,0.004,1.015
2026/01/08 10:04:27.410,-0.02,0.003,1.017
2026/01/08 10:04:27.430,-0.018,0.003,1.016
2026/01/08 10:04:27.450,-0.015,0.001,1.017
2026/01/08 10:04:27.470,-0.017,0.004,1.014
2026/01/08 10:04:27.491,-0.015,0.007,1.018
2026/01/08 10:04:27.511,-0.017,0.005,1.016
2026/01/08 10:04:27.531,-0.018,0.004,1.021
2026/01/08 10:04:27.551,-0.019,0.006,1.017
2026/01/08 10:04:27.571,-0.013,0.005,1.015
2026/01/08 10:04:27.592,-0.016,0.002,1.013
2026/01/08 10:04:27.612,-0.019,0.004,1.017
2026/01/08 10:04:27.632,-0.016,0.008,1.014
2026/01/08 10:04:27.652,-0.016,0.005,1.018
2026/01/08 10:04:27.672,-0.015,0.003,1.013
2026/01/08 10:04:27.693,-0.016,0.004,1.015
2026/01/08 10:04:27.713,-0.02,0.0,1.019
2026/01/08 10:04:27.733,-0.019,0.003,1.015
2026/01/08 10:04:27.753,-0.019,0.002,1.015
2026/01/08 10:04:27.773,-0.019,0.001,1.018
2026/01/08 10:04:27.794,-0.017,0.005,1.014
2026/01/08 10:04:27.814,-0.015,0.006,1.015
2026/01/08 10:04:27.834,-0.016,0.003,1.019
2026/01/08 10:04:27.854,-0.015,0.003,1.019
2026/01/08 10:04:27.874,-0.017,0.006,1.013
2026/01/08 10:04:27.895,-0.021,0.0,1.018
2026/01/08 10:04:27.915,-0.018,0.001,1.016
2026/01/08 10:04:27.935,-0.015,0.007,1.014
2026/01/08 10:04:27.955,-0.014,0.004,1.015
2026/01/08 10:04:27.975,-0.016,0.004,1.017
2026/01/08 10:04:27.996,-0.016,0.004,1.016
2026/01/08 10:04:28.016,-0.019,0.004,1.015
2026/01/08 10:04:28.036,-0.019,0.005,1.017
2026/01/08 10:04:28.056,-0.012,0.002,1.015
2026/01/08 10:04:28.076,-0.015,0.005,1.014
2026/01/08 10:04:28.097,-0.018,0.003,1.018
2026/01/08 10:04:28.117,-0.014,0.005,1.013
2026/01/08 10:04:28.137,-0.016,0.004,1.014
2026/01/08 10:04:28.157,-0.016,0.003,1.014
2026/01/08 10:04:28.177,-0.016,0.002,1.017
2026/01/08 10:04:28.198,-0.015,0.006,1.02
2026/01/08 10:04:28.218,-0.016,0.004,1.017
2026/01/08 10:04:28.238,-0.02,0.004,1.016
2026/01/08 10:04:28.258,-0.018,0.002,1.019
2026/01/08 10:04:28.278,-0.018,0.001,1.018
2026/01/08 10:04:28.299,-0.014,0.002,1.015
2026/01/08 10:04:28.319,-0.013,0.005,1.014
2026/01/08 10:04:28.339,-0.015,0.006,1.012
2026/01/08 10:04:28.359,-0.019,0.008,1.014
2026/01/08 10:04:28.379,-0.016,0.004,1.016
2026/01/08 10:04:28.400,-0.019,0.004,1.014
2026/01/08 10:04:28.420,-0.017,0.006,1.013
2026/01/08 10:04:28.440,-0.017,0.011,1.017
2026/01/08 10:04:28.460,-0.014,0.006,1.018
2026/01/08 10:04:28.480,-0.015,0.001,1.012
2026/01/08 10:04:28.500,-0.017,0.005,1.016
2026/01/08 10:04:28.521,-0.016,0.006,1.017
2026/01/08 10:04:28.541,-0.015,0.004,1.015
2026/01/08 10:04:28.561,-0.017,0.004,1.016
2026/01/08 10:04:28.581,-0.021,0.004,1.016
2026/01/08 10:04:28.601,-0.017,0.0,1.013
2026/01/08 10:04:28.622,-0.017,0.003,1.018
2026/01/08 10:04:28.642,-0.015,0.001,1.016
2026/01/08 10:04:28.662,-0.018,0.006,1.019
2026/01/08 10:04:28.682,-0.016,0.003,1.015
2026/01/08 10:04:28.702,-0.017,0.005,1.015
2026/01/08 10:04:28.723,-0.017,0.002,1.019
2026/01/08 10:04:28.743,-0.015,0.005,1.012
2026/01/08 10:04:28.763,-0.019,0.005,1.016
2026/01/08 10:04:28.783,-0.017,0.008,1.013
2026/01/08 10:04:28.803,-0.016,0.003,1.012
2026/01/08 10:04:28.824,-0.015,0.003,1.015
2026/01/08 10:04:28.844,-0.019,0.0,1.017
2026/01/08 10:04:28.864,-0.016,0.004,1.012
2026/01/08 10:04:28.884,-0.017,0.001,1.011
2026/01/08 10:04:28.904,-0.019,0.001,1.017
2026/01/08 10:04:28.925,-0.017,0.003,1.017
2026/01/08 10:04:28.945,-0.016,0.003,1.014
2026/01/08 10:04:28.965,-0.02,0.004,1.018
2026/01/08 10:04:28.985,-0.017,0.004,1.016
2026/01/08 10:04:29.005,-0.02,0.002,1.017
2026/01/08 10:04:29.026,-0.017,0.002,1.017
2026/01/08 10:04:29.046,-0.017,0.007,1.012
2026/01/08 10:04:29.066,-0.017,0.005,1.012
2026/01/08 10:04:29.086,-0.018,0.003,1.016
2026/01/08 10:04:29.106,-0.018,0.002,1.015
2026/01/08 10:04:29.127,-0.02,0.0,1.015
2026/01/08 10:04:29.147,-0.016,0.006,1.014
2026/01/08 10:04:29.167,-0.016,0.005,1.017
2026/01/08 10:04:29.187,-0.017,0.003,1.017
2026/01/08 10:04:29.207,-0.018,0.003,1.017
2026/01/08 10:04:29.228,-0.018,0.006,1.017
2026/01/08 10:04:29.248,-0.016,0.003,1.016
2026/01/08 10:04:29.268,-0.02,0.0,1.015
2026/01/08 10:04:29.288,-0.015,0.007,1.017
2026/01/08 10:04:29.308,-0.015,0.006,1.018
2026/01/08 10:04:29.329,-0.016,0.003,1.014
2026/01/08 10:04:29.349,-0.014,0.004,1.016
2026/01/08 10:04:29.369,-0.013,0.005,1.014
2026/01/08 10:04:29.389,-0.015,0.001,1.016
2026/01/08 10:04:29.409,-0.015,0.001,1.015
2026/01/08 10:04:29.430,-0.017,0.007,1.018
2026/01/08 10:04:29.450,-0.013,0.005,1.012
2026/01/08 10:04:29.470,-0.017,0.001,1.016
2026/01/08 10:04:29.490,-0.016,0.004,1.015
2026/01/08 10:04:29.510,-0.019,0.003,1.014
2026/01/08 10:04:29.530,-0.014,0.003,1.016
2026/01/08 10:04:29.551,-0.018,0.002,1.015
2026/01/08 10:04:29.571,-0.014,0.004,1.019
2026/01/08 10:04:29.591,-0.016,0.003,1.017
2026/01/08 10:04:29.611,-0.015,0.007,1.015
2026/01/08 10:04:29.631,-0.018,0.003,1.015
2026/01/08 10:04:29.652,-0.016,0.003,1.011
2026/01/08 10:04:29.672,-0.017,0.001,1.017
2026/01/08 10:04:29.692,-0.015,0.006,1.014
2026/01/08 10:04:29.712,-0.018,0.005,1.017
2026/01/08 10:04:29.732,-0.019,0.0,1.013
2026/01/08 10:04:29.753,-0.021,0.005,1.018
2026/01/08 10:04:29.773,-0.016,0.005,1.014
2026/01/08 10:04:29.793,-0.017,0.002,1.015
2026/01/08 10:04:29.813,-0.016,0.003,1.018
2026/01/08 10:04:29.833,-0.019,0.005,1.012
2026/01/08 10:04:29.854,-0.012,0.005,1.016
2026/01/08 10:04:29.874,-0.017,0.005,1.018
2026/01/08 10:04:29.894,-0.018,0.007,1.014
2026/01/08 10:04:29.914,-0.018,0.004,1.013
2026/01/08 10:04:29.934,-0.02,0.005,1.016
2026/01/08 10:04:29.955,-0.018,0.003,1.012
2026/01/08 10:04:29.975,-0.017,0.006,1.016
2026/01/08 10:04:29.995,-0.015,0.004,1.019
2026/01/08 10:04:30.015,-0.017,0.003,1.016
2026/01/08 10:04:30.035,-0.016,0.004,1.013
2026/01/08 10:04:30.056,-0.019,0.005,1.016
2026/01/08 10:04:30.076,-0.016,0.005,1.018
2026/01/08 10:04:30.096,-0.017,-0.001,1.019
2026/01/08 10:04:30.116,-0.02,0.006,1.015
2026/01/08 10:04:30.136,-0.016,0.004,1.015
2026/01/08 10:04:30.157,-0.016,0.003,1.016
2026/01/08 10:04:30.177,-0.019,0.005,1.017
2026/01/08 10:04:30.197,-0.017,0.003,1.013
2026/01/08 10:04:30.217,-0.017,0.004,1.014
2026/01/08 10:04:30.237,-0.015,0.001,1.016
2026/01/08 10:04:30.258,-0.015,0.003,1.018
2026/01/08 10:04:30.278,-0.015,0.004,1.014
2026/01/08 10:04:30.298,-0.018,0.002,1.014
2026/01/08 10:04:30.318,-0.015,-0.001,1.018
2026/01/08 10:04:30.338,-0.015,0.003,1.016
2026/01/08 10:04:30.359,-0.015,0.003,1.019
2026/01/08 10:04:30.379,-0.017,0.003,1.016
2026/01/08 10:04:30.399,-0.019,0.006,1.018
2026/01/08 10:04:30.419,-0.019,0.003,1.014
2026/01/08 10:04:30.439,-0.017,0.007,1.014
2026/01/08 10:04:30.459,-0.016,0.001,1.016
2026/01/08 10:04:30.480,-0.016,0.007,1.015
2026/01/08 10:04:30.500,-0.018,0.004,1.018
2026/01/08 10:04:30.520,-0.019,0.005,1.014
2026/01/08 10:04:30.540,-0.014,0.006,1.014
2026/01/08 10:04:30.560,-0.017,0.002,1.016
2026/01/08 10:04:30.581,-0.018,0.007,1.017
2026/01/08 10:04:30.601,-0.015,0.001,1.015
2026/01/08 10:04:30.621,-0.016,0.007,1.015
2026/01/08 10:04:30.641,-0.016,0.001,1.018
2026/01/08 10:04:30.661,-0.018,0.005,1.014
2026/01/08 10:04:30.682,-0.019,0.001,1.018
2026/01/08 10:04:30.702,-0.016,0.003,1.016
2026/01/08 10:04:30.722,-0.017,0.0,1.019
2026/01/08 10:04:30.742,-0.016,0.005,1.016
2026/01/08 10:04:30.762,-0.016,0.003,1.015
2026/01/08 10:04:30.783,-0.018,0.005,1.02
2026/01/08 10:04:30.803,-0.015,0.007,1.017
2026/01/08 10:04:30.823,-0.015,0.004,1.017
2026/01/08 10:04:30.843,-0.018,0.003,1.015
2026/01/08 10:04:30.863,-0.016,0.007,1.017
2026/01/08 10:04:30.884,-0.018,0.006,1.013
2026/01/08 10:04:30.904,-0.018,0.004,1.015
2026/01/08 10:04:30.924,-0.017,0.0,1.013
2026/01/08 10:04:30.944,-0.018,0.005,1.016
2026/01/08 10:04:30.964,-0.017,0.002,1.017
2026/01/08 10:04:30.985,-0.016,0.006,1.012
2026/01/08 10:04:31.005,-0.013,0.001,1.017
2026/01/08 10:04:31.025,-0.02,0.001,1.015
2026/01/08 10:04:31.045,-0.015,0.004,1.014
2026/01/08 10:04:31.065,-0.017,0.006,1.015
2026/01/08 10:04:31.086,-0.016,0.005,1.016
2026/01/08 10:04:31.106,-0.015,0.008,1.016
2026/01/08 10:04:31.126,-0.016,0.005,1.014
2026/01/08 10:04:31.146,-0.021,0.004,1.016
2026/01/08 10:04:31.166,-0.018,0.005,1.019
2026/01/08 10:04:31.187,-0.016,0.004,1.013
2026/01/08 10:04:31.207,-0.015,0.004,1.017
2026/01/08 10:04:31.227,-0.018,0.007,1.017
2026/01/08 10:04:31.247,-0.017,0.005,1.012
2026/01/08 10:04:31.267,-0.015,0.0,1.016
2026/01/08 10:04:31.288,-0.016,0.004,1.015
2026/01/08 10:04:31.308,-0.015,0.006,1.016
2026/01/08 10:04:31.328,-0.017,0.003,1.016
2026/01/08 10:04:31.348,-0.016,0.003,1.015
2026/01/08 10:04:31.368,-0.017,0.004,1.016
2026/01/08 10:04:31.389,-0.016,0.006,1.016
2026/01/08 10:04:31.409,-0.016,0.004,1.016
2026/01/08 10:04:31.429,-0.017,0.003,1.02
2026/01/08 10:04:31.449,-0.016,0.003,1.015
2026/01/08 10:04:31.469,-0.016,0.001,1.019
2026/01/08 10:04:31.489,-0.016,0.007,1.014
2026/01/08 10:04:31.510,-0.016,0.003,1.016
2026/01/08 10:04:31.530,-0.015,0.004,1.015
2026/01/08 10:04:31.550,-0.019,0.004,1.015
2026/01/08 10:04:31.570,-0.016,0.003,1.015
2026/01/08 10:04:31.590,-0.017,0.003,1.017
2026/01/08 10:04:31.611,-0.018,0.004,1.018
2026/01/08 10:04:31.631,-0.015,0.005,1.017
2026/01/08 10:04:31.651,-0.02,0.002,1.012
2026/01/08 10:04:31.671,-0.015,0.005,1.015
2026/01/08 10:04:31.691,-0.02,0.004,1.017
2026/01/08 10:04:31.712,-0.016,0.007,1.017
2026/01/08 10:04:31.732,-0.017,0.003,1.015
2026/01/08 10:04:31.752,-0.017,0.002,1.015
2026/01/08 10:04:31.772,-0.014,0.006,1.014
2026/01/08 10:04:31.792,-0.019,0.003,1.017
2026/01/08 10:04:31.813,-0.016,0.001,1.014
2026/01/08 10:04:31.833,-0.016,0.002,1.016
2026/01/08 10:04:31.853,-0.014,0.005,1.016
2026/01/08 10:04:31.873,-0.016,0.005,1.015
2026/01/08 10:04:31.893,-0.019,0.001,1.019
2026/01/08 10:04:31.914,-0.014,0.002,1.015
2026/01/08 10:04:31.934,-0.02,0.006,1.014
2026/01/08 10:04:31.954,-0.018,0.005,1.013
2026/01/08 10:04:31.974,-0.015,0.005,1.017
2026/01/08 10:04:31.994,-0.015,-0.002,1.017
2026/01/08 10:04:32.015,-0.017,0.0,1.013
2026/01/08 10:04:32.035,-0.015,0.005,1.014
2026/01/08 10:04:32.055,-0.017,0.007,1.016
2026/01/08 10:04:32.075,-0.014,-0.002,1.014
2026/01/08 10:04:32.095,-0.016,0.002,1.018
2026/01/08 10:04:32.116,-0.018,0.005,1.019
2026/01/08 10:04:32.136,-0.015,0.007,1.016
2026/01/08 10:04:32.156,-0.015,0.003,1.015
2026/01/08 10:04:32.176,-0.019,0.002,1.017
2026/01/08 10:04:32.196,-0.018,0.004,1.014
2026/01/08 10:04:32.217,-0.017,0.011,1.014
2026/01/08 10:04:32.237,-0.018,0.004,1.011
2026/01/08 10:04:32.257,-0.018,0.004,1.015
2026/01/08 10:04:32.277,-0.016,0.006,1.012
2026/01/08 10:04:32.297,-0.018,0.004,1.014
2026/01/08 10:04:32.318,-0.019,0.007,1.012
2026/01/08 10:04:32.338,-0.014,0.006,1.015
2026/01/08 10:04:32.358,-0.017,0.005,1.014
2026/01/08 10:04:32.378,-0.016,0.007,1.014
2026/01/08 10:04:32.398,-0.017,0.005,1.013
2026/01/08 10:04:32.419,-0.016,0.002,1.014
2026/01/08 10:04:32.439,-0.013,0.006,1.017
2026/01/08 10:04:32.459,-0.015,0.004,1.017
2026/01/08 10:04:32.479,-0.015,0.001,1.02
2026/01/08 10:04:32.499,-0.02,-0.001,1.015
2026/01/08 10:04:32.519,-0.017,0.006,1.013
2026/01/08 10:04:32.540,-0.014,0.002,1.018
2026/01/08 10:04:32.560,-0.016,0.004,1.017
2026/01/08 10:04:32.580,-0.016,0.002,1.013
2026/01/08 10:04:32.600,-0.017,0.006,1.017
2026/01/08 10:04:32.620,-0.017,0.002,1.014
2026/01/08 10:04:32.641,-0.016,0.006,1.016
2026/01/08 10:04:32.661,-0.015,0.003,1.016
2026/01/08 10:04:32.681,-0.019,0.004,1.018
2026/01/08 10:04:32.701,-0.016,0.003,1.017
2026/01/08 10:04:32.721,-0.018,0.003,1.016
2026/01/08 10:04:32.742,-0.015,0.004,1.015
2026/01/08 10:04:32.762,-0.015,0.004,1.014
2026/01/08 10:04:32.782,-0.016,0.003,1.013
2026/01/08 10:04:32.802,-0.018,0.002,1.016
2026/01/08 10:04:32.822,-0.015,0.005,1.015
2026/01/08 10:04:32.843,-0.016,0.005,1.019
2026/01/08 10:04:32.863,-0.016,0.002,1.013
2026/01/08 10:04:32.883,-0.018,0.003,1.017
2026/01/08 10:04:32.903,-0.015,0.001,1.017
2026/01/08 10:04:32.923,-0.014,0.003,1.015
2026/01/08 10:04:32.944,-0.017,0.006,1.013
2026/01/08 10:04:32.964,-0.015,0.006,1.017
2026/01/08 10:04:32.984,-0.016,0.004,1.016
2026/01/08 10:04:33.004,-0.017,0.005,1.01
2026/01/08 10:04:33.024,-0.016,0.008,1.013
2026/01/08 10:04:33.045,-0.018,0.003,1.016
2026/01/08 10:04:33.065,-0.015,0.004,1.016
2026/01/08 10:04:33.085,-0.018,0.001,1.013
2026/01/08 10:04:33.105,-0.018,0.003,1.015
2026/01/08 10:04:33.125,-0.018,0.005,1.018
2026/01/08 10:04:33.146,-0.018,0.003,1.015
2026/01/08 10:04:33.166,-0.015,0.002,1.018
2026/01/08 10:04:33.186,-0.016,0.004,1.015
2026/01/08 10:04:33.206,-0.013,0.005,1.015
2026/01/08 10:04:33.226,-0.019,0.003,1.014
2026/01/08 10:04:33.247,-0.015,0.005,1.014
2026/01/08 10:04:33.267,-0.015,0.004,1.015
2026/01/08 10:04:33.287,-0.015,0.003,1.013
2026/01/08 10:04:33.307,-0.013,0.002,1.015
2026/01/08 10:04:33.327,-0.016,0.003,1.016
2026/01/08 10:04:33.348,-0.018,0.005,1.012
2026/01/08 10:04:33.368,-0.016,0.0,1.015
2026/01/08 10:04:33.388,-0.017,0.007,1.016
2026/01/08 10:04:33.408,-0.02,0.002,1.017
2026/01/08 10:04:33.428,-0.015,0.005,1.016
2026/01/08 10:04:33.449,-0.017,0.004,1.02
2026/01/08 10:04:33.469,-0.016,0.0,1.013
2026/01/08 10:04:33.489,-0.015,0.004,1.012
2026/01/08 10:04:33.509,-0.018,0.003,1.017
2026/01/08 10:04:33.529,-0.014,0.003,1.016
2026/01/08 10:04:33.549,-0.017,0.005,1.016
2026/01/08 10:04:33.570,-0.014,0.005,1.015
2026/01/08 10:04:33.590,-0.014,0.004,1.014
2026/01/08 10:04:33.610,-0.016,0.002,1.014
2026/01/08 10:04:33.630,-0.017,0.004,1.015
2026/01/08 10:04:33.650,-0.016,0.004,1.018
2026/01/08 10:04:33.671,-0.015,0.003,1.015
2026/01/08 10:04:33.691,-0.018,0.005,1.013
2026/01/08 10:04:33.711,-0.016,0.004,1.013
2026/01/08 10:04:33.731,-0.017,0.005,1.018
2026/01/08 10:04:33.751,-0.015,0.006,1.016
2026/01/08 10:04:33.772,-0.017,0.006,1.016
2026/01/08 10:04:33.792,-0.016,0.003,1.012
2026/01/08 10:04:33.812,-0.014,-0.002,1.013
2026/01/08 10:04:33.832,-0.013,0.003,1.016
2026/01/08 10:04:33.852,-0.015,0.004,1.015
2026/01/08 10:04:33.873,-0.015,0.004,1.017
2026/01/08 10:04:33.893,-0.016,0.006,1.018
2026/01/08 10:04:33.913,-0.019,0.004,1.017
2026/01/08 10:04:33.933,-0.017,0.006,1.014
2026/01/08 10:04:33.953,-0.016,0.005,1.014
2026/01/08 10:04:33.974,-0.018,0.004,1.012
2026/01/08 10:04:33.994,-0.017,0.003,1.014
2026/01/08 10:04:34.014,-0.015,0.004,1.015
2026/01/08 10:04:34.034,-0.017,0.003,1.016
2026/01/08 10:04:34.054,-0.019,0.006,1.016
2026/01/08 10:04:34.075,-0.015,0.005,1.017
2026/01/08 10:04:34.095,-0.018,0.004,1.017
2026/01/08 10:04:34.115,-0.017,0.003,1.015
2026/01/08 10:04:34.135,-0.018,0.002,1.015
2026/01/08 10:04:34.155,-0.014,0.002,1.016
2026/01/08 10:04:34.176,-0.013,0.001,1.014
2026/01/08 10:04:34.196,-0.014,0.003,1.014
2026/01/08 10:04:34.216,-0.015,0.005,1.014
