Timestamp,ACC X,ACC Y,ACC Z
2026/01/08 10:03:22.804,0.019,-0.005,1.009
2026/01/08 10:03:22.823,0.017,0.001,1.009
2026/01/08 10:03:22.842,0.016,-0.003,1.007
2026/01/08 10:03:22.861,0.017,-0.006,1.014
2026/01/08 10:03:22.881,0.016,0.001,1.008
2026/01/08 10:03:22.900,0.013,-0.001,1.01
2026/01/08 10:03:22.919,0.018,-0.002,1.008
2026/01/08 10:03:22.938,0.018,-0.002,1.011
2026/01/08 10:03:22.958,0.018,-0.002,1.006
2026/01/08 10:03:22.977,0.017,0.001,1.01
2026/01/08 10:03:22.996,0.016,-0.008,1.009
2026/01/08 10:03:23.015,0.017,-0.002,1.006
2026/01/08 10:03:23.035,0.013,-0.002,1.008
2026/01/08 10:03:23.054,0.019,-0.005,1.011
2026/01/08 10:03:23.073,0.015,-0.003,1.007
2026/01/08 10:03:23.092,0.014,0.0,1.007
2026/01/08 10:03:23.111,0.017,-0.004,1.004
2026/01/08 10:03:23.131,0.017,-0.001,1.008
2026/01/08 10:03:23.150,0.017,-0.003,1.006
2026/01/08 10:03:23.169,0.017,-0.001,1.007
2026/01/08 10:03:23.188,0.015,-0.001,1.004
2026/01/08 10:03:23.208,0.016,-0.002,1.009
2026/01/08 10:03:23.227,0.018,0.0,1.008
2026/01/08 10:03:23.246,0.016,0.003,1.006
2026/01/08 10:03:23.265,0.015,0.002,1.012
2026/01/08 10:03:23.285,0.014,0.0,1.008
2026/01/08 10:03:23.304,0.019,0.0,1.009
2026/01/08 10:03:23.323,0.017,-0.005,1.007
2026/01/08 10:03:23.342,0.01,-0.002,1.009
2026/01/08 10:03:23.361,0.019,-0.005,1.005
2026/01/08 10:03:23.381,0.017,-0.002,1.006
2026/01/08 10:03:23.400,0.016,-0.003,1.005
2026/01/08 10:03:23.419,0.018,-0.001,1.005
2026/01/08 10:03:23.438,0.019,-0.003,1.008
2026/01/08 10:03:23.458,0.017,-0.003,1.012
2026/01/08 10:03:23.477,0.015,0.001,1.007
2026/01/08 10:03:23.496,0.016,-0.002,1.008
2026/01/08 10:03:23.515,0.017,-0.005,1.01
2026/01/08 10:03:23.535,0.017,-0.002,1.009
2026/01/08 10:03:23.554,0.018,-0.004,1.009
2026/01/08 10:03:23.573,0.019,-0.001,1.009
2026/01/08 10:03:23.592,0.016,-0.002,1.007
2026/01/08 10:03:23.611,0.017,-0.004,1.008
2026/01/08 10:03:23.631,0.016,-0.002,1.006
2026/01/08 10:03:23.650,0.02,-0.002,1.008
2026/01/08 10:03:23.669,0.017,-0.004,1.011
2026/01/08 10:03:23.688,0.018,-0.003,1.009
2026/01/08 10:03:23.708,0.019,-0.003,1.01
2026/01/08 10:03:23.727,0.014,0.003,1.007
2026/01/08 10:03:23.746,0.018,0.0,1.007
2026/01/08 10:03:23.765,0.015,-0.001,1.01
2026/01/08 10:03:23.785,0.013,0.001,1.009
2026/01/08 10:03:23.804,0.017,-0.001,1.008
2026/01/08 10:03:23.823,0.016,0.003,1.011
2026/01/08 10:03:23.842,0.015,0.0,1.01
2026/01/08 10:03:23.861,0.019,-0.001,1.008
2026/01/08 10:03:23.881,0.013,-0.002,1.008
2026/01/08 10:03:23.900,0.021,-0.003,1.008
2026/01/08 10:03:23.919,0.018,-0.002,1.01
2026/01/08 10:03:23.938,0.015,-0.002,1.012
2026/01/08 10:03:23.958,0.017,-0.002,1.004
2026/01/08 10:03:23.977,0.013,-0.001,1.01
2026/01/08 10:03:23.996,0.015,-0.003,1.01
2026/01/08 10:03:24.015,0.017,0.0,1.011
2026/01/08 10:03:24.035,0.017,-0.005,1.007
2026/01/08 10:03:24.054,0.019,-0.003,1.007
2026/01/08 10:03:24.073,0.018,0.0,1.01
2026/01/08 10:03:24.092,0.014,-0.003,1.008
2026/01/08 10:03:24.111,0.015,0.001,1.006
2026/01/08 10:03:24.131,0.014,-0.002,1.01
2026/01/08 10:03:24.150,0.016,0.003,1.008
2026/01/08 10:03:24.169,0.017,-0.004,1.01
2026/01/08 10:03:24.188,0.016,0.001,1.008
2026/01/08 10:03:24.208,0.013,0.002,1.008
2026/01/08 10:03:24.227,0.018,-0.002,1.014
2026/01/08 10:03:24.246,0.015,-0.002,1.011
2026/01/08 10:03:24.265,0.016,-0.001,1.006
2026/01/08 10:03:24.285,0.016,-0.002,1.008
2026/01/08 10:03:24.304,0.015,-0.002,1.005
2026/01/08 10:03:24.323,0.015,0.002,1.008
2026/01/08 10:03:24.342,0.014,-0.004,1.007
2026/01/08 10:03:24.361,0.018,-0.002,1.006
2026/01/08 10:03:24.381,0.018,0.001,1.008
2026/01/08 10:03:24.400,0.018,-0.004,1.008
2026/01/08 10:03:24.419,0.016,-0.003,1.007
2026/01/08 10:03:24.438,0.013,-0.002,1.007
2026/01/08 10:03:24.458,0.017,-0.004,1.009
2026/01/08 10:03:24.477,0.018,-0.003,1.01
2026/01/08 10:03:24.496,0.013,0.0,1.011
2026/01/08 10:03:24.515,0.018,-0.005,1.009
2026/01/08 10:03:24.535,0.015,0.0,1.005
2026/01/08 10:03:24.554,0.016,0.0,1.01
2026/01/08 10:03:24.573,0.017,-0.007,1.01
2026/01/08 10:03:24.592,0.018,-0.004,1.008
2026/01/08 10:03:24.611,0.017,-0.003,1.021
2026/01/08 10:03:24.631,0.018,0.001,0.999
2026/01/08 10:03:24.650,0.02,-0.004,1.01
2026/01/08 10:03:24.669,0.015,-0.003,1.01
2026/01/08 10:03:24.688,0.015,-0.002,1.008
2026/01/08 10:03:24.708,0.018,0.001,1.012
2026/01/08 10:03:24.727,0.017,0.0,1.007
2026/01/08 10:03:24.746,0.017,-0.002,1.012
2026/01/08 10:03:24.765,0.012,-0.006,1.015
2026/01/08 10:03:24.785,0.015,-0.001,1.003
2026/01/08 10:03:24.804,0.014,-0.002,1.011
2026/01/08 10:03:24.823,0.015,-0.001,1.008
2026/01/08 10:03:24.842,0.015,0.001,1.003
2026/01/08 10:03:24.861,0.015,-0.002,1.008
2026/01/08 10:03:24.881,0.014,-0.004,1.01
2026/01/08 10:03:24.900,0.015,-0.004,1.007
2026/01/08 10:03:24.919,0.015,-0.001,1.012
2026/01/08 10:03:24.938,0.017,0.002,1.006
2026/01/08 10:03:24.958,0.017,0.0,1.007
2026/01/08 10:03:24.977,0.017,-0.003,1.008
2026/01/08 10:03:24.996,0.019,0.004,1.006
2026/01/08 10:03:25.015,0.013,-0.002,1.008
2026/01/08 10:03:25.035,0.016,-0.004,1.008
2026/01/08 10:03:25.054,0.017,-0.002,1.008
2026/01/08 10:03:25.073,0.015,0.0,1.007
2026/01/08 10:03:25.093,0.02,-0.002,1.009
2026/01/08 10:03:25.113,0.02,0.0,1.008
2026/01/08 10:03:25.133,0.015,0.003,1.006
2026/01/08 10:03:25.153,0.013,0.0,1.007
2026/01/08 10:03:25.173,0.018,-0.002,1.006
2026/01/08 10:03:25.193,0.017,0.0,1.01
2026/01/08 10:03:25.212,0.017,-0.007,1.008
2026/01/08 10:03:25.232,0.02,-0.004,1.01
2026/01/08 10:03:25.252,0.015,-0.006,1.005
2026/01/08 10:03:25.272,0.021,-0.002,1.01
2026/01/08 10:03:25.292,0.02,-0.004,1.009
2026/01/08 10:03:25.312,0.014,-0.004,1.011
2026/01/08 10:03:25.332,0.013,-0.003,1.007
2026/01/08 10:03:25.352,0.016,-0.005,1.006
2026/01/08 10:03:25.372,0.019,-0.002,1.012
2026/01/08 10:03:25.392,0.016,-0.002,1.003
2026/01/08 10:03:25.412,0.017,-0.002,1.01
2026/01/08 10:03:25.432,0.016,-0.001,1.011
2026/01/08 10:03:25.451,0.019,-0.003,1.008
2026/01/08 10:03:25.471,0.018,-0.001,1.008
2026/01/08 10:03:25.491,0.012,-0.003,1.008
2026/01/08 10:03:25.511,0.017,0.0,1.01
2026/01/08 10:03:25.531,0.017,0.0,1.008
2026/01/08 10:03:25.551,0.016,-0.001,1.005
2026/01/08 10:03:25.571,0.017,-0.001,1.008
2026/01/08 10:03:25.591,0.017,-0.001,1.006
2026/01/08 10:03:25.611,0.017,-0.004,1.01
2026/01/08 10:03:25.631,0.014,-0.004,1.01
2026/01/08 10:03:25.651,0.018,0.0,1.008
2026/01/08 10:03:25.671,0.016,0.002,1.011
2026/01/08 10:03:25.690,0.016,-0.002,1.004
2026/01/08 10:03:25.710,0.02,-0.003,1.014
2026/01/08 10:03:25.730,0.018,-0.002,1.007
2026/01/08 10:03:25.750,0.014,0.0,1.012
2026/01/08 10:03:25.770,0.019,-0.002,1.008
2026/01/08 10:03:25.790,0.015,0.002,1.005
2026/01/08 10:03:25.810,0.019,0.001,1.006
2026/01/08 10:03:25.830,0.015,-0.003,1.006
2026/01/08 10:03:25.850,0.016,0.001,1.01
2026/01/08 10:03:25.870,0.016,-0.005,1.007
2026/01/08 10:03:25.890,0.016,-0.001,1.006
2026/01/08 10:03:25.910,0.02,0.0,1.007
2026/01/08 10:03:25.929,0.018,-0.002,1.003
2026/01/08 10:03:25.949,0.019,-0.005,1.012
2026/01/08 10:03:25.969,0.017,-0.003,1.005
2026/01/08 10:03:25.989,0.015,-0.001,1.009
2026/01/08 10:03:26.009,0.016,-0.002,1.01
2026/01/08 10:03:26.029,0.018,-0.003,1.009
2026/01/08 10:03:26.049,0.016,0.001,1.009
2026/01/08 10:03:26.069,0.014,-0.001,1.004
2026/01/08 10:03:26.089,0.017,0.001,1.009
2026/01/08 10:03:26.109,0.016,-0.002,1.007
2026/01/08 10:03:26.129,0.017,-0.006,1.007
2026/01/08 10:03:26.149,0.016,-0.002,1.01
2026/01/08 10:03:26.168,0.017,0.0,1.007
2026/01/08 10:03:26.188,0.015,0.001,1.007
2026/01/08 10:03:26.208,0.015,0.0,1.007
2026/01/08 10:03:26.228,0.018,0.0,1.007
2026/01/08 10:03:26.248,0.017,0.001,1.013
2026/01/08 10:03:26.268,0.018,-0.002,1.006
2026/01/08 10:03:26.288,0.013,-0.004,1.006
2026/01/08 10:03:26.308,0.015,-0.003,1.008
2026/01/08 10:03:26.328,0.017,-0.003,1.01
2026/01/08 10:03:26.348,0.019,-0.002,1.007
2026/01/08 10:03:26.368,0.016,0.0,1.009
2026/01/08 10:03:26.388,0.018,-0.002,1.008
2026/01/08 10:03:26.407,0.015,-0.002,1.008
2026/01/08 10:03:26.427,0.014,-0.001,1.006
2026/01/08 10:03:26.447,0.018,-0.001,1.008
2026/01/08 10:03:26.467,0.015,-0.001,1.009
2026/01/08 10:03:26.487,0.014,0.001,1.011
2026/01/08 10:03:26.507,0.017,0.001,1.006
2026/01/08 10:03:26.527,0.015,0.003,1.007
2026/01/08 10:03:26.547,0.016,0.001,1.01
2026/01/08 10:03:26.567,0.018,0.002,1.006
2026/01/08 10:03:26.587,0.017,-0.002,1.011
2026/01/08 10:03:26.607,0.017,0.0,1.008
2026/01/08 10:03:26.627,0.015,-0.001,1.003
2026/01/08 10:03:26.646,0.018,0.001,1.008
2026/01/08 10:03:26.666,0.016,-0.002,1.008
2026/01/08 10:03:26.686,0.013,-0.005,1.011
2026/01/08 10:03:26.706,0.016,-0.001,1.007
2026/01/08 10:03:26.726,0.013,0.0,1.01
2026/01/08 10:03:26.746,0.014,-0.004,1.012
2026/01/08 10:03:26.766,0.017,-0.002,1.003
2026/01/08 10:03:26.786,0.016,-0.002,1.008
2026/01/08 10:03:26.806,0.016,-0.004,1.007
2026/01/08 10:03:26.826,0.017,-0.002,1.004
2026/01/08 10:03:26.846,0.017,-0.001,1.009
2026/01/08 10:03:26.866,0.01,-0.004,1.007
2026/01/08 10:03:26.885,0.017,-0.002,1.009
2026/01/08 10:03:26.905,0.017,-0.007,1.01
2026/01/08 10:03:26.925,0.015,-0.002,1.008
2026/01/08 10:03:26.945,0.014,-0.001,1.008
2026/01/08 10:03:26.965,0.017,-0.002,1.007
2026/01/08 10:03:26.985,0.015,0.0,1.008
2026/01/08 10:03:27.005,0.015,0.002,1.008
2026/01/08 10:03:27.025,0.017,-0.003,1.007
2026/01/08 10:03:27.045,0.013,-0.002,1.006
2026/01/08 10:03:27.065,0.015,-0.002,1.01
2026/01/08 10:03:27.085,0.018,0.001,1.01
2026/01/08 10:03:27.105,0.016,-0.002,1.01
2026/01/08 10:03:27.124,0.017,-0.004,1.009
2026/01/08 10:03:27.144,0.018,-0.002,1.008
2026/01/08 10:03:27.164,0.017,-0.001,1.006
2026/01/08 10:03:27.184,0.018,-0.001,1.009
2026/01/08 10:03:27.204,0.015,-0.003,1.007
2026/01/08 10:03:27.224,0.017,-0.001,1.007
2026/01/08 10:03:27.244,0.014,-0.003,1.006
2026/01/08 10:03:27.264,0.012,-0.002,1.01
2026/01/08 10:03:27.284,0.019,0.003,1.008
2026/01/08 10:03:27.304,0.015,0.002,1.009
2026/01/08 10:03:27.324,0.014,0.0,1.008
2026/01/08 10:03:27.344,0.017,-0.002,1.009
2026/01/08 10:03:27.363,0.015,-0.003,1.006
2026/01/08 10:03:27.383,0.019,-0.001,1.008
2026/01/08 10:03:27.403,0.018,-0.002,1.007
2026/01/08 10:03:27.423,0.022,-0.002,1.008
2026/01/08 10:03:27.443,0.02,-0.001,1.01
2026/01/08 10:03:27.463,0.016,0.002,1.011
2026/01/08 10:03:27.483,0.015,-0.003,1.007
2026/01/08 10:03:27.503,0.017,0.001,1.008
2026/01/08 10:03:27.523,0.017,0.0,1.008
2026/01/08 10:03:27.543,0.016,0.0,1.009
2026/01/08 10:03:27.563,0.017,-0.002,1.008
2026/01/08 10:03:27.583,0.014,-0.003,1.008
2026/01/08 10:03:27.602,0.017,-0.003,1.01
2026/01/08 10:03:27.622,0.018,-0.001,1.008
2026/01/08 10:03:27.642,0.013,0.001,1.01
2026/01/08 10:03:27.662,0.014,0.001,1.008
2026/01/08 10:03:27.682,0.018,-0.004,1.008
2026/01/08 10:03:27.702,0.019,0.0,1.01
2026/01/08 10:03:27.722,0.017,-0.005,1.009
2026/01/08 10:03:27.742,0.016,-0.003,1.009
2026/01/08 10:03:27.762,0.018,-0.008,1.004
2026/01/08 10:03:27.782,0.017,-0.005,1.01
2026/01/08 10:03:27.802,0.019,-0.002,1.004
2026/01/08 10:03:27.822,0.016,-0.001,1.008
2026/01/08 10:03:27.841,0.018,-0.004,1.006
2026/01/08 10:03:27.861,0.016,-0.002,1.008
2026/01/08 10:03:27.881,0.016,-0.001,1.008
2026/01/08 10:03:27.901,0.016,-0.002,1.004
2026/01/08 10:03:27.921,0.015,-0.004,1.009
2026/01/08 10:03:27.941,0.017,-0.002,1.01
2026/01/08 10:03:27.961,0.017,-0.002,1.008
2026/01/08 10:03:27.981,0.017,-0.003,1.008
2026/01/08 10:03:28.001,0.015,-0.003,1.008
2026/01/08 10:03:28.021,0.013,-0.002,1.008
2026/01/08 10:03:28.041,0.017,-0.002,1.01
2026/01/08 10:03:28.061,0.015,-0.003,1.01
2026/01/08 10:03:28.080,0.015,-0.002,1.01
2026/01/08 10:03:28.100,0.018,0.001,1.008
2026/01/08 10:03:28.120,0.013,-0.004,1.007
2026/01/08 10:03:28.140,0.014,0.0,1.011
2026/01/08 10:03:28.160,0.016,0.002,1.008
2026/01/08 10:03:28.180,0.015,-0.003,1.011
2026/01/08 10:03:28.200,0.018,0.0,1.01
2026/01/08 10:03:28.220,0.02,0.0,1.006
2026/01/08 10:03:28.240,0.017,-0.003,1.009
2026/01/08 10:03:28.260,0.017,-0.003,1.009
2026/01/08 10:03:28.280,0.02,-0.005,1.009
2026/01/08 10:03:28.300,0.016,-0.004,1.005
2026/01/08 10:03:28.319,0.015,-0.004,1.011
2026/01/08 10:03:28.339,0.017,-0.005,1.011
2026/01/08 10:03:28.359,0.015,-0.001,1.005
2026/01/08 10:03:28.379,0.017,-0.005,1.006
2026/01/08 10:03:28.399,0.016,0.0,1.009
2026/01/08 10:03:28.419,0.016,0.001,1.005
2026/01/08 10:03:28.439,0.015,0.0,1.003
2026/01/08 10:03:28.459,0.017,-0.007,1.009
2026/01/08 10:03:28.479,0.015,-0.002,1.008
2026/01/08 10:03:28.499,0.017,-0.001,1.008
2026/01/08 10:03:28.519,0.015,-0.002,1.007
2026/01/08 10:03:28.539,0.019,-0.004,1.009
2026/01/08 10:03:28.558,0.016,-0.001,1.011
2026/01/08 10:03:28.578,0.02,0.0,1.006
2026/01/08 10:03:28.598,0.015,-0.002,1.007
2026/01/08 10:03:28.618,0.02,-0.001,1.009
2026/01/08 10:03:28.638,0.013,0.0,1.007
2026/01/08 10:03:28.658,0.019,-0.002,1.009
2026/01/08 10:03:28.678,0.015,-0.002,1.002
2026/01/08 10:03:28.698,0.017,0.002,1.006
2026/01/08 10:03:28.718,0.012,-0.003,1.009
2026/01/08 10:03:28.738,0.017,-0.003,1.005
2026/01/08 10:03:28.758,0.016,0.0,1.007
2026/01/08 10:03:28.778,0.016,-0.003,1.007
2026/01/08 10:03:28.797,0.017,-0.003,1.006
2026/01/08 10:03:28.817,0.018,-0.002,1.008
2026/01/08 10:03:28.837,0.018,-0.002,1.008
2026/01/08 10:03:28.857,0.016,-0.004,1.008
2026/01/08 10:03:28.877,0.018,-0.002,1.008
2026/01/08 10:03:28.897,0.013,0.002,1.007
2026/01/08 10:03:28.917,0.017,0.0,1.006
2026/01/08 10:03:28.937,0.019,-0.003,1.01
2026/01/08 10:03:28.957,0.018,-0.005,1.008
2026/01/08 10:03:28.977,0.017,-0.003,1.007
2026/01/08 10:03:28.997,0.017,-0.005,1.01
2026/01/08 10:03:29.017,0.022,-0.004,1.007
2026/01/08 10:03:29.036,0.018,-0.002,1.01
2026/01/08 10:03:29.056,0.015,-0.002,1.007
2026/01/08 10:03:29.076,0.017,-0.001,1.005
2026/01/08 10:03:29.096,0.017,-0.003,1.01
2026/01/08 10:03:29.116,0.017,0.003,1.005
2026/01/08 10:03:29.136,0.013,-0.001,1.002
2026/01/08 10:03:29.156,0.02,-0.002,1.007
2026/01/08 10:03:29.176,0.017,0.0,1.007
2026/01/08 10:03:29.196,0.015,-0.004,1.01
2026/01/08 10:03:29.216,0.016,0.0,1.003
2026/01/08 10:03:29.236,0.016,-0.004,1.001
2026/01/08 10:03:29.256,0.022,0.001,1.003
2026/01/08 10:03:29.275,0.016,0.0,1.007
2026/01/08 10:03:29.295,0.013,0.001,1.004
2026/01/08 10:03:29.315,0.018,0.0,1.009
2026/01/08 10:03:29.335,0.018,-0.002,1.008
2026/01/08 10:03:29.355,0.018,-0.002,1.011
2026/01/08 10:03:29.375,0.016,-0.001,1.006
2026/01/08 10:03:29.395,0.015,-0.007,1.009
2026/01/08 10:03:29.415,0.017,-0.004,1.007
2026/01/08 10:03:29.435,0.019,-0.005,1.01
2026/01/08 10:03:29.455,0.019,0.0,1.01
2026/01/08 10:03:29.475,0.016,0.0,1.007
2026/01/08 10:03:29.495,0.017,-0.002,1.008
2026/01/08 10:03:29.514,0.013,-0.003,1.006
2026/01/08 10:03:29.534,0.018,-0.001,1.008
2026/01/08 10:03:29.554,0.019,-0.003,1.007
2026/01/08 10:03:29.574,0.015,-0.001,1.003
2026/01/08 10:03:29.594,0.016,0.001,1.0
2026/01/08 10:03:29.614,0.011,0.0,1.007
2026/01/08 10:03:29.634,0.017,0.0,1.008
2026/01/08 10:03:29.654,0.016,0.0,1.003
2026/01/08 10:03:29.674,0.017,-0.001,1.009
2026/01/08 10:03:29.694,0.017,0.0,1.007
2026/01/08 10:03:29.714,0.013,-0.004,1.009
2026/01/08 10:03:29.734,0.019,-0.003,1.008
2026/01/08 10:03:29.753,0.017,0.001,1.008
2026/01/08 10:03:29.773,0.017,0.001,1.002
2026/01/08 10:03:29.793,0.016,-0.002,1.012
2026/01/08 10:03:29.813,0.015,-0.001,1.012
2026/01/08 10:03:29.833,0.018,-0.006,1.011
2026/01/08 10:03:29.853,0.016,-0.001,1.008
2026/01/08 10:03:29.873,0.015,-0.001,1.007
2026/01/08 10:03:29.893,0.017,-0.001,1.01
2026/01/08 10:03:29.913,0.013,-0.002,1.005
2026/01/08 10:03:29.933,0.018,-0.005,1.011
2026/01/08 10:03:29.953,0.017,-0.004,1.007
2026/01/08 10:03:29.973,0.017,-0.002,1.008
2026/01/08 10:03:29.993,0.018,0.002,1.007
2026/01/08 10:03:30.012,0.014,-0.002,1.002
2026/01/08 10:03:30.032,0.013,-0.003,1.009
2026/01/08 10:03:30.052,0.018,-0.001,1.011
2026/01/08 10:03:30.072,0.019,-0.001,1.008
2026/01/08 10:03:30.092,0.015,-0.003,1.009
2026/01/08 10:03:30.112,0.015,-0.002,1.01
2026/01/08 10:03:30.132,0.018,-0.002,1.004
2026/01/08 10:03:30.152,0.016,0.002,1.007
2026/01/08 10:03:30.172,0.015,-0.001,1.005
2026/01/08 10:03:30.192,0.016,-0.002,1.009
2026/01/08 10:03:30.212,0.015,-0.002,1.009
2026/01/08 10:03:30.232,0.019,-0.002,1.004
2026/01/08 10:03:30.251,0.017,-0.002,1.008
2026/01/08 10:03:30.271,0.015,0.001,1.004
2026/01/08 10:03:30.291,0.017,-0.002,1.006
2026/01/08 10:03:30.311,0.017,-0.002,1.008
2026/01/08 10:03:30.331,0.013,0.003,1.009
2026/01/08 10:03:30.351,0.012,-0.001,1.01
2026/01/08 10:03:30.371,0.014,0.001,1.006
2026/01/08 10:03:30.391,0.013,0.001,1.007
2026/01/08 10:03:30.411,0.017,-0.004,1.01
2026/01/08 10:03:30.431,0.018,-0.002,1.006
2026/01/08 10:03:30.451,0.02,-0.006,1.013
2026/01/08 10:03:30.471,0.017,-0.003,1.001
2026/01/08 10:03:30.490,0.014,-0.004,1.013
2026/01/08 10:03:30.510,0.018,-0.003,1.01
2026/01/08 10:03:30.530,0.019,0.003,1.005
2026/01/08 10:03:30.550,0.01,-0.001,1.005
2026/01/08 10:03:30.570,0.016,-0.003,1.008
2026/01/08 10:03:30.590,0.018,0.001,1.008
2026/01/08 10:03:30.610,0.014,0.001,1.006
2026/01/08 10:03:30.630,0.019,0.001,1.005
2026/01/08 10:03:30.650,0.012,-0.004,1.004
2026/01/08 10:03:30.670,0.02,-0.001,1.006
2026/01/08 10:03:30.690,0.018,-0.002,1.009
2026/01/08 10:03:30.710,0.017,-0.001,1.012
2026/01/08 10:03:30.729,0.017,0.002,1.006
2026/01/08 10:03:30.749,0.015,-0.003,1.009
2026/01/08 10:03:30.769,0.016,-0.003,1.012
2026/01/08 10:03:30.789,0.012,0.0,1.0
2026/01/08 10:03:30.809,0.016,-0.002,1.003
2026/01/08 10:03:30.829,0.017,-0.003,1.016
2026/01/08 10:03:30.849,0.014,-0.001,1.003
2026/01/08 10:03:30.869,0.019,-0.002,1.008
2026/01/08 10:03:30.889,0.014,0.0,1.006
2026/01/08 10:03:30.909,0.014,-0.001,1.01
2026/01/08 10:03:30.929,0.019,-0.002,1.005
2026/01/08 10:03:30.949,0.011,0.001,1.004
2026/01/08 10:03:30.968,0.018,0.001,1.013
2026/01/08 10:03:30.988,0.018,0.0,1.002
2026/01/08 10:03:31.008,0.016,-0.001,1.004
2026/01/08 10:03:31.028,0.014,-0.001,1.008
2026/01/08 10:03:31.048,0.018,-0.004,1.002
2026/01/08 10:03:31.068,0.019,-0.002,1.013
2026/01/08 10:03:31.088,0.017,-0.001,1.014
2026/01/08 10:03:31.108,0.019,0.0,1.006
2026/01/08 10:03:31.128,0.017,0.001,1.004
2026/01/08 10:03:31.148,0.017,0.002,1.007
2026/01/08 10:03:31.168,0.019,-0.001,1.004
2026/01/08 10:03:31.188,0.017,0.001,1.01
2026/01/08 10:03:31.207,0.014,0.001,1.014
2026/01/08 10:03:31.227,0.016,0.0,1.005
2026/01/08 10:03:31.247,0.017,-0.003,1.008
2026/01/08 10:03:31.267,0.017,-0.002,1.009
2026/01/08 10:03:31.287,0.016,-0.002,1.007
2026/01/08 10:03:31.307,0.014,-0.002,1.005
2026/01/08 10:03:31.327,0.016,0.001,1.01
2026/01/08 10:03:31.347,0.017,-0.001,1.007
2026/01/08 10:03:31.367,0.018,-0.001,1.013
2026/01/08 10:03:31.387,0.018,-0.004,1.012
2026/01/08 10:03:31.407,0.018,-0.004,1.008
2026/01/08 10:03:31.427,0.016,-0.002,1.005
2026/01/08 10:03:31.446,0.02,0.0,1.008
2026/01/08 10:03:31.466,0.015,-0.001,1.013
2026/01/08 10:03:31.486,0.016,-0.005,1.005
2026/01/08 10:03:31.506,0.013,-0.002,1.01
2026/01/08 10:03:31.526,0.018,-0.001,1.003
2026/01/08 10:03:31.546,0.019,-0.006,1.007
2026/01/08 10:03:31.566,0.018,-0.002,1.009
2026/01/08 10:03:31.586,0.018,-0.002,1.01
2026/01/08 10:03:31.606,0.019,0.0,1.005
2026/01/08 10:03:31.626,0.017,0.001,1.01
2026/01/08 10:03:31.646,0.015,-0.004,1.005
2026/01/08 10:03:31.666,0.015,-0.003,1.011
2026/01/08 10:03:31.685,0.016,-0.002,1.005
2026/01/08 10:03:31.705,0.018,0.0,1.004
2026/01/08 10:03:31.725,0.017,-0.007,1.009
2026/01/08 10:03:31.745,0.021,0.0,1.008
2026/01/08 10:03:31.765,0.012,-0.002,1.006
2026/01/08 10:03:31.785,0.02,0.0,1.007
2026/01/08 10:03:31.805,0.016,0.0,1.005
2026/01/08 10:03:31.825,0.014,-0.002,1.008
2026/01/08 10:03:31.845,0.016,-0.004,1.007
2026/01/08 10:03:31.865,0.015,-0.001,1.011
2026/01/08 10:03:31.885,0.02,-0.004,1.006
2026/01/08 10:03:31.905,0.017,-0.005,1.008
2026/01/08 10:03:31.924,0.017,0.0,1.005
2026/01/08 10:03:31.944,0.016,-0.004,1.008
2026/01/08 10:03:31.964,0.019,0.0,1.008
2026/01/08 10:03:31.984,0.017,-0.002,1.008
2026/01/08 10:03:32.004,0.015,-0.005,1.009
2026/01/08 10:03:32.024,0.017,-0.002,1.009
2026/01/08 10:03:32.044,0.017,-0.005,1.006
2026/01/08 10:03:32.064,0.019,0.0,1.01
2026/01/08 10:03:32.084,0.02,-0.003,1.011
2026/01/08 10:03:32.104,0.018,-0.001,1.009
2026/01/08 10:03:32.124,0.014,-0.003,1.01
2026/01/08 10:03:32.144,0.017,-0.003,1.008
2026/01/08 10:03:32.163,0.017,-0.001,1.009
2026/01/08 10:03:32.183,0.017,-0.001,1.004
2026/01/08 10:03:32.203,0.015,-0.001,1.007
2026/01/08 10:03:32.223,0.018,-0.001,1.004
2026/01/08 10:03:32.243,0.017,-0.001,1.008
2026/01/08 10:03:32.263,0.019,-0.003,1.006
2026/01/08 10:03:32.283,0.015,-0.002,1.005
2026/01/08 10:03:32.303,0.016,-0.003,1.007
2026/01/08 10:03:32.323,0.017,-0.005,1.013
2026/01/08 10:03:32.343,0.02,-0.001,1.001
2026/01/08 10:03:32.363,0.019,-0.002,1.005
2026/01/08 10:03:32.383,0.015,-0.004,1.012
2026/01/08 10:03:32.402,0.017,-0.007,1.013
2026/01/08 10:03:32.422,0.019,-0.003,1.001
2026/01/08 10:03:32.442,0.02,0.001,1.009
2026/01/08 10:03:32.462,0.019,-0.001,1.009
2026/01/08 10:03:32.482,0.016,-0.004,1.006
2026/01/08 10:03:32.502,0.017,-0.003,1.003
2026/01/08 10:03:32.522,0.016,0.003,1.006
2026/01/08 10:03:32.542,0.016,-0.002,1.01
2026/01/08 10:03:32.562,0.017,-0.005,1.009
2026/01/08 10:03:32.582,0.017,-0.006,1.015
2026/01/08 10:03:32.602,0.017,-0.003,1.008
2026/01/08 10:03:32.622,0.017,0.002,1.007
2026/01/08 10:03:32.641,0.015,-0.002,1.01
2026/01/08 10:03:32.661,0.015,-0.003,1.006
2026/01/08 10:03:32.681,0.02,0.003,1.004
2026/01/08 10:03:32.701,0.019,0.002,1.002
2026/01/08 10:03:32.721,0.017,-0.002,1.0
2026/01/08 10:03:32.741,0.017,-0.001,1.011
2026/01/08 10:03:32.761,0.018,-0.002,1.0
2026/01/08 10:03:32.781,0.015,0.0,1.013
2026/01/08 10:03:32.801,0.017,-0.002,1.006
2026/01/08 10:03:32.821,0.018,-0.002,1.011
2026/01/08 10:03:32.841,0.018,0.0,1.011
2026/01/08 10:03:32.861,0.018,0.0,1.012
2026/01/08 10:03:32.880,0.017,-0.004,1.006
2026/01/08 10:03:32.900,0.02,-0.003,1.011
2026/01/08 10:03:32.920,0.016,-0.004,1.005
2026/01/08 10:03:32.940,0.012,-0.005,1.011
2026/01/08 10:03:32.960,0.017,0.002,1.011
2026/01/08 10:03:32.980,0.017,-0.001,1.008
2026/01/08 10:03:33.000,0.016,-0.002,1.006
2026/01/08 10:03:33.020,0.017,-0.001,1.009
2026/01/08 10:03:33.040,0.016,-0.003,1.008
2026/01/08 10:03:33.060,0.015,-0.004,1.007
2026/01/08 10:03:33.080,0.015,-0.002,1.009
2026/01/08 10:03:33.099,0.017,0.0,1.005
2026/01/08 10:03:33.119,0.016,-0.001,1.008
2026/01/08 10:03:33.139,0.023,-0.002,1.012
2026/01/08 10:03:33.159,0.015,0.0,1.009
2026/01/08 10:03:33.179,0.017,-0.007,1.017
2026/01/08 10:03:33.199,0.017,-0.005,1.012
2026/01/08 10:03:33.219,0.015,0.001,1.008
2026/01/08 10:03:33.239,0.016,-0.001,1.008
2026/01/08 10:03:33.259,0.017,-0.006,1.007
2026/01/08 10:03:33.279,0.016,-0.004,1.007
2026/01/08 10:03:33.299,0.018,-0.002,1.008
2026/01/08 10:03:33.319,0.017,-0.004,1.007
2026/01/08 10:03:33.339,0.018,-0.003,1.005
2026/01/08 10:03:33.358,0.017,-0.003,1.008
2026/01/08 10:03:33.378,0.018,-0.002,1.008
2026/01/08 10:03:33.398,0.014,0.0,1.008
2026/01/08 10:03:33.418,0.018,-0.003,1.009
2026/01/08 10:03:33.438,0.017,-0.002,1.005
2026/01/08 10:03:33.458,0.015,-0.003,1.003
2026/01/08 10:03:33.478,0.016,-0.001,1.011
2026/01/08 10:03:33.498,0.017,-0.004,1.008
2026/01/08 10:03:33.518,0.016,-0.004,1.008
2026/01/08 10:03:33.538,0.015,-0.003,1.008
2026/01/08 10:03:33.558,0.021,0.0,1.01
2026/01/08 10:03:33.578,0.019,0.0,1.008
2026/01/08 10:03:33.597,0.017,0.0,1.011
2026/01/08 10:03:33.617,0.019,0.003,1.009
2026/01/08 10:03:33.637,0.019,-0.002,1.008
2026/01/08 10:03:33.657,0.013,-0.001,1.007
2026/01/08 10:03:33.677,0.017,-0.006,1.008
2026/01/08 10:03:33.697,0.017,-0.006,1.006
2026/01/08 10:03:33.717,0.017,-0.003,1.009
2026/01/08 10:03:33.737,0.017,0.002,1.008
2026/01/08 10:03:33.757,0.012,0.003,1.005
2026/01/08 10:03:33.777,0.018,-0.004,1.015
2026/01/08 10:03:33.797,0.015,-0.006,1.006
2026/01/08 10:03:33.817,0.016,0.001,1.012
2026/01/08 10:03:33.836,0.014,0.0,1.007
2026/01/08 10:03:33.856,0.017,-0.002,1.008
2026/01/08 10:03:33.876,0.018,-0.004,1.01
2026/01/08 10:03:33.896,0.014,-0.004,1.008
2026/01/08 10:03:33.916,0.018,-0.001,1.007
2026/01/08 10:03:33.936,0.016,0.0,1.008
2026/01/08 10:03:33.956,0.018,-0.006,1.007
2026/01/08 10:03:33.976,0.017,-0.005,1.007
2026/01/08 10:03:33.996,0.015,0.003,1.006
2026/01/08 10:03:34.016,0.013,-0.003,1.011
2026/01/08 10:03:34.036,0.021,-0.005,1.012
2026/01/08 10:03:34.056,0.019,-0.004,1.006
2026/01/08 10:03:34.075,0.016,-0.004,1.007
2026/01/08 10:03:34.095,0.016,-0.004,1.01
2026/01/08 10:03:34.115,0.017,-0.005,1.01
2026/01/08 10:03:34.135,0.014,-0.003,1.006
2026/01/08 10:03:34.155,0.018,-0.004,1.01
2026/01/08 10:03:34.175,0.015,0.0,1.006
2026/01/08 10:03:34.195,0.018,-0.003,1.008
2026/01/08 10:03:34.215,0.017,-0.002,1.004
2026/01/08 10:03:34.235,0.017,-0.002,1.01
2026/01/08 10:03:34.255,0.012,-0.002,1.009
2026/01/08 10:03:34.275,0.016,-0.002,1.007
2026/01/08 10:03:34.295,0.018,-0.001,1.012
2026/01/08 10:03:34.314,0.018,0.0,1.003
2026/01/08 10:03:34.334,0.019,0.0,1.009
2026/01/08 10:03:34.354,0.012,-0.002,1.006
2026/01/08 10:03:34.374,0.015,0.0,1.008
2026/01/08 10:03:34.394,0.017,-0.002,1.011
2026/01/08 10:03:34.414,0.015,0.001,1.004
2026/01/08 10:03:34.434,0.017,-0.001,1.01
2026/01/08 10:03:34.454,0.018,-0.004,1.013
2026/01/08 10:03:34.474,0.015,-0.002,1.005
2026/01/08 10:03:34.494,0.012,-0.004,1.005
2026/01/08 10:03:34.514,0.019,-0.004,1.008
2026/01/08 10:03:34.534,0.015,0.0,1.01
2026/01/08 10:03:34.553,0.017,-0.006,1.004
2026/01/08 10:03:34.573,0.018,-0.001,1.01
2026/01/08 10:03:34.593,0.017,-0.002,1.012
2026/01/08 10:03:34.613,0.018,-0.002,1.009
2026/01/08 10:03:34.633,0.015,-0.001,1.009
2026/01/08 10:03:34.653,0.018,-0.001,1.004
2026/01/08 10:03:34.673,0.015,-0.004,1.005
2026/01/08 10:03:34.693,0.014,-0.002,1.008
2026/01/08 10:03:34.713,0.02,-0.001,1.008
2026/01/08 10:03:34.733,0.013,-0.001,1.01
2026/01/08 10:03:34.753,0.014,0.0,1.008
2026/01/08 10:03:34.773,0.016,-0.002,1.003
2026/01/08 10:03:34.792,0.015,0.004,1.011
2026/01/08 10:03:34.812,0.017,0.0,1.006
2026/01/08 10:03:34.832,0.015,-0.001,1.007
2026/01/08 10:03:34.852,0.019,0.001,1.007
2026/01/08 10:03:34.872,0.015,-0.003,1.006
2026/01/08 10:03:34.892,0.014,0.001,1.01
2026/01/08 10:03:34.912,0.018,-0.001,1.009
2026/01/08 10:03:34.932,0.018,-0.001,1.004
2026/01/08 10:03:34.952,0.016,-0.004,1.004
2026/01/08 10:03:34.972,0.019,0.001,1.004
2026/01/08 10:03:34.992,0.013,0.001,1.008
2026/01/08 10:03:35.012,0.015,-0.003,1.008
2026/01/08 10:03:35.031,0.02,0.0,1.004
2026/01/08 10:03:35.051,0.018,-0.006,1.009
2026/01/08 10:03:35.071,0.019,-0.002,1.005
2026/01/08 10:03:35.091,0.013,-0.005,1.008
2026/01/08 10:03:35.111,0.016,0.003,1.007
2026/01/08 10:03:35.131,0.014,-0.005,1.008
2026/01/08 10:03:35.151,0.017,-0.003,1.007
2026/01/08 10:03:35.171,0.015,-0.001,1.005
2026/01/08 10:03:35.191,0.017,-0.002,1.009
2026/01/08 10:03:35.211,0.019,-0.004,1.008
2026/01/08 10:03:35.231,0.02,-0.002,1.008
2026/01/08 10:03:35.251,0.019,-0.002,1.006
2026/01/08 10:03:35.270,0.014,-0.005,1.009
2026/01/08 10:03:35.290,0.019,0.001,1.006
2026/01/08 10:03:35.310,0.016,-0.002,1.008
2026/01/08 10:03:35.330,0.014,0.001,1.007
2026/01/08 10:03:35.350,0.016,-0.002,1.008
2026/01/08 10:03:35.370,0.019,-0.001,1.008
2026/01/08 10:03:35.390,0.016,-0.002,1.008
2026/01/08 10:03:35.410,0.014,-0.002,1.006
2026/01/08 10:03:35.430,0.02,-0.002,1.008
2026/01/08 10:03:35.450,0.018,-0.001,1.01
2026/01/08 10:03:35.470,0.019,0.0,1.007
2026/01/08 10:03:35.490,0.015,-0.001,1.007
2026/01/08 10:03:35.510,0.017,-0.002,1.01
2026/01/08 10:03:35.529,0.019,-0.002,1.005
2026/01/08 10:03:35.549,0.017,-0.003,1.007
2026/01/08 10:03:35.569,0.018,-0.002,1.007
2026/01/08 10:03:35.589,0.015,-0.005,1.01
2026/01/08 10:03:35.609,0.019,0.0,1.006
2026/01/08 10:03:35.629,0.017,-0.006,1.006
2026/01/08 10:03:35.649,0.018,-0.004,1.006
2026/01/08 10:03:35.669,0.016,-0.001,1.007
2026/01/08 10:03:35.689,0.015,-0.002,1.007
2026/01/08 10:03:35.709,0.015,-0.008,1.008
2026/01/08 10:03:35.729,0.012,-0.004,1.011
2026/01/08 10:03:35.749,0.017,-0.003,1.009
2026/01/08 10:03:35.768,0.016,0.0,1.011
2026/01/08 10:03:35.788,0.017,-0.001,1.007
2026/01/08 10:03:35.808,0.014,-0.006,1.004
2026/01/08 10:03:35.828,0.016,0.001,1.008
2026/01/08 10:03:35.848,0.016,0.001,1.008
2026/01/08 10:03:35.868,0.019,0.001,1.004
2026/01/08 10:03:35.888,0.02,-0.002,1.01
2026/01/08 10:03:35.908,0.014,-0.004,1.008
2026/01/08 10:03:35.928,0.02,0.001,1.006
2026/01/08 10:03:35.948,0.014,-0.002,1.007
2026/01/08 10:03:35.968,0.017,-0.003,1.008
2026/01/08 10:03:35.988,0.017,-0.002,1.008
2026/01/08 10:03:36.007,0.012,0.0,1.005
2026/01/08 10:03:36.027,0.017,-0.002,1.011
2026/01/08 10:03:36.047,0.016,-0.002,1.008
2026/01/08 10:03:36.067,0.015,-0.003,1.007
2026/01/08 10:03:36.087,0.018,-0.003,1.012
2026/01/08 10:03:36.107,0.016,0.0,1.009
2026/01/08 10:03:36.127,0.017,-0.002,1.008
2026/01/08 10:03:36.147,0.015,-0.004,1.008
2026/01/08 10:03:36.167,0.022,-0.002,1.006
2026/01/08 10:03:36.187,0.017,-0.003,1.011
2026/01/08 10:03:36.207,0.018,-0.001,1.009
2026/01/08 10:03:36.227,0.021,0.001,1.008
2026/01/08 10:03:36.246,0.012,-0.002,1.006
2026/01/08 10:03:36.266,0.018,0.0,1.007
2026/01/08 10:03:36.286,0.017,-0.005,1.007
2026/01/08 10:03:36.306,0.015,-0.003,1.007
2026/01/08 10:03:36.326,0.017,-0.002,1.008
2026/01/08 10:03:36.346,0.018,-0.005,1.006
2026/01/08 10:03:36.366,0.014,-0.005,1.009
2026/01/08 10:03:36.386,0.014,-0.005,1.007
2026/01/08 10:03:36.406,0.018,-0.002,1.008
2026/01/08 10:03:36.426,0.016,-0.002,1.009
2026/01/08 10:03:36.446,0.017,0.001,1.008
2026/01/08 10:03:36.466,0.018,0.0,1.008
2026/01/08 10:03:36.485,0.012,-0.001,1.008
2026/01/08 10:03:36.505,0.016,-0.002,1.007
2026/01/08 10:03:36.525,0.016,-0.006,1.005
2026/01/08 10:03:36.545,0.019,-0.001,1.008
2026/01/08 10:03:36.565,0.017,-0.006,1.01
2026/01/08 10:03:36.585,0.014,0.003,1.011
2026/01/08 10:03:36.605,0.017,-0.002,1.007
2026/01/08 10:03:36.625,0.015,-0.001,1.007
2026/01/08 10:03:36.645,0.017,-0.007,1.007
2026/01/08 10:03:36.665,0.015,0.0,1.008
2026/01/08 10:03:36.685,0.014,-0.005,1.009
2026/01/08 10:03:36.705,0.012,-0.003,1.007
2026/01/08 10:03:36.724,0.018,-0.004,1.009
2026/01/08 10:03:36.744,0.017,-0.004,1.008
2026/01/08 10:03:36.764,0.021,-0.001,1.008
2026/01/08 10:03:36.784,0.017,0.002,1.003
2026/01/08 10:03:36.804,0.017,-0.002,1.007
2026/01/08 10:03:36.824,0.016,-0.001,1.008
2026/01/08 10:03:36.844,0.017,-0.005,1.007
2026/01/08 10:03:36.864,0.016,-0.005,1.006
2026/01/08 10:03:36.884,0.017,0.002,1.008
2026/01/08 10:03:36.904,0.017,-0.004,1.009
2026/01/08 10:03:36.924,0.017,-0.002,1.006
2026/01/08 10:03:36.944,0.018,0.003,1.008
2026/01/08 10:03:36.963,0.017,-0.002,1.007
2026/01/08 10:03:36.983,0.015,0.0,1.008
2026/01/08 10:03:37.003,0.017,0.003,1.009
2026/01/08 10:03:37.023,0.019,-0.003,1.01
2026/01/08 10:03:37.043,0.015,-0.005,1.004
2026/01/08 10:03:37.063,0.014,-0.003,1.008
2026/01/08 10:03:37.083,0.017,-0.002,1.009
2026/01/08 10:03:37.103,0.016,-0.002,1.007
2026/01/08 10:03:37.123,0.014,-0.002,1.007
2026/01/08 10:03:37.143,0.019,-0.001,1.005
2026/01/08 10:03:37.163,0.017,-0.002,1.006
2026/01/08 10:03:37.183,0.021,-0.004,1.007
2026/01/08 10:03:37.202,0.015,-0.002,1.004
2026/01/08 10:03:37.222,0.016,-0.004,1.011
2026/01/08 10:03:37.242,0.018,-0.002,1.008
2026/01/08 10:03:37.262,0.014,-0.003,1.007
2026/01/08 10:03:37.282,0.018,-0.002,1.007
2026/01/08 10:03:37.302,0.017,-0.001,1.007
2026/01/08 10:03:37.322,0.017,0.0,1.007
2026/01/08 10:03:37.342,0.016,-0.002,1.005
2026/01/08 10:03:37.362,0.016,-0.003,1.009
2026/01/08 10:03:37.382,0.016,-0.003,1.007
2026/01/08 10:03:37.402,0.014,-0.004,1.005
2026/01/08 10:03:37.422,0.016,-0.002,1.01
2026/01/08 10:03:37.441,0.018,-0.005,1.007
2026/01/08 10:03:37.461,0.017,0.0,1.005
2026/01/08 10:03:37.481,0.017,-0.003,1.008
2026/01/08 10:03:37.501,0.017,-0.002,1.009
2026/01/08 10:03:37.521,0.014,-0.002,1.007
2026/01/08 10:03:37.541,0.019,-0.004,1.01
2026/01/08 10:03:37.561,0.015,-0.003,1.005
2026/01/08 10:03:37.581,0.021,-0.005,1.009
2026/01/08 10:03:37.601,0.014,-0.002,1.01
2026/01/08 10:03:37.621,0.014,-0.002,1.007
2026/01/08 10:03:37.641,0.017,-0.002,1.007
2026/01/08 10:03:37.661,0.017,-0.004,1.009
2026/01/08 10:03:37.680,0.014,-0.001,1.012
2026/01/08 10:03:37.700,0.017,-0.002,1.009
2026/01/08 10:03:37.720,0.014,-0.002,1.01
2026/01/08 10:03:37.740,0.02,-0.001,1.008
2026/01/08 10:03:37.760,0.017,0.001,1.01
2026/01/08 10:03:37.780,0.016,-0.003,1.004
2026/01/08 10:03:37.800,0.017,0.001,1.004
2026/01/08 10:03:37.820,0.017,-0.003,1.008
2026/01/08 10:03:37.840,0.017,-0.003,1.009
2026/01/08 10:03:37.860,0.016,0.001,1.006
2026/01/08 10:03:37.880,0.018,-0.001,1.008
2026/01/08 10:03:37.900,0.017,-0.001,1.008
2026/01/08 10:03:37.919,0.017,-0.004,1.005
2026/01/08 10:03:37.939,0.017,-0.001,1.007
2026/01/08 10:03:37.959,0.017,-0.003,1.009
2026/01/08 10:03:37.979,0.016,0.0,1.012
2026/01/08 10:03:37.999,0.013,-0.001,1.008
2026/01/08 10:03:38.019,0.016,0.0,1.006
2026/01/08 10:03:38.039,0.015,-0.002,1.009
2026/01/08 10:03:38.059,0.018,-0.002,1.004
2026/01/08 10:03:38.079,0.013,0.001,1.008
2026/01/08 10:03:38.099,0.02,-0.002,1.007
2026/01/08 10:03:38.119,0.019,-0.003,1.006
2026/01/08 10:03:38.139,0.014,0.0,1.008
2026/01/08 10:03:38.158,0.014,-0.001,1.006
2026/01/08 10:03:38.178,0.017,-0.002,1.011
2026/01/08 10:03:38.198,0.017,-0.001,1.009
2026/01/08 10:03:38.218,0.018,-0.004,1.008
2026/01/08 10:03:38.238,0.016,-0.004,1.009
2026/01/08 10:03:38.258,0.018,-0.004,1.009
2026/01/08 10:03:38.278,0.019,-0.004,1.008
2026/01/08 10:03:38.298,0.014,-0.004,1.009
2026/01/08 10:03:38.318,0.018,0.0,1.008
2026/01/08 10:03:38.338,0.019,0.0,1.011
2026/01/08 10:03:38.358,0.019,-0.001,1.009
2026/01/08 10:03:38.378,0.018,-0.005,1.006
2026/01/08 10:03:38.397,0.015,-0.005,1.008
2026/01/08 10:03:38.417,0.019,-0.004,1.009
2026/01/08 10:03:38.437,0.016,-0.004,1.007
2026/01/08 10:03:38.457,0.016,-0.001,1.008
2026/01/08 10:03:38.477,0.022,-0.001,1.011
2026/01/08 10:03:38.497,0.017,-0.001,1.008
2026/01/08 10:03:38.517,0.019,-0.007,1.006
2026/01/08 10:03:38.537,0.019,-0.003,1.007
2026/01/08 10:03:38.557,0.015,-0.003,1.006
2026/01/08 10:03:38.577,0.016,-0.002,1.005
2026/01/08 10:03:38.597,0.013,-0.002,1.008
2026/01/08 10:03:38.617,0.016,-0.003,1.009
2026/01/08 10:03:38.637,0.017,-0.002,1.008
2026/01/08 10:03:38.656,0.015,-0.004,1.01
2026/01/08 10:03:38.676,0.017,-0.003,1.005
2026/01/08 10:03:38.696,0.016,-0.005,1.009
2026/01/08 10:03:38.716,0.017,-0.001,1.008
2026/01/08 10:03:38.736,0.015,-0.004,1.007
2026/01/08 10:03:38.756,0.017,-0.002,1.007
2026/01/08 10:03:38.776,0.02,-0.001,1.006
2026/01/08 10:03:38.796,0.016,0.001,1.008
2026/01/08 10:03:38.816,0.018,-0.001,1.006
2026/01/08 10:03:38.836,0.015,0.0,1.009
2026/01/08 10:03:38.856,0.017,-0.001,1.008
2026/01/08 10:03:38.876,0.013,0.0,1.002
2026/01/08 10:03:38.895,0.018,-0.002,1.01
2026/01/08 10:03:38.915,0.017,0.001,1.012
2026/01/08 10:03:38.935,0.015,-0.002,1.01
2026/01/08 10:03:38.955,0.016,-0.001,1.007
2026/01/08 10:03:38.975,0.019,0.0,1.012
2026/01/08 10:03:38.995,0.017,-0.001,1.008
2026/01/08 10:03:39.015,0.015,-0.002,1.008
2026/01/08 10:03:39.035,0.016,-0.001,1.004
2026/01/08 10:03:39.055,0.017,-0.003,1.008
2026/01/08 10:03:39.075,0.018,-0.003,1.009
2026/01/08 10:03:39.095,0.019,-0.002,1.007
2026/01/08 10:03:39.115,0.015,-0.003,1.007
2026/01/08 10:03:39.134,0.017,-0.003,1.004
2026/01/08 10:03:39.154,0.016,0.0,1.007
2026/01/08 10:03:39.174,0.019,-0.003,1.011
2026/01/08 10:03:39.194,0.011,-0.006,1.009
2026/01/08 10:03:39.214,0.015,0.0,1.011
2026/01/08 10:03:39.234,0.016,-0.003,1.01
2026/01/08 10:03:39.254,0.014,0.0,1.007
2026/01/08 10:03:39.274,0.014,-0.002,1.006
2026/01/08 10:03:39.294,0.017,-0.001,1.008
2026/01/08 10:03:39.314,0.016,-0.005,1.007
2026/01/08 10:03:39.334,0.014,-0.001,1.01
2026/01/08 10:03:39.354,0.014,-0.001,1.003
2026/01/08 10:03:39.373,0.016,-0.004,1.005
2026/01/08 10:03:39.393,0.013,0.001,1.008
2026/01/08 10:03:39.413,0.017,-0.001,1.005
2026/01/08 10:03:39.433,0.012,-0.003,1.009
2026/01/08 10:03:39.453,0.017,-0.001,1.008
2026/01/08 10:03:39.473,0.017,-0.003,1.006
2026/01/08 10:03:39.493,0.021,-0.006,1.009
2026/01/08 10:03:39.513,0.018,0.001,1.005
2026/01/08 10:03:39.533,0.016,-0.002,1.006
2026/01/08 10:03:39.553,0.02,-0.002,1.008
2026/01/08 10:03:39.573,0.016,0.0,1.009
2026/01/08 10:03:39.593,0.019,-0.001,1.007
2026/01/08 10:03:39.613,0.015,-0.001,1.009
2026/01/08 10:03:39.632,0.017,0.001,1.009
2026/01/08 10:03:39.652,0.017,-0.001,1.01
2026/01/08 10:03:39.672,0.012,-0.002,1.006
2026/01/08 10:03:39.692,0.017,0.0,1.007
2026/01/08 10:03:39.712,0.017,-0.002,1.007
2026/01/08 10:03:39.732,0.016,-0.003,1.009
2026/01/08 10:03:39.752,0.018,0.001,1.005
2026/01/08 10:03:39.772,0.017,0.0,1.005
2026/01/08 10:03:39.792,0.014,-0.002,1.008
2026/01/08 10:03:39.812,0.014,-0.004,1.007
2026/01/08 10:03:39.832,0.019,-0.002,1.008
2026/01/08 10:03:39.852,0.017,0.0,1.006
2026/01/08 10:03:39.871,0.019,-0.002,1.008
2026/01/08 10:03:39.891,0.015,-0.001,1.009
2026/01/08 10:03:39.911,0.017,0.001,1.006
2026/01/08 10:03:39.931,0.014,-0.002,1.006
2026/01/08 10:03:39.951,0.015,0.0,1.01
2026/01/08 10:03:39.971,0.017,-0.002,1.008
2026/01/08 10:03:39.991,0.015,-0.002,1.009
2026/01/08 10:03:40.011,0.017,-0.002,1.008
2026/01/08 10:03:40.031,0.016,0.003,1.006
2026/01/08 10:03:40.051,0.017,-0.001,1.009
2026/01/08 10:03:40.071,0.017,-0.005,1.01
2026/01/08 10:03:40.091,0.015,0.0,1.005
2026/01/08 10:03:40.110,0.016,-0.001,1.009
2026/01/08 10:03:40.130,0.015,-0.003,1.005
2026/01/08 10:03:40.150,0.015,-0.003,1.007
2026/01/08 10:03:40.170,0.018,-0.002,1.009
2026/01/08 10:03:40.190,0.016,-0.001,1.014
2026/01/08 10:03:40.210,0.014,-0.001,1.008
2026/01/08 10:03:40.230,0.021,0.001,1.007
2026/01/08 10:03:40.250,0.017,-0.006,1.01
2026/01/08 10:03:40.270,0.017,-0.002,1.005
2026/01/08 10:03:40.290,0.016,0.0,1.011
2026/01/08 10:03:40.310,0.015,-0.003,1.004
2026/01/08 10:03:40.330,0.016,-0.003,1.008
2026/01/08 10:03:40.350,0.016,0.001,1.008
2026/01/08 10:03:40.369,0.016,0.0,1.011
2026/01/08 10:03:40.389,0.016,-0.003,1.007
2026/01/08 10:03:40.409,0.017,-0.002,1.007
2026/01/08 10:03:40.429,0.019,-0.001,1.011
2026/01/08 10:03:40.449,0.019,-0.001,1.004
2026/01/08 10:03:40.469,0.016,0.001,1.008
2026/01/08 10:03:40.489,0.017,-0.004,1.008
2026/01/08 10:03:40.509,0.017,-0.003,1.009
2026/01/08 10:03:40.529,0.015,-0.003,1.008
2026/01/08 10:03:40.549,0.016,-0.001,1.007
2026/01/08 10:03:40.569,0.01,-0.003,1.005
2026/01/08 10:03:40.589,0.019,-0.004,1.005
2026/01/08 10:03:40.608,0.018,0.003,1.009
2026/01/08 10:03:40.628,0.016,0.0,1.003
2026/01/08 10:03:40.648,0.017,0.002,1.008
2026/01/08 10:03:40.668,0.017,-0.002,1.008
2026/01/08 10:03:40.688,0.013,0.002,1.009
2026/01/08 10:03:40.708,0.02,0.0,1.008
2026/01/08 10:03:40.728,0.016,-0.003,1.006
2026/01/08 10:03:40.748,0.017,0.001,1.007
2026/01/08 10:03:40.768,0.016,-0.001,1.007
2026/01/08 10:03:40.788,0.018,-0.003,1.005
2026/01/08 10:03:40.808,0.016,-0.002,1.009
2026/01/08 10:03:40.828,0.016,0.0,1.007
2026/01/08 10:03:40.848,0.018,0.001,1.008
2026/01/08 10:03:40.867,0.015,-0.003,1.01
2026/01/08 10:03:40.887,0.015,-0.003,1.007
2026/01/08 10:03:40.907,0.014,-0.004,1.006
2026/01/08 10:03:40.927,0.014,0.002,1.006
2026/01/08 10:03:40.947,0.018,-0.004,1.009
2026/01/08 10:03:40.967,0.016,-0.001,1.007
2026/01/08 10:03:40.987,0.019,-0.001,1.01
2026/01/08 10:03:41.007,0.019,0.0,1.006
2026/01/08 10:03:41.027,0.017,-0.002,1.008
2026/01/08 10:03:41.047,0.017,-0.001,1.008
2026/01/08 10:03:41.067,0.016,0.0,1.003
2026/01/08 10:03:41.087,0.013,-0.003,1.011
2026/01/08 10:03:41.106,0.016,-0.001,1.008
2026/01/08 10:03:41.126,0.021,-0.002,1.007
2026/01/08 10:03:41.146,0.015,0.0,1.008
2026/01/08 10:03:41.166,0.016,-0.003,1.008
2026/01/08 10:03:41.186,0.016,-0.003,1.007
2026/01/08 10:03:41.206,0.016,0.0,1.008
2026/01/08 10:03:41.226,0.018,0.0,1.003
2026/01/08 10:03:41.246,0.017,-0.002,1.008
2026/01/08 10:03:41.266,0.018,-0.001,1.006
2026/01/08 10:03:41.286,0.015,-0.004,1.01
2026/01/08 10:03:41.306,0.02,-0.001,1.007
2026/01/08 10:03:41.326,0.017,-0.002,1.007
2026/01/08 10:03:41.345,0.017,-0.004,1.008
2026/01/08 10:03:41.365,0.014,-0.003,1.008
2026/01/08 10:03:41.385,0.015,-0.007,1.008
2026/01/08 10:03:41.405,0.018,-0.001,1.008
2026/01/08 10:03:41.425,0.02,-0.003,1.008
2026/01/08 10:03:41.445,0.021,0.0,1.009
2026/01/08 10:03:41.465,0.017,-0.002,1.011
2026/01/08 10:03:41.485,0.017,-0.004,1.005
2026/01/08 10:03:41.505,0.018,-0.005,1.007
2026/01/08 10:03:41.525,0.016,-0.002,1.01
2026/01/08 10:03:41.545,0.014,-0.001,1.015
2026/01/08 10:03:41.565,0.014,-0.002,1.005
2026/01/08 10:03:41.585,0.015,-0.006,1.003
2026/01/08 10:03:41.604,0.019,-0.003,1.004
2026/01/08 10:03:41.624,0.016,-0.004,1.01
2026/01/08 10:03:41.644,0.019,0.0,1.007
2026/01/08 10:03:41.664,0.017,-0.001,1.007
2026/01/08 10:03:41.684,0.016,-0.001,1.01
2026/01/08 10:03:41.704,0.02,0.001,1.01
2026/01/08 10:03:41.724,0.017,0.0,1.007
2026/01/08 10:03:41.744,0.02,0.0,1.008
2026/01/08 10:03:41.764,0.019,-0.003,1.008
2026/01/08 10:03:41.784,0.016,0.0,1.006
2026/01/08 10:03:41.804,0.017,-0.002,1.008
2026/01/08 10:03:41.824,0.015,-0.005,1.008
2026/01/08 10:03:41.843,0.016,-0.004,1.007
2026/01/08 10:03:41.863,0.016,-0.003,1.01
2026/01/08 10:03:41.883,0.019,-0.003,1.01
2026/01/08 10:03:41.903,0.019,-0.004,1.008
2026/01/08 10:03:41.923,0.012,-0.001,1.008
2026/01/08 10:03:41.943,0.018,0.0,1.01
2026/01/08 10:03:41.963,0.017,-0.001,1.005
2026/01/08 10:03:41.983,0.017,-0.002,1.009
2026/01/08 10:03:42.003,0.013,0.001,1.01
2026/01/08 10:03:42.023,0.016,-0.002,1.007
2026/01/08 10:03:42.043,0.018,-0.001,1.007
2026/01/08 10:03:42.063,0.022,-0.004,1.007
2026/01/08 10:03:42.082,0.016,-0.002,1.006
2026/01/08 10:03:42.102,0.015,-0.003,1.008
2026/01/08 10:03:42.122,0.019,0.0,1.006
2026/01/08 10:03:42.142,0.012,-0.001,1.008
2026/01/08 10:03:42.162,0.016,-0.001,1.007
2026/01/08 10:03:42.182,0.016,-0.004,1.008
2026/01/08 10:03:42.202,0.015,-0.002,1.009
2026/01/08 10:03:42.222,0.018,-0.003,1.008
2026/01/08 10:03:42.242,0.017,-0.003,1.01
2026/01/08 10:03:42.262,0.015,0.0,1.007
2026/01/08 10:03:42.282,0.015,-0.002,1.006
2026/01/08 10:03:42.302,0.016,-0.003,1.007
2026/01/08 10:03:42.321,0.018,-0.004,1.003
2026/01/08 10:03:42.341,0.017,-0.002,1.003
2026/01/08 10:03:42.361,0.015,-0.001,1.007
2026/01/08 10:03:42.381,0.016,-0.002,1.012
2026/01/08 10:03:42.401,0.017,0.001,1.006
2026/01/08 10:03:42.421,0.018,-0.002,1.007
2026/01/08 10:03:42.441,0.018,-0.005,1.006
2026/01/08 10:03:42.461,0.015,-0.004,1.006
2026/01/08 10:03:42.481,0.015,-0.003,1.01
2026/01/08 10:03:42.501,0.016,-0.002,1.007
2026/01/08 10:03:42.521,0.017,-0.004,1.007
2026/01/08 10:03:42.541,0.015,-0.002,1.008
2026/01/08 10:03:42.560,0.018,0.0,1.008
2026/01/08 10:03:42.580,0.015,-0.003,1.007
2026/01/08 10:03:42.600,0.019,-0.003,1.01
2026/01/08 10:03:42.620,0.017,-0.003,1.005
2026/01/08 10:03:42.640,0.014,-0.002,1.007
2026/01/08 10:03:42.660,0.018,-0.003,1.005
2026/01/08 10:03:42.680,0.017,-0.002,1.005
2026/01/08 10:03:42.700,0.016,0.0,1.009
2026/01/08 10:03:42.720,0.02,-0.001,1.013
2026/01/08 10:03:42.740,0.019,-0.002,1.009
2026/01/08 10:03:42.760,0.016,-0.003,1.008
2026/01/08 10:03:42.780,0.018,-0.001,1.005
2026/01/08 10:03:42.799,0.017,-0.002,1.008
2026/01/08 10:03:42.819,0.016,0.0,1.008
2026/01/08 10:03:42.839,0.017,-0.002,1.012
2026/01/08 10:03:42.859,0.017,0.0,1.008
2026/01/08 10:03:42.879,0.018,-0.003,1.008
2026/01/08 10:03:42.899,0.015,-0.001,1.006
2026/01/08 10:03:42.919,0.018,0.002,1.009
2026/01/08 10:03:42.939,0.015,-0.005,1.008
2026/01/08 10:03:42.959,0.018,0.0,1.007
2026/01/08 10:03:42.979,0.019,0.001,1.005
2026/01/08 10:03:42.999,0.016,-0.002,1.009
2026/01/08 10:03:43.019,0.021,-0.002,1.006
2026/01/08 10:03:43.038,0.015,-0.001,1.007
2026/01/08 10:03:43.058,0.016,-0.002,1.007
2026/01/08 10:03:43.078,0.015,-0.001,1.011
2026/01/08 10:03:43.098,0.014,-0.002,1.009
2026/01/08 10:03:43.118,0.019,-0.001,1.008
2026/01/08 10:03:43.138,0.019,-0.001,1.008
2026/01/08 10:03:43.158,0.019,0.004,1.007
2026/01/08 10:03:43.178,0.015,-0.004,1.008
2026/01/08 10:03:43.198,0.017,-0.002,1.005
2026/01/08 10:03:43.218,0.015,0.0,1.008
2026/01/08 10:03:43.238,0.018,-0.004,1.009
2026/01/08 10:03:43.258,0.016,-0.003,1.01
2026/01/08 10:03:43.277,0.018,-0.003,1.009
2026/01/08 10:03:43.297,0.017,-0.002,1.008
2026/01/08 10:03:43.317,0.015,-0.003,1.006
2026/01/08 10:03:43.337,0.016,-0.005,1.008
2026/01/08 10:03:43.357,0.018,-0.006,1.005
2026/01/08 10:03:43.377,0.016,0.003,1.005
2026/01/08 10:03:43.397,0.014,0.002,1.01
2026/01/08 10:03:43.417,0.018,0.001,1.009
2026/01/08 10:03:43.437,0.018,-0.001,1.008
2026/01/08 10:03:43.457,0.019,-0.001,1.007
2026/01/08 10:03:43.477,0.016,-0.001,1.007
2026/01/08 10:03:43.497,0.017,-0.003,1.005
2026/01/08 10:03:43.516,0.015,0.002,1.005
2026/01/08 10:03:43.536,0.017,-0.002,1.008
2026/01/08 10:03:43.556,0.016,-0.004,1.007
2026/01/08 10:03:43.576,0.018,-0.004,1.008
2026/01/08 10:03:43.596,0.017,-0.004,1.008
2026/01/08 10:03:43.616,0.015,-0.002,1.01
2026/01/08 10:03:43.636,0.016,0.001,1.003
2026/01/08 10:03:43.656,0.015,-0.003,1.006
2026/01/08 10:03:43.676,0.015,-0.003,1.008
2026/01/08 10:03:43.696,0.016,0.0,1.008
2026/01/08 10:03:43.716,0.015,-0.001,1.006
2026/01/08 10:03:43.736,0.016,0.001,1.006
2026/01/08 10:03:43.755,0.016,-0.002,1.008
2026/01/08 10:03:43.775,0.018,0.0,1.008
2026/01/08 10:03:43.795,0.017,-0.007,1.009
2026/01/08 10:03:43.815,0.018,0.0,1.006
2026/01/08 10:03:43.835,0.014,-0.004,1.007
2026/01/08 10:03:43.855,0.017,-0.003,1.006
2026/01/08 10:03:43.875,0.015,0.0,1.006
2026/01/08 10:03:43.895,0.017,-0.002,1.007
2026/01/08 10:03:43.915,0.017,-0.005,1.008
2026/01/08 10:03:43.935,0.016,0.0,1.005
2026/01/08 10:03:43.955,0.019,0.002,1.007
2026/01/08 10:03:43.975,0.017,-0.001,1.005
2026/01/08 10:03:43.994,0.019,-0.002,1.007
2026/01/08 10:03:44.014,0.017,-0.004,1.008
2026/01/08 10:03:44.034,0.014,-0.003,1.005
2026/01/08 10:03:44.054,0.014,-0.005,1.008
2026/01/08 10:03:44.074,0.017,-0.003,1.005
2026/01/08 10:03:44.094,0.017,-0.001,1.007
2026/01/08 10:03:44.114,0.019,-0.002,1.007
2026/01/08 10:03:44.134,0.017,-0.003,1.006
2026/01/08 10:03:44.154,0.018,-0.002,1.011
2026/01/08 10:03:44.174,0.015,-0.001,1.009
2026/01/08 10:03:44.194,0.018,-0.003,1.009
2026/01/08 10:03:44.214,0.018,-0.001,1.008
2026/01/08 10:03:44.233,0.016,0.0,1.007
2026/01/08 10:03:44.253,0.017,-0.007,1.007
2026/01/08 10:03:44.273,0.02,0.0,1.006
2026/01/08 10:03:44.293,0.015,-0.001,1.012
2026/01/08 10:03:44.313,0.019,-0.002,1.004
2026/01/08 10:03:44.333,0.015,0.003,1.008
2026/01/08 10:03:44.353,0.018,-0.002,1.007
2026/01/08 10:03:44.373,0.016,-0.005,1.01
2026/01/08 10:03:44.393,0.018,-0.001,1.006
2026/01/08 10:03:44.413,0.018,-0.001,1.01
2026/01/08 10:03:44.433,0.011,-0.005,1.005
2026/01/08 10:03:44.453,0.02,-0.001,1.008
2026/01/08 10:03:44.472,0.016,-0.004,1.008
2026/01/08 10:03:44.492,0.015,-0.002,1.009
2026/01/08 10:03:44.512,0.015,-0.002,1.003
2026/01/08 10:03:44.532,0.016,-0.004,1.012
2026/01/08 10:03:44.552,0.017,-0.002,1.005
2026/01/08 10:03:44.572,0.014,-0.004,1.008
2026/01/08 10:03:44.592,0.017,-0.002,1.011
2026/01/08 10:03:44.612,0.017,-0.002,1.006
2026/01/08 10:03:44.632,0.018,-0.005,1.006
2026/01/08 10:03:44.652,0.013,-0.003,1.006
2026/01/08 10:03:44.672,0.019,-0.002,1.007
2026/01/08 10:03:44.692,0.019,-0.005,1.01
2026/01/08 10:03:44.711,0.015,-0.002,1.008
2026/01/08 10:03:44.731,0.016,0.001,1.006
2026/01/08 10:03:44.751,0.017,0.0,1.013
2026/01/08 10:03:44.771,0.014,-0.002,1.006
2026/01/08 10:03:44.791,0.014,-0.002,1.008
2026/01/08 10:03:44.811,0.019,-0.001,1.008
2026/01/08 10:03:44.831,0.015,-0.001,1.008
2026/01/08 10:03:44.851,0.018,-0.005,1.007
2026/01/08 10:03:44.871,0.016,-0.001,1.007
2026/01/08 10:03:44.891,0.018,-0.001,1.01
2026/01/08 10:03:44.911,0.018,-0.002,1.007
2026/01/08 10:03:44.931,0.017,0.0,1.012
2026/01/08 10:03:44.950,0.018,-0.003,1.005
2026/01/08 10:03:44.970,0.016,-0.004,1.007
2026/01/08 10:03:44.990,0.019,-0.003,1.003
2026/01/08 10:03:45.010,0.013,-0.001,1.006
2026/01/08 10:03:45.030,0.017,-0.002,1.004
2026/01/08 10:03:45.050,0.013,0.001,1.008
2026/01/08 10:03:45.070,0.017,-0.005,1.006
2026/01/08 10:03:45.090,0.02,-0.002,1.007
2026/01/08 10:03:45.110,0.015,-0.001,1.011
2026/01/08 10:03:45.130,0.015,-0.002,1.012
2026/01/08 10:03:45.150,0.016,-0.001,1.009
2026/01/08 10:03:45.170,0.015,-0.001,1.011
2026/01/08 10:03:45.189,0.019,-0.004,1.009
2026/01/08 10:03:45.209,0.016,-0.003,1.006
2026/01/08 10:03:45.229,0.018,-0.004,1.011
2026/01/08 10:03:45.249,0.017,-0.002,1.007
2026/01/08 10:03:45.269,0.017,-0.003,1.008
2026/01/08 10:03:45.289,0.017,-0.001,1.008
2026/01/08 10:03:45.309,0.019,0.003,1.007
2026/01/08 10:03:45.329,0.015,-0.001,1.008
2026/01/08 10:03:45.349,0.017,0.0,1.011
2026/01/08 10:03:45.369,0.018,-0.003,1.009
2026/01/08 10:03:45.389,0.017,-0.001,1.006
2026/01/08 10:03:45.409,0.016,-0.002,1.009
2026/01/08 10:03:45.428,0.018,-0.002,1.008
2026/01/08 10:03:45.448,0.015,-0.002,1.01
2026/01/08 10:03:45.468,0.015,-0.003,1.009
2026/01/08 10:03:45.488,0.016,-0.004,1.007
2026/01/08 10:03:45.508,0.017,-0.004,1.006
2026/01/08 10:03:45.528,0.018,0.001,1.011
2026/01/08 10:03:45.548,0.019,0.0,1.01
2026/01/08 10:03:45.568,0.014,-0.003,1.008
2026/01/08 10:03:45.588,0.018,-0.003,1.006
2026/01/08 10:03:45.608,0.017,0.001,1.01
2026/01/08 10:03:45.628,0.017,0.0,1.009
2026/01/08 10:03:45.648,0.014,-0.002,1.007
2026/01/08 10:03:45.667,0.018,0.0,1.008
2026/01/08 10:03:45.687,0.017,-0.003,1.007
2026/01/08 10:03:45.707,0.019,0.002,1.009
2026/01/08 10:03:45.727,0.014,-0.002,1.006
2026/01/08 10:03:45.747,0.016,0.0,1.005
2026/01/08 10:03:45.767,0.018,-0.005,1.011
2026/01/08 10:03:45.787,0.019,-0.001,1.005
2026/01/08 10:03:45.807,0.016,-0.002,1.007
2026/01/08 10:03:45.827,0.02,-0.004,1.007
2026/01/08 10:03:45.847,0.015,-0.002,1.008
2026/01/08 10:03:45.867,0.014,-0.004,1.009
2026/01/08 10:03:45.887,0.016,-0.002,1.009
2026/01/08 10:03:45.906,0.017,0.001,1.011
2026/01/08 10:03:45.926,0.014,-0.003,1.01
2026/01/08 10:03:45.946,0.019,-0.003,1.008
2026/01/08 10:03:45.966,0.018,-0.006,1.005
2026/01/08 10:03:45.986,0.017,-0.002,1.006
2026/01/08 10:03:46.006,0.015,-0.001,1.007
2026/01/08 10:03:46.026,0.016,0.003,1.006
2026/01/08 10:03:46.046,0.018,-0.007,1.009
2026/01/08 10:03:46.066,0.019,-0.002,1.009
2026/01/08 10:03:46.086,0.016,-0.001,1.012
2026/01/08 10:03:46.106,0.017,-0.001,1.007
2026/01/08 10:03:46.126,0.016,0.001,1.008
2026/01/08 10:03:46.145,0.021,-0.002,1.006
2026/01/08 10:03:46.165,0.016,-0.001,1.008
2026/01/08 10:03:46.185,0.016,-0.002,1.008
2026/01/08 10:03:46.205,0.017,-0.002,1.006
2026/01/08 10:03:46.225,0.021,0.0,1.009
2026/01/08 10:03:46.245,0.018,-0.001,1.007
2026/01/08 10:03:46.265,0.014,-0.002,1.007
2026/01/08 10:03:46.285,0.016,0.001,1.008
2026/01/08 10:03:46.305,0.017,-0.002,1.008
2026/01/08 10:03:46.325,0.018,-0.001,1.007
2026/01/08 10:03:46.345,0.016,0.006,1.006
2026/01/08 10:03:46.365,0.016,-0.002,1.008
2026/01/08 10:03:46.384,0.018,-0.002,1.009
2026/01/08 10:03:46.404,0.019,-0.001,1.009
2026/01/08 10:03:46.424,0.017,-0.002,1.006
2026/01/08 10:03:46.444,0.014,0.001,1.01
2026/01/08 10:03:46.464,0.012,-0.003,1.007
2026/01/08 10:03:46.484,0.015,0.001,1.009
2026/01/08 10:03:46.504,0.016,-0.001,1.008
2026/01/08 10:03:46.524,0.015,-0.004,1.007
2026/01/08 10:03:46.544,0.015,0.001,1.009
2026/01/08 10:03:46.564,0.015,0.0,1.01
2026/01/08 10:03:46.584,0.015,-0.001,1.009
2026/01/08 10:03:46.604,0.019,-0.003,1.008
2026/01/08 10:03:46.623,0.014,-0.002,1.01
2026/01/08 10:03:46.643,0.011,-0.002,1.009
2026/01/08 10:03:46.663,0.017,-0.002,1.004
2026/01/08 10:03:46.683,0.013,-0.001,1.008
2026/01/08 10:03:46.703,0.012,-0.003,1.007
2026/01/08 10:03:46.723,0.019,-0.003,1.012
2026/01/08 10:03:46.743,0.018,-0.002,1.006
2026/01/08 10:03:46.763,0.018,-0.004,1.006
2026/01/08 10:03:46.783,0.016,0.001,1.01
2026/01/08 10:03:46.803,0.015,-0.004,1.011
2026/01/08 10:03:46.823,0.015,-0.002,1.006
2026/01/08 10:03:46.843,0.018,-0.001,1.008
2026/01/08 10:03:46.862,0.016,0.0,1.005
2026/01/08 10:03:46.882,0.017,0.0,1.007
2026/01/08 10:03:46.902,0.014,-0.003,1.008
2026/01/08 10:03:46.922,0.014,-0.001,1.006
2026/01/08 10:03:46.942,0.014,-0.003,1.003
2026/01/08 10:03:46.962,0.015,-0.003,1.007
2026/01/08 10:03:46.982,0.017,-0.004,1.008
2026/01/08 10:03:47.002,0.015,-0.003,1.009
2026/01/08 10:03:47.022,0.02,0.0,1.009
2026/01/08 10:03:47.042,0.017,0.001,1.007
2026/01/08 10:03:47.062,0.016,-0.002,1.006
2026/01/08 10:03:47.082,0.014,-0.004,1.007
2026/01/08 10:03:47.102,0.016,-0.005,1.011
2026/01/08 10:03:47.121,0.017,-0.002,1.009
2026/01/08 10:03:47.141,0.014,-0.001,1.009
2026/01/08 10:03:47.161,0.016,0.0,1.009
2026/01/08 10:03:47.181,0.019,0.0,1.006
2026/01/08 10:03:47.201,0.018,-0.002,1.004
2026/01/08 10:03:47.221,0.017,-0.005,1.009
2026/01/08 10:03:47.241,0.016,-0.004,1.008
2026/01/08 10:03:47.261,0.017,-0.001,1.009
2026/01/08 10:03:47.281,0.017,0.002,1.008
2026/01/08 10:03:47.301,0.019,-0.003,1.011
2026/01/08 10:03:47.321,0.021,-0.002,1.008
2026/01/08 10:03:47.341,0.016,0.004,1.008
2026/01/08 10:03:47.360,0.018,-0.003,1.007
2026/01/08 10:03:47.380,0.018,0.0,1.008
2026/01/08 10:03:47.400,0.018,-0.002,1.006
2026/01/08 10:03:47.420,0.017,-0.002,1.008
2026/01/08 10:03:47.440,0.014,-0.002,1.01
2026/01/08 10:03:47.460,0.017,0.0,1.011
2026/01/08 10:03:47.480,0.015,-0.005,1.007
2026/01/08 10:03:47.500,0.015,-0.002,1.008
2026/01/08 10:03:47.520,0.016,-0.003,1.007
2026/01/08 10:03:47.540,0.016,-0.002,1.008
2026/01/08 10:03:47.560,0.016,0.002,1.005
2026/01/08 10:03:47.580,0.019,-0.002,1.006
2026/01/08 10:03:47.599,0.017,-0.005,1.008
2026/01/08 10:03:47.619,0.016,0.0,1.009
2026/01/08 10:03:47.639,0.02,-0.002,1.012
2026/01/08 10:03:47.659,0.012,0.0,1.006
2026/01/08 10:03:47.679,0.017,-0.001,1.008
2026/01/08 10:03:47.699,0.016,0.004,1.009
2026/01/08 10:03:47.719,0.02,-0.004,1.009
2026/01/08 10:03:47.739,0.016,-0.005,1.007
2026/01/08 10:03:47.759,0.02,-0.002,1.013
2026/01/08 10:03:47.779,0.014,-0.002,1.009
2026/01/08 10:03:47.799,0.014,0.0,1.009
2026/01/08 10:03:47.819,0.017,-0.003,1.008
2026/01/08 10:03:47.838,0.016,-0.001,1.008
2026/01/08 10:03:47.858,0.015,0.0,1.008
2026/01/08 10:03:47.878,0.017,0.0,1.009
2026/01/08 10:03:47.898,0.017,-0.002,1.006
2026/01/08 10:03:47.918,0.014,0.0,1.008
2026/01/08 10:03:47.938,0.017,-0.006,1.01
2026/01/08 10:03:47.958,0.015,-0.003,1.007
2026/01/08 10:03:47.978,0.015,-0.001,1.008
2026/01/08 10:03:47.998,0.017,0.0,1.008
2026/01/08 10:03:48.018,0.018,0.0,1.01
2026/01/08 10:03:48.038,0.016,-0.004,1.005
2026/01/08 10:03:48.058,0.017,-0.001,1.01
2026/01/08 10:03:48.077,0.017,-0.005,1.012
2026/01/08 10:03:48.097,0.015,0.001,1.01
2026/01/08 10:03:48.117,0.014,-0.002,1.005
2026/01/08 10:03:48.137,0.017,0.0,1.006
2026/01/08 10:03:48.157,0.016,-0.003,1.007
2026/01/08 10:03:48.177,0.013,-0.002,1.007
2026/01/08 10:03:48.197,0.017,-0.002,1.006
2026/01/08 10:03:48.217,0.017,-0.002,1.008
2026/01/08 10:03:48.237,0.015,-0.001,1.008
2026/01/08 10:03:48.257,0.018,0.001,1.004
2026/01/08 10:03:48.277,0.017,-0.004,1.006
2026/01/08 10:03:48.297,0.014,-0.004,1.007
2026/01/08 10:03:48.317,0.012,-0.003,1.007
2026/01/08 10:03:48.336,0.018,-0.001,1.008
2026/01/08 10:03:48.356,0.015,-0.002,1.009
2026/01/08 10:03:48.376,0.018,-0.003,1.006
2026/01/08 10:03:48.396,0.016,-0.002,1.01
2026/01/08 10:03:48.416,0.019,0.002,1.008
2026/01/08 10:03:48.436,0.016,-0.004,1.003
2026/01/08 10:03:48.456,0.019,-0.003,1.011
2026/01/08 10:03:48.476,0.017,0.0,1.007
2026/01/08 10:03:48.496,0.015,-0.003,1.005
2026/01/08 10:03:48.516,0.017,-0.003,1.005
2026/01/08 10:03:48.536,0.015,0.002,1.006
2026/01/08 10:03:48.556,0.017,-0.005,1.007
2026/01/08 10:03:48.575,0.016,-0.003,1.005
2026/01/08 10:03:48.595,0.017,-0.002,1.008
2026/01/08 10:03:48.615,0.018,-0.002,1.011
2026/01/08 10:03:48.635,0.017,-0.002,1.006
2026/01/08 10:03:48.655,0.018,-0.003,1.008
2026/01/08 10:03:48.675,0.016,-0.007,1.008
2026/01/08 10:03:48.695,0.015,0.003,1.009
2026/01/08 10:03:48.715,0.016,0.002,1.007
2026/01/08 10:03:48.735,0.015,-0.005,1.006
2026/01/08 10:03:48.755,0.015,0.002,1.008
2026/01/08 10:03:48.775,0.017,-0.002,1.008
2026/01/08 10:03:48.795,0.014,-0.001,1.009
2026/01/08 10:03:48.814,0.019,0.001,1.008
2026/01/08 10:03:48.834,0.017,0.001,1.008
2026/01/08 10:03:48.854,0.018,0.0,1.007
2026/01/08 10:03:48.874,0.015,-0.002,1.009
2026/01/08 10:03:48.894,0.015,-0.003,1.007
2026/01/08 10:03:48.914,0.018,-0.004,1.008
2026/01/08 10:03:48.934,0.014,-0.002,1.005
2026/01/08 10:03:48.954,0.015,-0.004,1.009
2026/01/08 10:03:48.974,0.02,-0.002,1.008
2026/01/08 10:03:48.994,0.018,0.001,1.006
2026/01/08 10:03:49.014,0.017,-0.003,1.01
2026/01/08 10:03:49.034,0.013,-0.004,1.009
2026/01/08 10:03:49.054,0.018,0.0,1.007
2026/01/08 10:03:49.073,0.013,0.003,1.007
2026/01/08 10:03:49.093,0.017,-0.001,1.008
2026/01/08 10:03:49.113,0.017,0.001,1.005
2026/01/08 10:03:49.133,0.016,-0.001,1.009
2026/01/08 10:03:49.153,0.014,-0.001,1.005
2026/01/08 10:03:49.173,0.018,-0.003,1.008
2026/01/08 10:03:49.193,0.02,-0.002,1.008
2026/01/08 10:03:49.213,0.015,-0.001,1.006
2026/01/08 10:03:49.233,0.017,-0.008,1.007
2026/01/08 10:03:49.253,0.016,-0.005,1.004
2026/01/08 10:03:49.273,0.016,0.001,1.008
2026/01/08 10:03:49.293,0.016,0.002,1.009
2026/01/08 10:03:49.312,0.016,0.0,1.008
2026/01/08 10:03:49.332,0.016,-0.006,1.008
2026/01/08 10:03:49.352,0.011,-0.003,1.008
2026/01/08 10:03:49.372,0.016,-0.005,1.01
2026/01/08 10:03:49.392,0.016,0.001,1.011
2026/01/08 10:03:49.412,0.016,0.0,1.009
2026/01/08 10:03:49.432,0.016,-0.002,1.007
2026/01/08 10:03:49.452,0.018,-0.003,1.01
2026/01/08 10:03:49.472,0.021,-0.002,1.006
2026/01/08 10:03:49.492,0.017,-0.004,1.008
2026/01/08 10:03:49.512,0.015,-0.002,1.012
2026/01/08 10:03:49.532,0.015,-0.002,1.007
2026/01/08 10:03:49.551,0.014,0.0,1.009
2026/01/08 10:03:49.571,0.018,0.0,1.008
2026/01/08 10:03:49.591,0.017,-0.007,1.005
2026/01/08 10:03:49.611,0.017,-0.002,1.006
2026/01/08 10:03:49.631,0.018,-0.001,1.003
2026/01/08 10:03:49.651,0.018,-0.004,1.005
2026/01/08 10:03:49.671,0.016,0.0,1.009
2026/01/08 10:03:49.691,0.018,-0.002,1.007
2026/01/08 10:03:49.711,0.016,-0.004,1.006
2026/01/08 10:03:49.731,0.018,-0.004,1.01
2026/01/08 10:03:49.751,0.014,-0.003,1.01
2026/01/08 10:03:49.771,0.02,-0.004,1.004
2026/01/08 10:03:49.791,0.016,-0.003,1.011
2026/01/08 10:03:49.810,0.019,-0.002,1.009
2026/01/08 10:03:49.830,0.015,-0.002,1.008
2026/01/08 10:03:49.850,0.016,-0.001,1.007
2026/01/08 10:03:49.870,0.014,-0.003,1.007
2026/01/08 10:03:49.890,0.015,-0.002,1.007
2026/01/08 10:03:49.910,0.017,0.0,1.009
2026/01/08 10:03:49.930,0.015,-0.002,1.007
2026/01/08 10:03:49.950,0.016,-0.002,1.009
2026/01/08 10:03:49.970,0.013,-0.005,1.005
2026/01/08 10:03:49.990,0.016,0.001,1.005
2026/01/08 10:03:50.010,0.017,-0.002,1.008
2026/01/08 10:03:50.030,0.014,-0.003,1.012
2026/01/08 10:03:50.049,0.016,-0.001,1.011
2026/01/08 10:03:50.069,0.015,-0.005,1.008
2026/01/08 10:03:50.089,0.016,0.002,1.007
2026/01/08 10:03:50.109,0.016,-0.005,1.003
2026/01/08 10:03:50.129,0.019,0.002,1.007
2026/01/08 10:03:50.149,0.014,-0.001,1.004
2026/01/08 10:03:50.169,0.015,-0.005,1.007
2026/01/08 10:03:50.189,0.014,0.001,1.008
2026/01/08 10:03:50.209,0.016,0.003,1.008
2026/01/08 10:03:50.229,0.015,-0.004,1.007
2026/01/08 10:03:50.249,0.016,-0.001,1.008
2026/01/08 10:03:50.269,0.015,0.001,1.008
2026/01/08 10:03:50.288,0.016,-0.002,1.01
2026/01/08 10:03:50.308,0.015,0.001,1.009
2026/01/08 10:03:50.328,0.015,0.0,1.009
2026/01/08 10:03:50.348,0.018,-0.004,1.008
2026/01/08 10:03:50.368,0.016,-0.005,1.011
2026/01/08 10:03:50.388,0.015,-0.002,1.008
2026/01/08 10:03:50.408,0.015,-0.004,1.008
2026/01/08 10:03:50.428,0.014,0.001,1.007
2026/01/08 10:03:50.448,0.017,-0.001,1.008
2026/01/08 10:03:50.468,0.013,-0.001,1.011
2026/01/08 10:03:50.488,0.015,-0.004,1.009
2026/01/08 10:03:50.508,0.019,0.001,1.006
2026/01/08 10:03:50.528,0.019,-0.002,1.007
2026/01/08 10:03:50.547,0.017,-0.002,1.007
2026/01/08 10:03:50.567,0.017,-0.001,1.008
2026/01/08 10:03:50.587,0.015,-0.002,1.006
2026/01/08 10:03:50.607,0.016,0.001,1.006
2026/01/08 10:03:50.627,0.017,-0.005,1.008
2026/01/08 10:03:50.647,0.02,-0.004,1.005
2026/01/08 10:03:50.667,0.022,-0.003,1.006
2026/01/08 10:03:50.687,0.02,0.001,1.011
2026/01/08 10:03:50.707,0.018,0.0,1.006
2026/01/08 10:03:50.727,0.018,0.0,1.003
2026/01/08 10:03:50.747,0.017,-0.004,1.012
2026/01/08 10:03:50.767,0.016,0.001,1.007
2026/01/08 10:03:50.786,0.014,0.001,1.007
2026/01/08 10:03:50.806,0.017,0.0,1.005
2026/01/08 10:03:50.826,0.018,-0.002,1.01
2026/01/08 10:03:50.846,0.017,-0.001,1.01
2026/01/08 10:03:50.866,0.017,-0.001,1.008
2026/01/08 10:03:50.886,0.018,0.0,1.011
2026/01/08 10:03:50.906,0.016,-0.002,1.006
2026/01/08 10:03:50.926,0.014,-0.002,1.007
2026/01/08 10:03:50.946,0.014,-0.005,1.009
2026/01/08 10:03:50.966,0.012,-0.002,1.005
2026/01/08 10:03:50.986,0.016,-0.004,1.006
2026/01/08 10:03:51.006,0.014,-0.006,1.008
2026/01/08 10:03:51.025,0.021,-0.003,1.009
2026/01/08 10:03:51.045,0.013,-0.002,1.007
2026/01/08 10:03:51.065,0.017,0.003,1.01
2026/01/08 10:03:51.085,0.016,-0.003,1.007
2026/01/08 10:03:51.105,0.016,-0.004,1.006
2026/01/08 10:03:51.125,0.017,-0.004,1.005
2026/01/08 10:03:51.145,0.018,-0.005,1.007
2026/01/08 10:03:51.165,0.017,-0.003,1.012
2026/01/08 10:03:51.185,0.017,-0.003,1.006
2026/01/08 10:03:51.205,0.016,-0.001,1.008
2026/01/08 10:03:51.225,0.017,-0.005,1.006
2026/01/08 10:03:51.245,0.015,-0.004,1.01
2026/01/08 10:03:51.265,0.014,-0.002,1.008
2026/01/08 10:03:51.284,0.018,-0.005,1.005
2026/01/08 10:03:51.304,0.015,-0.001,1.007
2026/01/08 10:03:51.324,0.016,0.0,1.008
2026/01/08 10:03:51.344,0.012,0.0,1.007
2026/01/08 10:03:51.364,0.016,-0.002,1.008
2026/01/08 10:03:51.384,0.019,-0.005,1.011
2026/01/08 10:03:51.404,0.017,0.002,1.01
2026/01/08 10:03:51.424,0.017,-0.002,1.004
2026/01/08 10:03:51.444,0.018,0.0,1.005
2026/01/08 10:03:51.464,0.015,-0.003,1.011
2026/01/08 10:03:51.484,0.016,-0.002,1.009
2026/01/08 10:03:51.504,0.014,-0.004,1.006
2026/01/08 10:03:51.523,0.016,-0.004,1.008
2026/01/08 10:03:51.543,0.019,0.001,1.01
2026/01/08 10:03:51.563,0.021,-0.002,1.009
2026/01/08 10:03:51.583,0.016,0.0,1.006
2026/01/08 10:03:51.603,0.014,-0.001,1.004
2026/01/08 10:03:51.623,0.016,-0.006,1.005
2026/01/08 10:03:51.643,0.016,-0.004,1.007
2026/01/08 10:03:51.663,0.014,-0.002,1.007
2026/01/08 10:03:51.683,0.016,-0.001,1.009
2026/01/08 10:03:51.703,0.012,-0.003,1.008
2026/01/08 10:03:51.723,0.017,-0.004,1.004
2026/01/08 10:03:51.743,0.015,-0.004,1.006
2026/01/08 10:03:51.762,0.017,-0.002,1.007
2026/01/08 10:03:51.782,0.016,-0.003,1.005
2026/01/08 10:03:51.802,0.015,0.0,1.01
2026/01/08 10:03:51.822,0.014,-0.003,1.008
2026/01/08 10:03:51.842,0.015,0.0,1.008
2026/01/08 10:03:51.862,0.016,-0.003,1.007
2026/01/08 10:03:51.882,0.017,-0.003,1.006
2026/01/08 10:03:51.902,0.017,-0.005,1.009
2026/01/08 10:03:51.922,0.018,0.0,1.008
2026/01/08 10:03:51.942,0.014,-0.002,1.008
2026/01/08 10:03:51.962,0.016,0.0,1.004
2026/01/08 10:03:51.982,0.017,-0.006,1.005
2026/01/08 10:03:52.001,0.017,0.002,1.007
2026/01/08 10:03:52.021,0.015,-0.004,1.006
2026/01/08 10:03:52.041,0.014,-0.002,1.008
2026/01/08 10:03:52.061,0.015,-0.001,1.007
2026/01/08 10:03:52.081,0.014,-0.003,1.007
2026/01/08 10:03:52.101,0.019,-0.001,1.008
2026/01/08 10:03:52.121,0.014,-0.001,1.011
2026/01/08 10:03:52.141,0.018,-0.001,1.01
2026/01/08 10:03:52.161,0.017,0.0,1.011
2026/01/08 10:03:52.181,0.016,0.002,1.008
2026/01/08 10:03:52.201,0.018,-0.004,1.007
2026/01/08 10:03:52.221,0.017,-0.003,1.006
2026/01/08 10:03:52.241,0.017,-0.001,1.007
2026/01/08 10:03:52.260,0.017,-0.004,1.01
2026/01/08 10:03:52.280,0.015,-0.001,1.011
2026/01/08 10:03:52.300,0.012,-0.002,1.008
2026/01/08 10:03:52.320,0.019,-0.003,1.01
2026/01/08 10:03:52.340,0.017,-0.004,1.006
2026/01/08 10:03:52.360,0.017,0.001,1.009
2026/01/08 10:03:52.380,0.016,-0.003,1.005
2026/01/08 10:03:52.400,0.013,-0.003,1.011
2026/01/08 10:03:52.420,0.018,-0.007,1.004
2026/01/08 10:03:52.440,0.015,0.0,1.011
2026/01/08 10:03:52.460,0.014,0.0,1.003
2026/01/08 10:03:52.480,0.016,0.002,1.007
2026/01/08 10:03:52.499,0.014,0.0,1.008
2026/01/08 10:03:52.519,0.021,-0.001,1.007
2026/01/08 10:03:52.539,0.019,-0.003,1.009
2026/01/08 10:03:52.559,0.016,-0.002,1.009
2026/01/08 10:03:52.579,0.017,-0.001,1.012
2026/01/08 10:03:52.599,0.013,-0.001,1.009
2026/01/08 10:03:52.619,0.017,0.003,1.008
2026/01/08 10:03:52.639,0.016,0.0,1.01
2026/01/08 10:03:52.659,0.013,-0.001,1.007
2026/01/08 10:03:52.679,0.015,-0.001,1.008
2026/01/08 10:03:52.699,0.015,-0.001,1.004
2026/01/08 10:03:52.719,0.017,-0.001,1.006
2026/01/08 10:03:52.738,0.016,0.0,1.007
2026/01/08 10:03:52.758,0.017,-0.004,1.006
2026/01/08 10:03:52.778,0.014,-0.003,1.007
2026/01/08 10:03:52.798,0.019,-0.001,1.006
2026/01/08 10:03:52.818,0.018,-0.002,1.011
2026/01/08 10:03:52.838,0.017,0.003,1.007
2026/01/08 10:03:52.858,0.017,0.002,1.008
2026/01/08 10:03:52.878,0.015,-0.001,1.008
2026/01/08 10:03:52.898,0.014,-0.002,1.009
2026/01/08 10:03:52.918,0.015,-0.002,1.008
2026/01/08 10:03:52.938,0.017,0.001,1.009
2026/01/08 10:03:52.958,0.015,-0.002,1.006
2026/01/08 10:03:52.978,0.018,-0.001,1.01
2026/01/08 10:03:52.997,0.017,-0.003,1.008
2026/01/08 10:03:53.017,0.013,-0.001,1.006
2026/01/08 10:03:53.037,0.017,-0.004,1.01
2026/01/08 10:03:53.057,0.014,-0.004,1.009
2026/01/08 10:03:53.077,0.017,-0.003,1.006
2026/01/08 10:03:53.097,0.018,-0.005,1.008
2026/01/08 10:03:53.117,0.02,-0.008,1.009
2026/01/08 10:03:53.137,0.017,-0.005,1.007
2026/01/08 10:03:53.157,0.014,-0.006,1.012
2026/01/08 10:03:53.177,0.02,-0.002,1.002
2026/01/08 10:03:53.197,0.014,-0.002,1.007
2026/01/08 10:03:53.217,0.015,-0.002,1.008
2026/01/08 10:03:53.236,0.018,0.0,1.008
2026/01/08 10:03:53.256,0.015,-0.004,1.007
2026/01/08 10:03:53.276,0.017,-0.002,1.007
2026/01/08 10:03:53.296,0.013,0.001,1.006
2026/01/08 10:03:53.316,0.015,-0.003,1.011
2026/01/08 10:03:53.336,0.016,-0.004,1.007
2026/01/08 10:03:53.356,0.019,-0.002,1.006
2026/01/08 10:03:53.376,0.016,0.001,1.008
2026/01/08 10:03:53.396,0.015,-0.002,1.006
2026/01/08 10:03:53.416,0.017,0.0,1.006
2026/01/08 10:03:53.436,0.015,-0.002,1.009
2026/01/08 10:03:53.456,0.014,-0.003,1.007
2026/01/08 10:03:53.475,0.017,-0.003,1.008
2026/01/08 10:03:53.495,0.016,-0.004,1.008
2026/01/08 10:03:53.515,0.015,-0.004,1.008
2026/01/08 10:03:53.535,0.017,-0.004,1.007
2026/01/08 10:03:53.555,0.016,-0.004,1.011
2026/01/08 10:03:53.575,0.016,0.0,1.007
2026/01/08 10:03:53.595,0.015,-0.006,1.01
2026/01/08 10:03:53.615,0.017,-0.004,1.007
2026/01/08 10:03:53.635,0.014,-0.005,1.008
2026/01/08 10:03:53.655,0.015,-0.004,1.008
2026/01/08 10:03:53.675,0.017,0.002,1.01
2026/01/08 10:03:53.695,0.016,-0.001,1.011
2026/01/08 10:03:53.715,0.016,-0.001,1.008
2026/01/08 10:03:53.734,0.016,-0.002,1.005
2026/01/08 10:03:53.754,0.014,-0.004,1.008
2026/01/08 10:03:53.774,0.015,-0.002,1.009
2026/01/08 10:03:53.794,0.013,0.0,1.01
2026/01/08 10:03:53.814,0.017,0.002,1.006
2026/01/08 10:03:53.834,0.018,0.0,1.01
2026/01/08 10:03:53.854,0.016,-0.002,1.005
2026/01/08 10:03:53.874,0.018,-0.001,1.006
2026/01/08 10:03:53.894,0.014,-0.003,1.01
2026/01/08 10:03:53.914,0.013,0.0,1.008
2026/01/08 10:03:53.934,0.019,-0.004,1.01
2026/01/08 10:03:53.954,0.018,-0.002,1.009
2026/01/08 10:03:53.973,0.018,-0.001,1.007
2026/01/08 10:03:53.993,0.021,0.001,1.009
2026/01/08 10:03:54.013,0.019,-0.002,1.006
2026/01/08 10:03:54.033,0.017,-0.004,1.008
2026/01/08 10:03:54.053,0.02,-0.003,1.007
2026/01/08 10:03:54.073,0.015,-0.005,1.009
2026/01/08 10:03:54.093,0.015,-0.005,1.005
2026/01/08 10:03:54.113,0.017,0.0,1.008
2026/01/08 10:03:54.133,0.017,-0.002,1.005
2026/01/08 10:03:54.153,0.016,0.001,1.009
2026/01/08 10:03:54.173,0.018,-0.001,1.007
2026/01/08 10:03:54.193,0.017,-0.002,1.007
2026/01/08 10:03:54.212,0.014,-0.007,1.007
2026/01/08 10:03:54.232,0.016,-0.001,1.007
2026/01/08 10:03:54.252,0.017,0.001,1.006
2026/01/08 10:03:54.272,0.019,-0.001,1.008
2026/01/08 10:03:54.292,0.019,0.001,1.003
2026/01/08 10:03:54.312,0.018,-0.002,1.004
2026/01/08 10:03:54.332,0.016,-0.004,1.008
2026/01/08 10:03:54.352,0.016,-0.004,1.006
2026/01/08 10:03:54.372,0.018,-0.001,1.008
2026/01/08 10:03:54.392,0.016,-0.002,1.009
2026/01/08 10:03:54.412,0.015,-0.002,1.005
2026/01/08 10:03:54.432,0.016,-0.004,1.008
2026/01/08 10:03:54.452,0.016,-0.002,1.005
2026/01/08 10:03:54.471,0.017,-0.001,1.006
2026/01/08 10:03:54.491,0.017,-0.004,1.006
2026/01/08 10:03:54.511,0.016,-0.002,1.009
2026/01/08 10:03:54.531,0.016,-0.003,1.006
2026/01/08 10:03:54.551,0.019,-0.003,1.007
2026/01/08 10:03:54.571,0.014,-0.005,1.008
2026/01/08 10:03:54.591,0.019,0.0,1.008
2026/01/08 10:03:54.611,0.019,-0.001,1.01
2026/01/08 10:03:54.631,0.015,0.0,1.007
2026/01/08 10:03:54.651,0.017,0.0,1.008
2026/01/08 10:03:54.671,0.019,0.0,1.007
2026/01/08 10:03:54.691,0.016,-0.002,1.009
2026/01/08 10:03:54.710,0.016,-0.004,1.008
2026/01/08 10:03:54.730,0.018,0.0,1.007
2026/01/08 10:03:54.750,0.015,-0.003,1.013
2026/01/08 10:03:54.770,0.02,-0.003,1.006
2026/01/08 10:03:54.790,0.015,-0.003,1.007
2026/01/08 10:03:54.810,0.015,-0.002,1.009
2026/01/08 10:03:54.830,0.015,-0.003,1.008
2026/01/08 10:03:54.850,0.019,-0.001,1.012
2026/01/08 10:03:54.870,0.018,-0.002,1.005
2026/01/08 10:03:54.890,0.019,-0.007,1.004
2026/01/08 10:03:54.910,0.015,0.0,1.008
2026/01/08 10:03:54.930,0.017,0.0,1.008
2026/01/08 10:03:54.949,0.017,0.0,1.011
2026/01/08 10:03:54.969,0.015,-0.001,1.008
2026/01/08 10:03:54.989,0.018,-0.001,1.004
2026/01/08 10:03:55.009,0.018,-0.002,1.006
2026/01/08 10:03:55.029,0.016,-0.001,1.011
2026/01/08 10:03:55.049,0.011,-0.006,1.009
2026/01/08 10:03:55.069,0.016,0.0,1.008
2026/01/08 10:03:55.089,0.014,-0.003,1.008
2026/01/08 10:03:55.109,0.014,-0.003,1.01
2026/01/08 10:03:55.129,0.02,0.0,1.004
2026/01/08 10:03:55.149,0.018,0.001,1.009
2026/01/08 10:03:55.169,0.013,-0.004,1.011
2026/01/08 10:03:55.188,0.014,-0.003,1.007
2026/01/08 10:03:55.208,0.016,0.0,1.006
2026/01/08 10:03:55.228,0.015,-0.002,1.005
2026/01/08 10:03:55.248,0.016,0.001,1.009
2026/01/08 10:03:55.268,0.018,-0.001,1.005
2026/01/08 10:03:55.288,0.018,-0.005,1.01
2026/01/08 10:03:55.308,0.017,0.0,1.009
2026/01/08 10:03:55.328,0.014,-0.003,1.009
2026/01/08 10:03:55.348,0.011,-0.004,1.004
2026/01/08 10:03:55.368,0.018,0.002,1.007
2026/01/08 10:03:55.388,0.016,0.0,1.008
2026/01/08 10:03:55.408,0.015,0.0,1.008
2026/01/08 10:03:55.428,0.019,0.001,1.008
2026/01/08 10:03:55.447,0.018,0.0,1.006
2026/01/08 10:03:55.467,0.018,-0.002,1.007
2026/01/08 10:03:55.487,0.015,-0.006,1.008
2026/01/08 10:03:55.507,0.015,0.001,1.008
2026/01/08 10:03:55.527,0.014,-0.001,1.009
2026/01/08 10:03:55.547,0.017,-0.002,1.011
2026/01/08 10:03:55.567,0.017,-0.001,1.008
2026/01/08 10:03:55.587,0.02,-0.001,1.009
2026/01/08 10:03:55.607,0.012,0.0,1.009
2026/01/08 10:03:55.627,0.017,0.0,1.009
2026/01/08 10:03:55.647,0.013,-0.004,1.006
2026/01/08 10:03:55.667,0.015,0.0,1.008
2026/01/08 10:03:55.686,0.016,0.001,1.006
2026/01/08 10:03:55.706,0.02,-0.003,1.009
2026/01/08 10:03:55.726,0.013,-0.004,1.009
2026/01/08 10:03:55.746,0.019,-0.003,1.006
2026/01/08 10:03:55.766,0.018,-0.001,1.008
2026/01/08 10:03:55.786,0.017,-0.004,1.01
2026/01/08 10:03:55.806,0.018,0.001,1.004
2026/01/08 10:03:55.826,0.018,-0.001,1.007
2026/01/08 10:03:55.846,0.021,0.0,1.008
2026/01/08 10:03:55.866,0.016,-0.006,1.007
2026/01/08 10:03:55.886,0.014,-0.002,1.007
2026/01/08 10:03:55.906,0.015,-0.003,1.005
2026/01/08 10:03:55.925,0.013,0.0,1.007
2026/01/08 10:03:55.945,0.02,-0.004,1.008
2026/01/08 10:03:55.965,0.018,0.002,1.005
2026/01/08 10:03:55.985,0.017,-0.001,1.009
2026/01/08 10:03:56.005,0.017,-0.004,1.007
2026/01/08 10:03:56.025,0.018,-0.004,1.01
2026/01/08 10:03:56.045,0.018,-0.003,1.01
2026/01/08 10:03:56.065,0.018,-0.002,1.008
2026/01/08 10:03:56.085,0.016,-0.002,1.006
2026/01/08 10:03:56.105,0.01,0.0,1.008
2026/01/08 10:03:56.125,0.019,-0.005,1.005
2026/01/08 10:03:56.145,0.02,-0.001,1.005
2026/01/08 10:03:56.165,0.018,-0.003,1.008
2026/01/08 10:03:56.184,0.012,-0.003,1.004
2026/01/08 10:03:56.204,0.015,0.002,1.008
2026/01/08 10:03:56.224,0.016,-0.002,1.008
2026/01/08 10:03:56.244,0.018,-0.001,1.008
2026/01/08 10:03:56.264,0.019,-0.003,1.008
2026/01/08 10:03:56.284,0.017,-0.002,1.011
2026/01/08 10:03:56.304,0.018,0.001,1.007
2026/01/08 10:03:56.324,0.013,0.0,1.008
2026/01/08 10:03:56.344,0.018,-0.002,1.007
2026/01/08 10:03:56.364,0.018,-0.001,1.005
2026/01/08 10:03:56.384,0.016,-0.004,1.009
2026/01/08 10:03:56.404,0.016,-0.004,1.01
2026/01/08 10:03:56.423,0.017,-0.003,1.009
2026/01/08 10:03:56.443,0.017,-0.002,1.009
2026/01/08 10:03:56.463,0.017,-0.001,1.008
2026/01/08 10:03:56.483,0.015,-0.005,1.006
2026/01/08 10:03:56.503,0.017,-0.002,1.003
2026/01/08 10:03:56.523,0.015,0.0,1.009
2026/01/08 10:03:56.543,0.015,0.001,1.008
2026/01/08 10:03:56.563,0.013,-0.002,1.009
2026/01/08 10:03:56.583,0.016,0.002,1.006
2026/01/08 10:03:56.603,0.015,-0.004,1.009
2026/01/08 10:03:56.623,0.017,-0.001,1.008
2026/01/08 10:03:56.643,0.017,-0.001,1.01
2026/01/08 10:03:56.662,0.012,0.002,1.01
2026/01/08 10:03:56.682,0.017,-0.007,1.006
2026/01/08 10:03:56.702,0.017,-0.002,1.008
2026/01/08 10:03:56.722,0.017,-0.002,1.007
2026/01/08 10:03:56.742,0.018,0.001,1.01
2026/01/08 10:03:56.762,0.017,0.0,1.008
2026/01/08 10:03:56.782,0.013,-0.001,1.01
2026/01/08 10:03:56.802,0.017,0.001,1.006
2026/01/08 10:03:56.822,0.014,-0.004,1.01
2026/01/08 10:03:56.842,0.016,0.002,1.012
2026/01/08 10:03:56.862,0.013,-0.001,1.007
2026/01/08 10:03:56.882,0.014,0.002,1.007
2026/01/08 10:03:56.901,0.015,-0.001,1.003
2026/01/08 10:03:56.921,0.013,-0.004,1.011
2026/01/08 10:03:56.941,0.019,-0.005,1.011
2026/01/08 10:03:56.961,0.017,-0.002,1.008
2026/01/08 10:03:56.981,0.015,0.0,1.006
2026/01/08 10:03:57.001,0.016,0.0,1.01
2026/01/08 10:03:57.021,0.016,-0.001,1.007
2026/01/08 10:03:57.041,0.016,0.001,1.008
2026/01/08 10:03:57.061,0.017,0.0,1.005
2026/01/08 10:03:57.081,0.014,-0.005,1.011
2026/01/08 10:03:57.101,0.017,0.002,1.009
2026/01/08 10:03:57.121,0.015,-0.004,1.009
2026/01/08 10:03:57.141,0.015,-0.004,1.008
2026/01/08 10:03:57.160,0.016,-0.002,1.005
2026/01/08 10:03:57.180,0.014,0.0,1.007
2026/01/08 10:03:57.200,0.019,-0.003,1.009
2026/01/08 10:03:57.220,0.014,-0.005,1.007
2026/01/08 10:03:57.240,0.019,0.001,1.008
2026/01/08 10:03:57.260,0.018,-0.002,1.009
2026/01/08 10:03:57.280,0.019,0.0,1.009
2026/01/08 10:03:57.300,0.019,-0.003,1.011
2026/01/08 10:03:57.320,0.016,0.0,1.008
2026/01/08 10:03:57.340,0.02,-0.006,1.01
2026/01/08 10:03:57.360,0.018,-0.002,1.006
2026/01/08 10:03:57.380,0.016,0.0,1.007
2026/01/08 10:03:57.399,0.015,-0.001,1.007
2026/01/08 10:03:57.419,0.018,0.002,1.006
2026/01/08 10:03:57.439,0.015,-0.002,1.006
2026/01/08 10:03:57.459,0.021,-0.005,1.006
2026/01/08 10:03:57.479,0.015,-0.002,1.01
2026/01/08 10:03:57.499,0.016,-0.003,1.009
2026/01/08 10:03:57.519,0.013,-0.002,1.009
2026/01/08 10:03:57.539,0.016,-0.003,1.006
2026/01/08 10:03:57.559,0.016,-0.002,1.007
2026/01/08 10:03:57.579,0.012,-0.002,1.004
2026/01/08 10:03:57.599,0.015,0.002,1.003
2026/01/08 10:03:57.619,0.014,-0.003,1.009
2026/01/08 10:03:57.638,0.014,-0.003,1.008
2026/01/08 10:03:57.658,0.016,-0.002,1.006
2026/01/08 10:03:57.678,0.016,-0.003,1.005
2026/01/08 10:03:57.698,0.012,-0.002,1.009
2026/01/08 10:03:57.718,0.018,-0.001,1.007
2026/01/08 10:03:57.738,0.016,-0.002,1.009
2026/01/08 10:03:57.758,0.016,-0.002,1.006
2026/01/08 10:03:57.778,0.014,-0.001,1.006
2026/01/08 10:03:57.798,0.012,0.0,1.008
2026/01/08 10:03:57.818,0.018,0.0,1.007
2026/01/08 10:03:57.838,0.014,-0.002,1.009
2026/01/08 10:03:57.858,0.02,-0.002,1.009
2026/01/08 10:03:57.877,0.014,-0.002,1.007
2026/01/08 10:03:57.897,0.017,-0.005,1.01
2026/01/08 10:03:57.917,0.016,-0.004,1.003
2026/01/08 10:03:57.937,0.017,0.002,1.006
2026/01/08 10:03:57.957,0.015,-0.005,1.006
2026/01/08 10:03:57.977,0.018,-0.002,1.009
2026/01/08 10:03:57.997,0.016,-0.007,1.008
2026/01/08 10:03:58.017,0.016,-0.004,1.008
2026/01/08 10:03:58.037,0.018,-0.001,1.01
2026/01/08 10:03:58.057,0.014,-0.003,1.009
2026/01/08 10:03:58.077,0.017,-0.001,1.008
2026/01/08 10:03:58.097,0.018,-0.002,1.01
2026/01/08 10:03:58.117,0.015,0.002,1.008
2026/01/08 10:03:58.136,0.015,-0.003,1.01
2026/01/08 10:03:58.156,0.017,0.001,1.009
2026/01/08 10:03:58.176,0.02,0.0,1.007
2026/01/08 10:03:58.196,0.019,0.001,1.007
2026/01/08 10:03:58.216,0.017,-0.005,1.011
2026/01/08 10:03:58.236,0.021,0.003,1.007
2026/01/08 10:03:58.256,0.014,-0.003,1.008
2026/01/08 10:03:58.276,0.021,-0.003,1.007
2026/01/08 10:03:58.296,0.016,0.004,1.008
2026/01/08 10:03:58.316,0.016,-0.004,1.011
2026/01/08 10:03:58.336,0.016,-0.003,1.011
2026/01/08 10:03:58.356,0.017,-0.001,1.007
2026/01/08 10:03:58.375,0.014,-0.004,1.007
2026/01/08 10:03:58.395,0.015,0.002,1.009
2026/01/08 10:03:58.415,0.02,0.0,1.004
2026/01/08 10:03:58.435,0.014,-0.001,1.007
2026/01/08 10:03:58.455,0.018,-0.005,1.006
2026/01/08 10:03:58.475,0.014,-0.005,1.007
2026/01/08 10:03:58.495,0.015,-0.002,1.008
2026/01/08 10:03:58.515,0.016,-0.005,1.006
2026/01/08 10:03:58.535,0.014,-0.002,1.009
2026/01/08 10:03:58.555,0.016,-0.002,1.006
2026/01/08 10:03:58.575,0.015,0.0,1.008
2026/01/08 10:03:58.595,0.016,-0.001,1.008
2026/01/08 10:03:58.614,0.018,0.0,1.013
2026/01/08 10:03:58.634,0.016,0.001,1.007
2026/01/08 10:03:58.654,0.018,-0.002,1.008
2026/01/08 10:03:58.674,0.014,-0.001,1.008
2026/01/08 10:03:58.694,0.015,-0.006,1.01
2026/01/08 10:03:58.714,0.014,0.0,1.007
2026/01/08 10:03:58.734,0.016,-0.003,1.008
2026/01/08 10:03:58.754,0.015,-0.004,1.008
2026/01/08 10:03:58.774,0.017,-0.002,1.008
2026/01/08 10:03:58.794,0.016,0.001,1.011
2026/01/08 10:03:58.814,0.019,-0.005,1.01
2026/01/08 10:03:58.834,0.012,-0.006,1.007
2026/01/08 10:03:58.853,0.017,-0.002,1.006
2026/01/08 10:03:58.873,0.016,-0.004,1.007
2026/01/08 10:03:58.893,0.015,-0.004,1.007
2026/01/08 10:03:58.913,0.019,-0.001,1.007
2026/01/08 10:03:58.933,0.018,-0.002,1.007
2026/01/08 10:03:58.953,0.015,-0.004,1.008
2026/01/08 10:03:58.973,0.013,0.001,1.01
2026/01/08 10:03:58.993,0.018,0.0,1.006
2026/01/08 10:03:59.013,0.018,0.0,1.008
2026/01/08 10:03:59.033,0.015,-0.002,1.006
2026/01/08 10:03:59.053,0.015,-0.005,1.007
2026/01/08 10:03:59.073,0.017,-0.001,1.01
2026/01/08 10:03:59.093,0.014,-0.001,1.011
2026/01/08 10:03:59.112,0.016,-0.001,1.008
2026/01/08 10:03:59.132,0.017,-0.001,1.005
2026/01/08 10:03:59.152,0.014,0.0,1.007
2026/01/08 10:03:59.172,0.018,-0.002,1.008
2026/01/08 10:03:59.192,0.016,-0.001,1.005
2026/01/08 10:03:59.212,0.017,-0.007,1.01
2026/01/08 10:03:59.232,0.014,-0.001,1.009
2026/01/08 10:03:59.252,0.016,-0.003,1.009
2026/01/08 10:03:59.272,0.016,-0.003,1.006
2026/01/08 10:03:59.292,0.015,-0.002,1.007
2026/01/08 10:03:59.312,0.016,0.0,1.006
2026/01/08 10:03:59.332,0.017,-0.001,1.008
2026/01/08 10:03:59.351,0.017,0.001,1.008
2026/01/08 10:03:59.371,0.014,-0.002,1.007
2026/01/08 10:03:59.391,0.017,0.0,1.007
2026/01/08 10:03:59.411,0.014,0.0,1.007
2026/01/08 10:03:59.431,0.018,-0.001,1.01
2026/01/08 10:03:59.451,0.018,0.0,1.007
2026/01/08 10:03:59.471,0.017,-0.004,1.012
2026/01/08 10:03:59.491,0.015,-0.003,1.006
2026/01/08 10:03:59.511,0.015,-0.002,1.009
2026/01/08 10:03:59.531,0.016,-0.002,1.007
2026/01/08 10:03:59.551,0.012,-0.001,1.008
2026/01/08 10:03:59.571,0.021,0.0,1.008
2026/01/08 10:03:59.591,0.019,-0.003,1.01
2026/01/08 10:03:59.610,0.014,-0.003,1.006
2026/01/08 10:03:59.630,0.017,0.003,1.006
2026/01/08 10:03:59.650,0.016,-0.003,1.009
2026/01/08 10:03:59.670,0.017,-0.002,1.005
2026/01/08 10:03:59.690,0.015,-0.001,1.008
2026/01/08 10:03:59.710,0.019,-0.002,1.007
2026/01/08 10:03:59.730,0.017,-0.004,1.01
2026/01/08 10:03:59.750,0.014,-0.006,1.005
2026/01/08 10:03:59.770,0.015,-0.004,1.007
2026/01/08 10:03:59.790,0.013,-0.002,1.007
2026/01/08 10:03:59.810,0.013,-0.002,1.006
2026/01/08 10:03:59.830,0.015,-0.006,1.008
2026/01/08 10:03:59.849,0.018,-0.001,1.008
2026/01/08 10:03:59.869,0.02,-0.003,1.008
2026/01/08 10:03:59.889,0.017,-0.001,1.014
2026/01/08 10:03:59.909,0.015,-0.003,1.005
2026/01/08 10:03:59.929,0.013,-0.002,1.009
2026/01/08 10:03:59.949,0.015,-0.001,1.01
2026/01/08 10:03:59.969,0.017,-0.001,1.007
2026/01/08 10:03:59.989,0.018,-0.002,1.007
2026/01/08 10:04:00.009,0.018,-0.001,1.007
2026/01/08 10:04:00.029,0.016,-0.001,1.007
2026/01/08 10:04:00.049,0.016,0.002,1.008
2026/01/08 10:04:00.069,0.018,0.001,1.01
2026/01/08 10:04:00.089,0.019,0.0,1.008
2026/01/08 10:04:00.108,0.014,-0.003,1.005
2026/01/08 10:04:00.128,0.018,-0.001,1.01
2026/01/08 10:04:00.148,0.014,-0.002,1.006
2026/01/08 10:04:00.168,0.016,-0.002,1.008
2026/01/08 10:04:00.188,0.018,0.0,1.008
2026/01/08 10:04:00.208,0.018,-0.001,1.005
2026/01/08 10:04:00.228,0.016,-0.004,1.009
2026/01/08 10:04:00.248,0.016,-0.002,1.005
2026/01/08 10:04:00.268,0.015,0.001,1.011
2026/01/08 10:04:00.288,0.012,-0.004,1.007
2026/01/08 10:04:00.308,0.015,-0.002,1.009
2026/01/08 10:04:00.328,0.018,0.001,1.007
2026/01/08 10:04:00.347,0.017,-0.002,1.007
2026/01/08 10:04:00.367,0.015,-0.005,1.009
2026/01/08 10:04:00.387,0.016,-0.001,1.009
2026/01/08 10:04:00.407,0.017,-0.005,1.009
2026/01/08 10:04:00.427,0.016,-0.003,1.011
2026/01/08 10:04:00.447,0.016,-0.003,1.009
2026/01/08 10:04:00.467,0.017,-0.003,1.007
2026/01/08 10:04:00.487,0.019,-0.001,1.008
2026/01/08 10:04:00.507,0.015,-0.003,1.008
2026/01/08 10:04:00.527,0.017,-0.001,1.009
2026/01/08 10:04:00.547,0.019,0.002,1.008
2026/01/08 10:04:00.567,0.016,-0.001,1.008
2026/01/08 10:04:00.586,0.015,-0.002,1.009
2026/01/08 10:04:00.606,0.013,-0.003,1.007
2026/01/08 10:04:00.626,0.017,-0.002,1.007
2026/01/08 10:04:00.646,0.017,0.002,1.007
2026/01/08 10:04:00.666,0.017,0.001,1.01
2026/01/08 10:04:00.686,0.018,0.0,1.005
2026/01/08 10:04:00.706,0.017,-0.004,1.007
2026/01/08 10:04:00.726,0.016,0.001,1.008
2026/01/08 10:04:00.746,0.017,-0.005,1.008
2026/01/08 10:04:00.766,0.016,-0.001,1.006
2026/01/08 10:04:00.786,0.015,-0.004,1.007
2026/01/08 10:04:00.806,0.017,-0.002,1.009
2026/01/08 10:04:00.826,0.019,-0.002,1.009
2026/01/08 10:04:00.845,0.016,-0.006,1.008
2026/01/08 10:04:00.865,0.019,-0.002,1.012
2026/01/08 10:04:00.885,0.015,-0.003,1.009
2026/01/08 10:04:00.905,0.019,-0.002,1.004
2026/01/08 10:04:00.925,0.017,-0.003,1.008
2026/01/08 10:04:00.945,0.017,0.0,1.009
2026/01/08 10:04:00.965,0.016,-0.001,1.005
2026/01/08 10:04:00.985,0.013,0.0,1.009
2026/01/08 10:04:01.005,0.013,-0.001,1.01
2026/01/08 10:04:01.025,0.015,-0.003,1.007
2026/01/08 10:04:01.045,0.015,0.002,1.01
2026/01/08 10:04:01.065,0.016,0.002,1.008
2026/01/08 10:04:01.084,0.016,-0.001,1.01
2026/01/08 10:04:01.104,0.017,-0.006,1.008
2026/01/08 10:04:01.124,0.017,0.001,1.005
2026/01/08 10:04:01.144,0.015,0.003,1.01
2026/01/08 10:04:01.164,0.017,-0.002,1.008
2026/01/08 10:04:01.184,0.015,-0.003,1.009
2026/01/08 10:04:01.204,0.016,-0.003,1.008
2026/01/08 10:04:01.224,0.02,-0.002,1.01
2026/01/08 10:04:01.244,0.017,0.002,1.007
2026/01/08 10:04:01.264,0.017,-0.003,1.008
2026/01/08 10:04:01.284,0.016,-0.002,1.003
2026/01/08 10:04:01.304,0.016,-0.003,1.008
2026/01/08 10:04:01.324,0.017,0.003,1.007
2026/01/08 10:04:01.343,0.019,0.0,1.006
2026/01/08 10:04:01.363,0.015,-0.002,1.008
2026/01/08 10:04:01.383,0.016,0.001,1.007
2026/01/08 10:04:01.403,0.016,0.0,1.009
2026/01/08 10:04:01.423,0.015,-0.001,1.007
2026/01/08 10:04:01.443,0.017,0.002,1.006
2026/01/08 10:04:01.463,0.017,-0.005,1.01
2026/01/08 10:04:01.483,0.014,-0.001,1.009
2026/01/08 10:04:01.503,0.017,-0.001,1.012
2026/01/08 10:04:01.523,0.017,-0.002,1.009
2026/01/08 10:04:01.543,0.016,-0.001,1.008
2026/01/08 10:04:01.563,0.018,-0.003,1.008
2026/01/08 10:04:01.582,0.02,-0.004,1.008
2026/01/08 10:04:01.602,0.016,-0.005,1.007
2026/01/08 10:04:01.622,0.015,-0.005,1.007
2026/01/08 10:04:01.642,0.013,-0.002,1.007
2026/01/08 10:04:01.662,0.018,-0.002,1.006
2026/01/08 10:04:01.682,0.017,0.001,1.01
2026/01/08 10:04:01.702,0.016,0.0,1.007
2026/01/08 10:04:01.722,0.016,-0.003,1.006
2026/01/08 10:04:01.742,0.019,-0.004,1.008
2026/01/08 10:04:01.762,0.014,-0.003,1.007
2026/01/08 10:04:01.782,0.021,-0.009,1.008
2026/01/08 10:04:01.802,0.017,-0.002,1.01
2026/01/08 10:04:01.822,0.016,-0.002,1.009
2026/01/08 10:04:01.841,0.019,-0.004,1.006
2026/01/08 10:04:01.861,0.015,0.0,1.008
2026/01/08 10:04:01.881,0.015,-0.003,1.008
2026/01/08 10:04:01.901,0.016,-0.002,1.009
2026/01/08 10:04:01.921,0.014,-0.001,1.006
2026/01/08 10:04:01.941,0.011,0.0,1.009
2026/01/08 10:04:01.961,0.015,-0.002,1.008
2026/01/08 10:04:01.981,0.012,-0.001,1.01
2026/01/08 10:04:02.001,0.016,-0.003,1.008
2026/01/08 10:04:02.021,0.016,0.002,1.006
2026/01/08 10:04:02.041,0.017,0.0,1.006
2026/01/08 10:04:02.061,0.017,-0.006,1.007
2026/01/08 10:04:02.080,0.019,-0.007,1.007
2026/01/08 10:04:02.100,0.016,-0.002,1.003
2026/01/08 10:04:02.120,0.015,-0.006,1.009
2026/01/08 10:04:02.140,0.014,0.0,1.007
2026/01/08 10:04:02.160,0.015,0.0,1.008
2026/01/08 10:04:02.180,0.017,-0.006,1.012
2026/01/08 10:04:02.200,0.012,-0.002,1.008
2026/01/08 10:04:02.220,0.015,-0.003,1.007
2026/01/08 10:04:02.240,0.018,-0.006,1.006
2026/01/08 10:04:02.260,0.018,-0.002,1.008
2026/01/08 10:04:02.280,0.019,0.0,1.008
2026/01/08 10:04:02.300,0.018,-0.001,1.005
2026/01/08 10:04:02.319,0.016,-0.003,1.009
2026/01/08 10:04:02.339,0.015,-0.004,1.005
2026/01/08 10:04:02.359,0.016,-0.004,1.009
2026/01/08 10:04:02.379,0.015,-0.001,1.008
2026/01/08 10:04:02.399,0.017,0.0,1.005
2026/01/08 10:04:02.419,0.015,-0.005,1.008
2026/01/08 10:04:02.439,0.015,-0.003,1.01
2026/01/08 10:04:02.459,0.019,-0.002,1.007
2026/01/08 10:04:02.479,0.02,-0.001,1.009
2026/01/08 10:04:02.499,0.018,-0.006,1.007
2026/01/08 10:04:02.519,0.015,-0.004,1.008
2026/01/08 10:04:02.539,0.02,-0.003,1.009
2026/01/08 10:04:02.559,0.017,-0.005,1.007
2026/01/08 10:04:02.578,0.018,-0.001,1.009
2026/01/08 10:04:02.598,0.016,-0.001,1.008
2026/01/08 10:04:02.618,0.016,-0.002,1.01
2026/01/08 10:04:02.638,0.018,-0.003,1.009
2026/01/08 10:04:02.658,0.015,-0.001,1.008
2026/01/08 10:04:02.678,0.017,0.002,1.007
2026/01/08 10:04:02.698,0.015,-0.001,1.008
2026/01/08 10:04:02.718,0.017,-0.001,1.012
2026/01/08 10:04:02.738,0.015,0.0,1.014
2026/01/08 10:04:02.758,0.017,-0.002,1.007
2026/01/08 10:04:02.778,0.017,-0.001,1.01
2026/01/08 10:04:02.798,0.016,0.001,1.009
2026/01/08 10:04:02.817,0.016,-0.005,1.01
2026/01/08 10:04:02.837,0.019,-0.001,1.008
2026/01/08 10:04:02.857,0.013,0.003,1.008
2026/01/08 10:04:02.877,0.013,0.0,1.008
2026/01/08 10:04:02.897,0.019,-0.001,1.007
2026/01/08 10:04:02.917,0.017,0.0,1.008
2026/01/08 10:04:02.937,0.018,0.0,1.004
2026/01/08 10:04:02.957,0.015,-0.003,1.006
2026/01/08 10:04:02.977,0.015,-0.003,1.005
2026/01/08 10:04:02.997,0.014,-0.002,1.008
2026/01/08 10:04:03.017,0.017,-0.003,1.011
2026/01/08 10:04:03.037,0.018,0.001,1.008
2026/01/08 10:04:03.057,0.017,-0.001,1.009
2026/01/08 10:04:03.076,0.014,0.002,1.005
2026/01/08 10:04:03.096,0.018,-0.002,1.01
2026/01/08 10:04:03.116,0.017,-0.002,1.01
2026/01/08 10:04:03.136,0.015,-0.004,1.007
2026/01/08 10:04:03.156,0.017,-0.001,1.008
2026/01/08 10:04:03.176,0.017,-0.001,1.007
2026/01/08 10:04:03.196,0.016,0.0,1.008
2026/01/08 10:04:03.216,0.014,0.002,1.008
2026/01/08 10:04:03.236,0.015,-0.002,1.007
2026/01/08 10:04:03.256,0.018,-0.002,1.007
2026/01/08 10:04:03.276,0.018,-0.002,1.006
2026/01/08 10:04:03.296,0.014,-0.003,1.007
2026/01/08 10:04:03.315,0.015,-0.004,1.008
2026/01/08 10:04:03.335,0.014,-0.003,1.007
2026/01/08 10:04:03.355,0.017,0.002,1.007
2026/01/08 10:04:03.375,0.015,-0.005,1.008
2026/01/08 10:04:03.395,0.018,-0.003,1.008
2026/01/08 10:04:03.415,0.018,-0.002,1.007
2026/01/08 10:04:03.435,0.018,-0.002,1.007
2026/01/08 10:04:03.455,0.018,-0.004,1.005
2026/01/08 10:04:03.475,0.016,-0.001,1.008
2026/01/08 10:04:03.495,0.018,0.0,1.008
2026/01/08 10:04:03.515,0.016,-0.005,1.006
2026/01/08 10:04:03.535,0.016,-0.001,1.007
2026/01/08 10:04:03.554,0.018,-0.003,1.008
2026/01/08 10:04:03.574,0.012,-0.003,1.006
2026/01/08 10:04:03.594,0.024,-0.008,1.012
2026/01/08 10:04:03.614,0.007,0.002,1.01
2026/01/08 10:04:03.634,0.02,-0.005,1.003
2026/01/08 10:04:03.654,0.013,-0.002,1.008
2026/01/08 10:04:03.674,0.015,-0.002,1.009
2026/01/08 10:04:03.694,0.016,-0.002,1.01
2026/01/08 10:04:03.714,0.015,0.005,1.007
2026/01/08 10:04:03.734,0.02,-0.005,1.005
2026/01/08 10:04:03.754,0.009,0.007,1.013
2026/01/08 10:04:03.774,0.019,0.0,1.007
2026/01/08 10:04:03.794,0.01,0.001,1.009
2026/01/08 10:04:03.813,0.021,0.0,1.008
2026/01/08 10:04:03.833,0.011,-0.001,1.008
2026/01/08 10:04:03.853,0.018,0.0,1.006
2026/01/08 10:04:03.873,0.015,-0.006,1.011
2026/01/08 10:04:03.893,0.019,-0.003,1.01
2026/01/08 10:04:03.913,0.009,0.001,1.009
2026/01/08 10:04:03.933,0.016,-0.003,1.005
2026/01/08 10:04:03.953,0.018,-0.002,1.007
2026/01/08 10:04:03.973,0.018,-0.002,1.007
2026/01/08 10:04:03.993,0.01,0.003,1.004
2026/01/08 10:04:04.013,0.018,-0.007,1.011
2026/01/08 10:04:04.033,0.017,0.0,1.004
2026/01/08 10:04:04.052,0.017,-0.001,1.011
2026/01/08 10:04:04.072,0.019,0.0,1.005
2026/01/08 10:04:04.092,0.015,-0.001,1.008
2026/01/08 10:04:04.112,0.019,0.0,1.007
2026/01/08 10:04:04.132,0.017,-0.002,1.007
2026/01/08 10:04:04.152,0.018,-0.004,1.009
2026/01/08 10:04:04.172,0.015,-0.001,1.012
2026/01/08 10:04:04.192,0.017,-0.004,1.005
2026/01/08 10:04:04.212,0.014,0.003,1.008
2026/01/08 10:04:04.232,0.019,-0.003,1.006
2026/01/08 10:04:04.252,0.018,0.002,1.012
2026/01/08 10:04:04.272,0.017,-0.002,1.009
2026/01/08 10:04:04.292,0.017,-0.007,1.01
2026/01/08 10:04:04.311,0.016,-0.001,1.007
2026/01/08 10:04:04.331,0.014,0.002,1.009
2026/01/08 10:04:04.351,0.017,0.001,1.006
2026/01/08 10:04:04.371,0.015,-0.003,1.012
2026/01/08 10:04:04.391,0.018,0.0,1.008
2026/01/08 10:04:04.411,0.013,-0.002,1.007
2026/01/08 10:04:04.431,0.016,-0.005,1.008
2026/01/08 10:04:04.451,0.014,-0.001,1.007
2026/01/08 10:04:04.471,0.015,-0.003,1.008
2026/01/08 10:04:04.491,0.014,0.002,1.007
2026/01/08 10:04:04.511,0.013,-0.002,1.009
2026/01/08 10:04:04.531,0.018,-0.001,1.006
2026/01/08 10:04:04.550,0.017,-0.004,1.01
2026/01/08 10:04:04.570,0.015,-0.001,1.009
2026/01/08 10:04:04.590,0.015,-0.001,1.005
2026/01/08 10:04:04.610,0.015,0.002,1.007
2026/01/08 10:04:04.630,0.016,-0.003,1.009
2026/01/08 10:04:04.650,0.019,0.0,1.007
2026/01/08 10:04:04.670,0.022,-0.003,1.01
2026/01/08 10:04:04.690,0.014,-0.006,1.006
2026/01/08 10:04:04.710,0.014,0.0,1.009
2026/01/08 10:04:04.730,0.015,-0.001,1.007
2026/01/08 10:04:04.750,0.015,-0.002,1.008
2026/01/08 10:04:04.770,0.019,-0.001,1.006
2026/01/08 10:04:04.789,0.014,-0.002,1.008
2026/01/08 10:04:04.809,0.017,-0.002,1.005
2026/01/08 10:04:04.829,0.018,0.0,1.009
2026/01/08 10:04:04.849,0.017,-0.003,1.007
2026/01/08 10:04:04.869,0.016,-0.001,1.011
2026/01/08 10:04:04.889,0.018,-0.001,1.009
2026/01/08 10:04:04.909,0.016,-0.001,1.008
2026/01/08 10:04:04.929,0.015,-0.002,1.008
2026/01/08 10:04:04.949,0.018,-0.003,1.013
2026/01/08 10:04:04.969,0.017,0.001,1.003
2026/01/08 10:04:04.989,0.017,-0.003,1.009
2026/01/08 10:04:05.009,0.016,-0.001,1.003
2026/01/08 10:04:05.029,0.014,0.002,1.01
2026/01/08 10:04:05.048,0.017,0.0,1.006
2026/01/08 10:04:05.068,0.016,0.0,1.008
2026/01/08 10:04:05.088,0.013,-0.001,1.009
2026/01/08 10:04:05.108,0.019,0.0,1.008
2026/01/08 10:04:05.128,0.016,-0.002,1.005
2026/01/08 10:04:05.148,0.017,0.005,1.01
2026/01/08 10:04:05.168,0.016,-0.004,1.01
2026/01/08 10:04:05.188,0.016,-0.004,1.006
2026/01/08 10:04:05.208,0.014,-0.001,1.011
2026/01/08 10:04:05.228,0.014,-0.003,1.006
2026/01/08 10:04:05.248,0.013,0.001,1.01
2026/01/08 10:04:05.268,0.017,-0.004,1.008
2026/01/08 10:04:05.287,0.02,-0.004,1.003
2026/01/08 10:04:05.307,0.012,-0.003,1.008
2026/01/08 10:04:05.327,0.016,0.0,1.008
2026/01/08 10:04:05.347,0.017,-0.003,1.008
2026/01/08 10:04:05.367,0.013,-0.003,1.006
2026/01/08 10:04:05.387,0.016,-0.003,1.003
2026/01/08 10:04:05.407,0.015,-0.001,1.011
2026/01/08 10:04:05.427,0.016,-0.001,1.009
2026/01/08 10:04:05.447,0.02,-0.001,1.009
2026/01/08 10:04:05.467,0.013,-0.003,1.008
2026/01/08 10:04:05.487,0.019,0.0,1.007
2026/01/08 10:04:05.507,0.013,0.001,1.01
2026/01/08 10:04:05.526,0.015,-0.002,1.008
2026/01/08 10:04:05.546,0.017,0.0,1.009
2026/01/08 10:04:05.566,0.016,-0.001,1.006
2026/01/08 10:04:05.586,0.013,-0.001,1.009
2026/01/08 10:04:05.606,0.015,-0.002,1.007
2026/01/08 10:04:05.626,0.016,0.0,1.009
2026/01/08 10:04:05.646,0.019,-0.001,1.01
2026/01/08 10:04:05.666,0.015,-0.001,1.01
2026/01/08 10:04:05.686,0.015,-0.004,1.009
2026/01/08 10:04:05.706,0.015,-0.002,1.008
2026/01/08 10:04:05.726,0.019,0.0,1.011
2026/01/08 10:04:05.746,0.018,-0.002,1.008
2026/01/08 10:04:05.766,0.017,0.001,1.009
2026/01/08 10:04:05.785,0.014,-0.001,1.007
2026/01/08 10:04:05.805,0.017,-0.002,1.008
2026/01/08 10:04:05.825,0.014,0.001,1.003
2026/01/08 10:04:05.845,0.017,-0.003,1.006
2026/01/08 10:04:05.865,0.017,0.0,1.004
2026/01/08 10:04:05.885,0.015,0.002,1.008
2026/01/08 10:04:05.905,0.015,-0.003,1.005
2026/01/08 10:04:05.925,0.016,-0.004,1.009
2026/01/08 10:04:05.945,0.013,0.0,1.006
2026/01/08 10:04:05.965,0.02,-0.002,1.007
2026/01/08 10:04:05.985,0.019,-0.003,1.01
2026/01/08 10:04:06.005,0.015,0.001,1.005
2026/01/08 10:04:06.024,0.016,-0.002,1.012
2026/01/08 10:04:06.044,0.019,-0.002,1.006
2026/01/08 10:04:06.064,0.013,-0.002,1.006
2026/01/08 10:04:06.084,0.012,0.0,1.008
2026/01/08 10:04:06.104,0.015,-0.001,1.007
2026/01/08 10:04:06.124,0.015,0.0,1.009
2026/01/08 10:04:06.144,0.014,-0.001,1.01
2026/01/08 10:04:06.164,0.016,-0.003,1.003
2026/01/08 10:04:06.184,0.017,-0.002,1.007
2026/01/08 10:04:06.204,0.016,-0.002,1.004
2026/01/08 10:04:06.224,0.018,-0.004,1.008
2026/01/08 10:04:06.244,0.014,-0.001,1.007
2026/01/08 10:04:06.264,0.015,-0.005,1.009
2026/01/08 10:04:06.283,0.016,-0.002,1.008
2026/01/08 10:04:06.303,0.013,-0.001,1.008
2026/01/08 10:04:06.323,0.014,0.0,1.008
2026/01/08 10:04:06.343,0.014,-0.001,1.01
2026/01/08 10:04:06.363,0.016,-0.002,1.006
2026/01/08 10:04:06.383,0.014,-0.003,1.008
2026/01/08 10:04:06.403,0.015,-0.002,1.005
2026/01/08 10:04:06.423,0.017,0.001,1.008
2026/01/08 10:04:06.443,0.018,0.002,1.006
2026/01/08 10:04:06.463,0.018,-0.005,1.008
2026/01/08 10:04:06.483,0.017,-0.001,1.009
2026/01/08 10:04:06.503,0.017,0.001,1.008
2026/01/08 10:04:06.522,0.015,-0.003,1.005
2026/01/08 10:04:06.542,0.015,-0.001,1.008
2026/01/08 10:04:06.562,0.014,0.002,1.008
2026/01/08 10:04:06.582,0.017,0.0,1.008
2026/01/08 10:04:06.602,0.018,-0.002,1.007
2026/01/08 10:04:06.622,0.013,-0.003,1.008
2026/01/08 10:04:06.642,0.014,-0.001,1.01
2026/01/08 10:04:06.662,0.019,0.002,1.008
2026/01/08 10:04:06.682,0.015,-0.001,1.006
2026/01/08 10:04:06.702,0.015,-0.002,1.006
2026/01/08 10:04:06.722,0.017,-0.006,1.007
2026/01/08 10:04:06.742,0.018,-0.004,1.006
2026/01/08 10:04:06.761,0.017,-0.001,1.009
2026/01/08 10:04:06.781,0.015,0.0,1.007
2026/01/08 10:04:06.801,0.016,-0.004,1.007
2026/01/08 10:04:06.821,0.019,-0.003,1.008
2026/01/08 10:04:06.841,0.019,-0.002,1.004
2026/01/08 10:04:06.861,0.016,-0.004,1.006
2026/01/08 10:04:06.881,0.013,-0.002,1.007
2026/01/08 10:04:06.901,0.018,-0.004,1.007
2026/01/08 10:04:06.921,0.014,0.001,1.006
2026/01/08 10:04:06.941,0.014,0.001,1.013
2026/01/08 10:04:06.961,0.015,0.002,1.007
2026/01/08 10:04:06.981,0.016,0.001,1.006
2026/01/08 10:04:07.001,0.017,0.001,1.01
2026/01/08 10:04:07.020,0.021,-0.003,1.008
2026/01/08 10:04:07.040,0.017,-0.002,1.007
2026/01/08 10:04:07.060,0.018,0.0,1.007
2026/01/08 10:04:07.080,0.018,0.002,1.009
2026/01/08 10:04:07.100,0.015,-0.004,1.01
2026/01/08 10:04:07.120,0.016,-0.001,1.009
2026/01/08 10:04:07.140,0.016,-0.003,1.007
2026/01/08 10:04:07.160,0.02,0.0,1.006
2026/01/08 10:04:07.180,0.013,-0.002,1.011
2026/01/08 10:04:07.200,0.014,-0.004,1.007
2026/01/08 10:04:07.220,0.015,-0.005,1.009
2026/01/08 10:04:07.240,0.017,-0.003,1.01
2026/01/08 10:04:07.259,0.019,-0.005,1.007
2026/01/08 10:04:07.279,0.016,0.001,1.008
2026/01/08 10:04:07.299,0.018,-0.005,1.006
2026/01/08 10:04:07.319,0.018,-0.004,1.006
2026/01/08 10:04:07.339,0.013,0.0,1.01
2026/01/08 10:04:07.359,0.014,-0.006,1.009
2026/01/08 10:04:07.379,0.015,-0.003,1.007
2026/01/08 10:04:07.399,0.016,-0.004,1.008
2026/01/08 10:04:07.419,0.019,-0.002,1.007
2026/01/08 10:04:07.439,0.017,-0.002,1.008
2026/01/08 10:04:07.459,0.018,-0.004,1.009
2026/01/08 10:04:07.479,0.018,0.0,1.005
2026/01/08 10:04:07.499,0.016,-0.005,1.007
2026/01/08 10:04:07.518,0.017,-0.003,1.01
2026/01/08 10:04:07.538,0.014,0.0,1.007
2026/01/08 10:04:07.558,0.017,0.001,1.008
2026/01/08 10:04:07.578,0.017,-0.003,1.009
2026/01/08 10:04:07.598,0.018,0.004,1.008
2026/01/08 10:04:07.618,0.013,-0.003,1.007
2026/01/08 10:04:07.638,0.017,-0.003,1.009
2026/01/08 10:04:07.658,0.018,-0.001,1.005
2026/01/08 10:04:07.678,0.019,-0.001,1.007
2026/01/08 10:04:07.698,0.018,0.001,1.003
2026/01/08 10:04:07.718,0.017,-0.003,1.008
2026/01/08 10:04:07.738,0.019,-0.002,1.011
2026/01/08 10:04:07.757,0.016,0.0,1.008
2026/01/08 10:04:07.777,0.017,-0.001,1.006
2026/01/08 10:04:07.797,0.011,0.001,1.008
2026/01/08 10:04:07.817,0.017,-0.003,1.004
2026/01/08 10:04:07.837,0.016,-0.001,1.004
2026/01/08 10:04:07.857,0.018,-0.002,1.009
2026/01/08 10:04:07.877,0.019,-0.001,1.009
2026/01/08 10:04:07.897,0.016,0.002,1.004
2026/01/08 10:04:07.917,0.017,0.0,1.008
2026/01/08 10:04:07.937,0.018,-0.002,1.008
2026/01/08 10:04:07.957,0.017,-0.004,1.009
2026/01/08 10:04:07.977,0.017,0.0,1.009
2026/01/08 10:04:07.996,0.014,-0.004,1.007
2026/01/08 10:04:08.016,0.016,-0.004,1.008
2026/01/08 10:04:08.036,0.017,-0.004,1.008
2026/01/08 10:04:08.056,0.018,-0.003,1.008
2026/01/08 10:04:08.076,0.017,0.0,1.009
2026/01/08 10:04:08.096,0.017,0.002,1.008
2026/01/08 10:04:08.116,0.016,0.0,1.008
2026/01/08 10:04:08.136,0.018,-0.002,1.007
2026/01/08 10:04:08.156,0.016,-0.001,1.007
2026/01/08 10:04:08.176,0.019,0.0,1.01
2026/01/08 10:04:08.196,0.016,-0.005,1.007
2026/01/08 10:04:08.216,0.014,-0.001,1.01
2026/01/08 10:04:08.236,0.014,-0.003,1.005
2026/01/08 10:04:08.255,0.02,-0.001,1.011
2026/01/08 10:04:08.275,0.017,-0.001,1.008
2026/01/08 10:04:08.295,0.017,-0.002,1.008
2026/01/08 10:04:08.315,0.017,0.0,1.006
2026/01/08 10:04:08.335,0.019,0.002,1.009
2026/01/08 10:04:08.355,0.015,-0.005,1.01
2026/01/08 10:04:08.375,0.017,-0.002,1.008
2026/01/08 10:04:08.395,0.014,-0.005,1.009
2026/01/08 10:04:08.415,0.016,-0.005,1.011
2026/01/08 10:04:08.435,0.015,0.0,1.006
2026/01/08 10:04:08.455,0.017,-0.004,1.006
2026/01/08 10:04:08.475,0.016,-0.003,1.01
2026/01/08 10:04:08.494,0.018,0.001,1.009
2026/01/08 10:04:08.514,0.017,-0.004,1.009
2026/01/08 10:04:08.534,0.014,-0.003,1.01
2026/01/08 10:04:08.554,0.014,-0.003,1.007
2026/01/08 10:04:08.574,0.013,-0.005,1.004
2026/01/08 10:04:08.594,0.016,0.0,1.01
2026/01/08 10:04:08.614,0.018,-0.001,1.01
2026/01/08 10:04:08.634,0.018,-0.003,1.011
2026/01/08 10:04:08.654,0.013,0.001,1.008
2026/01/08 10:04:08.674,0.019,-0.003,1.005
2026/01/08 10:04:08.694,0.015,-0.002,1.002
2026/01/08 10:04:08.714,0.017,-0.005,1.01
2026/01/08 10:04:08.734,0.018,-0.002,1.007
2026/01/08 10:04:08.753,0.018,0.003,1.007
2026/01/08 10:04:08.773,0.014,-0.001,1.011
2026/01/08 10:04:08.793,0.016,-0.002,1.005
2026/01/08 10:04:08.813,0.019,0.0,1.01
2026/01/08 10:04:08.833,0.018,-0.002,1.009
2026/01/08 10:04:08.853,0.017,-0.002,1.009
2026/01/08 10:04:08.873,0.015,-0.001,1.008
2026/01/08 10:04:08.893,0.016,0.003,1.008
2026/01/08 10:04:08.913,0.016,-0.003,1.008
2026/01/08 10:04:08.933,0.015,-0.003,1.008
2026/01/08 10:04:08.953,0.017,-0.003,1.006
2026/01/08 10:04:08.973,0.015,-0.002,1.006
2026/01/08 10:04:08.992,0.017,-0.002,1.008
2026/01/08 10:04:09.012,0.017,-0.001,1.003
2026/01/08 10:04:09.032,0.017,-0.001,1.012
2026/01/08 10:04:09.052,0.017,-0.002,1.007
2026/01/08 10:04:09.072,0.018,-0.002,1.009
2026/01/08 10:04:09.092,0.018,-0.001,1.01
2026/01/08 10:04:09.112,0.019,-0.002,1.007
2026/01/08 10:04:09.132,0.016,-0.001,1.007
2026/01/08 10:04:09.152,0.015,0.001,1.007
2026/01/08 10:04:09.172,0.014,-0.003,1.009
2026/01/08 10:04:09.192,0.019,-0.003,1.007
2026/01/08 10:04:09.212,0.016,-0.005,1.007
2026/01/08 10:04:09.232,0.013,-0.001,1.01
2026/01/08 10:04:09.251,0.014,-0.001,1.008
2026/01/08 10:04:09.271,0.019,-0.003,1.007
2026/01/08 10:04:09.291,0.015,-0.002,1.008
2026/01/08 10:04:09.311,0.016,0.001,1.01
2026/01/08 10:04:09.331,0.017,0.001,1.011
2026/01/08 10:04:09.351,0.016,-0.005,1.009
2026/01/08 10:04:09.371,0.017,-0.005,1.007
2026/01/08 10:04:09.391,0.015,-0.001,1.008
2026/01/08 10:04:09.411,0.014,-0.002,1.008
2026/01/08 10:04:09.431,0.019,-0.002,1.006
2026/01/08 10:04:09.451,0.016,-0.001,1.005
2026/01/08 10:04:09.471,0.016,-0.003,1.005
2026/01/08 10:04:09.490,0.017,-0.004,1.009
2026/01/08 10:04:09.510,0.017,-0.001,1.008
2026/01/08 10:04:09.530,0.011,-0.003,1.007
2026/01/08 10:04:09.550,0.018,-0.002,1.008
2026/01/08 10:04:09.570,0.018,-0.001,1.006
2026/01/08 10:04:09.590,0.016,-0.004,1.007
2026/01/08 10:04:09.610,0.017,0.001,1.006
2026/01/08 10:04:09.630,0.016,-0.003,1.009
2026/01/08 10:04:09.650,0.02,0.002,1.008
2026/01/08 10:04:09.670,0.015,0.0,1.009
2026/01/08 10:04:09.690,0.016,-0.003,1.006
2026/01/08 10:04:09.710,0.017,0.0,1.009
2026/01/08 10:04:09.729,0.018,-0.003,1.011
2026/01/08 10:04:09.749,0.012,-0.004,1.011
2026/01/08 10:04:09.769,0.018,-0.002,1.012
2026/01/08 10:04:09.789,0.017,0.0,1.004
2026/01/08 10:04:09.809,0.013,-0.002,1.008
2026/01/08 10:04:09.829,0.018,0.003,1.009
2026/01/08 10:04:09.849,0.016,0.001,1.009
2026/01/08 10:04:09.869,0.017,0.002,1.011
2026/01/08 10:04:09.889,0.017,-0.004,1.009
2026/01/08 10:04:09.909,0.014,-0.002,1.012
2026/01/08 10:04:09.929,0.019,-0.003,1.008
2026/01/08 10:04:09.949,0.017,-0.003,1.008
2026/01/08 10:04:09.969,0.018,-0.003,1.008
2026/01/08 10:04:09.988,0.018,-0.002,1.007
2026/01/08 10:04:10.008,0.018,-0.001,1.005
2026/01/08 10:04:10.028,0.02,-0.005,1.012
2026/01/08 10:04:10.048,0.019,-0.001,1.009
2026/01/08 10:04:10.068,0.015,-0.002,1.008
2026/01/08 10:04:10.088,0.02,-0.001,1.008
2026/01/08 10:04:10.108,0.015,-0.002,1.008
2026/01/08 10:04:10.128,0.017,0.0,1.009
2026/01/08 10:04:10.148,0.017,0.001,1.01
2026/01/08 10:04:10.168,0.016,0.001,1.004
2026/01/08 10:04:10.188,0.016,0.002,1.007
2026/01/08 10:04:10.208,0.017,-0.002,1.009
2026/01/08 10:04:10.227,0.016,-0.002,1.008
2026/01/08 10:04:10.247,0.018,-0.004,1.01
2026/01/08 10:04:10.267,0.014,-0.002,1.006
2026/01/08 10:04:10.287,0.016,-0.003,1.008
2026/01/08 10:04:10.307,0.021,-0.001,1.006
2026/01/08 10:04:10.327,0.017,0.0,1.011
2026/01/08 10:04:10.347,0.02,-0.001,1.006
2026/01/08 10:04:10.367,0.017,-0.002,1.007
2026/01/08 10:04:10.387,0.016,-0.001,1.009
2026/01/08 10:04:10.407,0.015,-0.003,1.008
2026/01/08 10:04:10.427,0.017,-0.006,1.007
2026/01/08 10:04:10.447,0.018,0.0,1.006
2026/01/08 10:04:10.467,0.015,-0.005,1.006
2026/01/08 10:04:10.486,0.016,-0.004,1.007
2026/01/08 10:04:10.506,0.017,-0.003,1.007
2026/01/08 10:04:10.526,0.012,-0.001,1.005
2026/01/08 10:04:10.546,0.015,0.0,1.009
2026/01/08 10:04:10.566,0.014,-0.003,1.005
2026/01/08 10:04:10.586,0.018,-0.003,1.01
2026/01/08 10:04:10.606,0.019,-0.006,1.009
2026/01/08 10:04:10.626,0.015,-0.004,1.01
2026/01/08 10:04:10.646,0.017,-0.004,1.006
2026/01/08 10:04:10.666,0.015,0.0,1.011
2026/01/08 10:04:10.686,0.016,0.0,1.007
2026/01/08 10:04:10.706,0.016,-0.003,1.006
2026/01/08 10:04:10.725,0.015,-0.002,1.008
2026/01/08 10:04:10.745,0.019,-0.001,1.007
2026/01/08 10:04:10.765,0.014,-0.001,1.008
2026/01/08 10:04:10.785,0.017,-0.002,1.009
2026/01/08 10:04:10.805,0.018,-0.002,1.009
2026/01/08 10:04:10.825,0.02,-0.004,1.012
2026/01/08 10:04:10.845,0.018,-0.003,1.006
2026/01/08 10:04:10.865,0.015,0.0,1.008
2026/01/08 10:04:10.885,0.015,-0.001,1.006
2026/01/08 10:04:10.905,0.018,-0.007,1.008
2026/01/08 10:04:10.925,0.016,-0.003,1.01
2026/01/08 10:04:10.945,0.018,0.003,1.006
2026/01/08 10:04:10.965,0.015,-0.004,1.007
2026/01/08 10:04:10.984,0.017,-0.002,1.006
2026/01/08 10:04:11.004,0.019,-0.002,1.007
2026/01/08 10:04:11.024,0.017,-0.002,1.009
2026/01/08 10:04:11.044,0.017,0.0,1.006
2026/01/08 10:04:11.064,0.016,-0.002,1.007
2026/01/08 10:04:11.084,0.016,0.001,1.01
2026/01/08 10:04:11.104,0.016,0.0,1.01
2026/01/08 10:04:11.124,0.015,-0.005,1.004
2026/01/08 10:04:11.144,0.013,-0.002,1.007
2026/01/08 10:04:11.164,0.017,-0.004,1.01
2026/01/08 10:04:11.184,0.015,-0.003,1.012
2026/01/08 10:04:11.204,0.015,-0.002,1.01
2026/01/08 10:04:11.223,0.018,-0.004,1.009
2026/01/08 10:04:11.243,0.015,-0.002,1.008
2026/01/08 10:04:11.263,0.014,-0.002,1.008
2026/01/08 10:04:11.283,0.017,0.0,1.009
2026/01/08 10:04:11.303,0.016,-0.002,1.01
2026/01/08 10:04:11.323,0.017,0.001,1.007
2026/01/08 10:04:11.343,0.015,-0.004,1.009
2026/01/08 10:04:11.363,0.016,-0.002,1.008
2026/01/08 10:04:11.383,0.019,0.002,1.009
2026/01/08 10:04:11.403,0.018,-0.004,1.01
2026/01/08 10:04:11.423,0.015,0.001,1.009
2026/01/08 10:04:11.443,0.015,-0.002,1.013
2026/01/08 10:04:11.462,0.017,-0.001,1.007
2026/01/08 10:04:11.482,0.019,-0.001,1.007
2026/01/08 10:04:11.502,0.015,-0.005,1.009
2026/01/08 10:04:11.522,0.02,-0.002,1.001
2026/01/08 10:04:11.542,0.015,-0.004,1.008
2026/01/08 10:04:11.562,0.017,-0.001,1.012
2026/01/08 10:04:11.582,0.016,-0.005,1.009
2026/01/08 10:04:11.602,0.016,-0.005,1.008
2026/01/08 10:04:11.622,0.017,-0.001,1.01
2026/01/08 10:04:11.642,0.017,-0.006,1.009
2026/01/08 10:04:11.662,0.018,-0.002,1.007
2026/01/08 10:04:11.682,0.015,0.003,1.009
2026/01/08 10:04:11.702,0.015,0.0,1.006
2026/01/08 10:04:11.721,0.021,-0.003,1.008
2026/01/08 10:04:11.741,0.015,-0.001,1.004
2026/01/08 10:04:11.761,0.019,0.003,1.008
2026/01/08 10:04:11.781,0.011,0.001,1.006
2026/01/08 10:04:11.801,0.011,0.002,1.006
2026/01/08 10:04:11.821,0.015,-0.002,1.01
2026/01/08 10:04:11.841,0.017,-0.004,1.008
2026/01/08 10:04:11.861,0.02,-0.003,1.007
2026/01/08 10:04:11.881,0.019,-0.002,1.006
2026/01/08 10:04:11.901,0.021,-0.003,1.007
2026/01/08 10:04:11.921,0.021,0.0,1.009
2026/01/08 10:04:11.941,0.018,-0.004,1.009
2026/01/08 10:04:11.960,0.019,-0.003,1.008
2026/01/08 10:04:11.980,0.017,0.003,1.007
2026/01/08 10:04:12.000,0.015,-0.003,1.01
2026/01/08 10:04:12.020,0.015,-0.004,1.009
2026/01/08 10:04:12.040,0.018,-0.002,1.008
2026/01/08 10:04:12.060,0.015,0.0,1.006
2026/01/08 10:04:12.080,0.014,0.001,1.009
2026/01/08 10:04:12.100,0.018,0.0,1.005
2026/01/08 10:04:12.120,0.016,0.003,1.01
2026/01/08 10:04:12.140,0.013,-0.002,1.006
2026/01/08 10:04:12.160,0.018,0.001,1.008
2026/01/08 10:04:12.180,0.014,-0.007,1.008
2026/01/08 10:04:12.200,0.015,-0.001,1.008
2026/01/08 10:04:12.219,0.016,-0.007,1.011
2026/01/08 10:04:12.239,0.013,0.0,1.006
2026/01/08 10:04:12.259,0.015,-0.001,1.009
2026/01/08 10:04:12.279,0.017,0.001,1.008
2026/01/08 10:04:12.299,0.015,-0.002,1.007
2026/01/08 10:04:12.319,0.017,0.002,1.007
2026/01/08 10:04:12.339,0.016,-0.002,1.007
2026/01/08 10:04:12.359,0.015,-0.001,1.005
2026/01/08 10:04:12.379,0.02,-0.001,1.006
2026/01/08 10:04:12.399,0.016,0.001,1.005
2026/01/08 10:04:12.419,0.015,-0.001,1.007
2026/01/08 10:04:12.439,0.017,0.003,1.008
2026/01/08 10:04:12.458,0.016,-0.001,1.012
2026/01/08 10:04:12.478,0.016,-0.002,1.008
2026/01/08 10:04:12.498,0.016,0.003,1.009
2026/01/08 10:04:12.518,0.02,0.001,1.009
2026/01/08 10:04:12.538,0.017,-0.003,1.009
2026/01/08 10:04:12.558,0.016,-0.001,1.009
2026/01/08 10:04:12.578,0.016,-0.005,1.008
2026/01/08 10:04:12.598,0.018,-0.002,1.009
2026/01/08 10:04:12.618,0.018,0.002,1.011
2026/01/08 10:04:12.638,0.016,-0.003,1.009
2026/01/08 10:04:12.658,0.012,-0.002,1.009
2026/01/08 10:04:12.678,0.016,-0.001,1.007
2026/01/08 10:04:12.698,0.017,-0.003,1.009
2026/01/08 10:04:12.717,0.016,-0.001,1.011
2026/01/08 10:04:12.737,0.017,-0.001,1.006
2026/01/08 10:04:12.757,0.017,0.0,1.008
2026/01/08 10:04:12.777,0.018,0.0,1.01
2026/01/08 10:04:12.797,0.02,0.001,1.01
2026/01/08 10:04:12.817,0.017,-0.003,1.01
2026/01/08 10:04:12.837,0.017,-0.004,1.01
2026/01/08 10:04:12.857,0.016,-0.003,1.005
2026/01/08 10:04:12.877,0.016,-0.001,1.006
2026/01/08 10:04:12.897,0.021,-0.004,1.01
2026/01/08 10:04:12.917,0.019,-0.002,1.007
2026/01/08 10:04:12.937,0.017,-0.003,1.007
2026/01/08 10:04:12.956,0.018,-0.001,1.004
2026/01/08 10:04:12.976,0.017,0.001,1.006
2026/01/08 10:04:12.996,0.015,-0.002,1.008
2026/01/08 10:04:13.016,0.02,0.001,1.009
2026/01/08 10:04:13.036,0.016,-0.004,1.01
2026/01/08 10:04:13.056,0.019,-0.003,1.007
2026/01/08 10:04:13.076,0.013,0.001,1.007
2026/01/08 10:04:13.096,0.018,0.0,1.008
2026/01/08 10:04:13.116,0.023,-0.001,1.008
2026/01/08 10:04:13.136,0.017,0.0,1.011
2026/01/08 10:04:13.156,0.016,-0.001,1.007
2026/01/08 10:04:13.176,0.017,-0.001,1.008
2026/01/08 10:04:13.196,0.016,-0.005,1.011
2026/01/08 10:04:13.215,0.017,-0.004,1.003
2026/01/08 10:04:13.235,0.014,-0.005,1.005
2026/01/08 10:04:13.255,0.017,-0.001,1.007
2026/01/08 10:04:13.275,0.018,0.002,1.009
2026/01/08 10:04:13.295,0.014,-0.004,1.011
2026/01/08 10:04:13.315,0.017,-0.002,1.009
2026/01/08 10:04:13.335,0.013,-0.007,1.007
2026/01/08 10:04:13.355,0.016,-0.002,1.008
2026/01/08 10:04:13.375,0.015,-0.001,1.005
2026/01/08 10:04:13.395,0.016,-0.001,1.007
2026/01/08 10:04:13.415,0.017,-0.004,1.006
2026/01/08 10:04:13.435,0.017,-0.004,1.008
2026/01/08 10:04:13.454,0.018,-0.002,1.012
2026/01/08 10:04:13.474,0.016,-0.003,1.01
2026/01/08 10:04:13.494,0.016,-0.001,1.006
2026/01/08 10:04:13.514,0.013,0.0,1.009
2026/01/08 10:04:13.534,0.019,-0.001,1.01
2026/01/08 10:04:13.554,0.016,0.0,1.009
2026/01/08 10:04:13.574,0.015,-0.002,1.01
2026/01/08 10:04:13.594,0.018,-0.001,1.011
2026/01/08 10:04:13.614,0.017,-0.005,1.007
2026/01/08 10:04:13.634,0.016,0.001,1.01
2026/01/08 10:04:13.654,0.016,-0.003,1.005
2026/01/08 10:04:13.674,0.016,-0.004,1.006
2026/01/08 10:04:13.694,0.016,-0.002,1.008
2026/01/08 10:04:13.713,0.017,-0.002,1.006
2026/01/08 10:04:13.733,0.016,-0.004,1.008
2026/01/08 10:04:13.753,0.016,-0.001,1.005
2026/01/08 10:04:13.773,0.018,-0.001,1.007
2026/01/08 10:04:13.793,0.019,-0.002,1.008
2026/01/08 10:04:13.813,0.014,-0.002,1.009
2026/01/08 10:04:13.833,0.017,-0.002,1.008
2026/01/08 10:04:13.853,0.016,0.002,1.011
2026/01/08 10:04:13.873,0.016,-0.003,1.009
2026/01/08 10:04:13.893,0.018,-0.002,1.01
2026/01/08 10:04:13.913,0.017,-0.002,1.01
2026/01/08 10:04:13.933,0.017,-0.002,1.009
2026/01/08 10:04:13.952,0.017,-0.004,1.008
2026/01/08 10:04:13.972,0.018,-0.001,1.008
2026/01/08 10:04:13.992,0.016,-0.001,1.005
2026/01/08 10:04:14.012,0.018,0.001,1.007
2026/01/08 10:04:14.032,0.017,-0.003,1.009
2026/01/08 10:04:14.052,0.018,-0.003,1.011
2026/01/08 10:04:14.072,0.02,0.005,1.007
2026/01/08 10:04:14.092,0.016,-0.002,1.006
2026/01/08 10:04:14.112,0.018,-0.001,1.005
2026/01/08 10:04:14.132,0.016,-0.002,1.011
2026/01/08 10:04:14.152,0.02,-0.004,1.008
2026/01/08 10:04:14.172,0.017,-0.001,1.005
2026/01/08 10:04:14.191,0.015,-0.001,1.008
2026/01/08 10:04:14.211,0.017,0.0,1.009
2026/01/08 10:04:14.231,0.013,-0.002,1.009
2026/01/08 10:04:14.251,0.016,-0.002,1.01
2026/01/08 10:04:14.271,0.014,-0.001,1.008
2026/01/08 10:04:14.291,0.017,0.0,1.004
2026/01/08 10:04:14.311,0.015,-0.001,1.009
2026/01/08 10:04:14.331,0.017,-0.002,1.008
2026/01/08 10:04:14.351,0.011,0.001,1.01
2026/01/08 10:04:14.371,0.014,-0.004,1.006
2026/01/08 10:04:14.391,0.012,-0.003,1.009
2026/01/08 10:04:14.411,0.015,-0.002,1.008
2026/01/08 10:04:14.431,0.014,-0.001,1.007
2026/01/08 10:04:14.450,0.015,-0.002,1.009
2026/01/08 10:04:14.470,0.015,-0.002,1.008
2026/01/08 10:04:14.490,0.018,0.002,1.008
2026/01/08 10:04:14.510,0.015,-0.003,1.009
2026/01/08 10:04:14.530,0.019,-0.006,1.009
2026/01/08 10:04:14.550,0.014,-0.003,1.006
2026/01/08 10:04:14.570,0.02,-0.002,1.007
2026/01/08 10:04:14.590,0.018,-0.007,1.01
2026/01/08 10:04:14.610,0.016,-0.004,1.008
2026/01/08 10:04:14.630,0.017,-0.001,1.007
2026/01/08 10:04:14.650,0.014,-0.005,1.009
2026/01/08 10:04:14.670,0.014,0.0,1.008
2026/01/08 10:04:14.689,0.017,-0.004,1.008
2026/01/08 10:04:14.709,0.014,0.001,1.008
2026/01/08 10:04:14.729,0.018,0.0,1.012
2026/01/08 10:04:14.749,0.021,-0.001,1.006
2026/01/08 10:04:14.769,0.016,-0.001,1.008
2026/01/08 10:04:14.789,0.017,-0.002,1.008
2026/01/08 10:04:14.809,0.018,-0.001,1.005
2026/01/08 10:04:14.829,0.019,-0.004,1.009
2026/01/08 10:04:14.849,0.016,-0.004,1.009
2026/01/08 10:04:14.869,0.017,-0.003,1.009
2026/01/08 10:04:14.889,0.017,-0.001,1.005
2026/01/08 10:04:14.909,0.016,-0.003,1.005
2026/01/08 10:04:14.929,0.017,-0.002,1.007
2026/01/08 10:04:14.948,0.017,-0.002,1.006
2026/01/08 10:04:14.968,0.016,0.002,1.007
2026/01/08 10:04:14.988,0.015,-0.001,1.007
2026/01/08 10:04:15.008,0.015,0.0,1.01
2026/01/08 10:04:15.028,0.016,-0.003,1.01
2026/01/08 10:04:15.048,0.015,-0.002,1.008
2026/01/08 10:04:15.068,0.016,-0.004,1.008
2026/01/08 10:04:15.088,0.02,0.002,1.006
2026/01/08 10:04:15.108,0.017,-0.002,1.008
2026/01/08 10:04:15.128,0.019,-0.002,1.008
2026/01/08 10:04:15.148,0.014,-0.003,1.005
2026/01/08 10:04:15.168,0.014,0.001,1.006
2026/01/08 10:04:15.187,0.016,-0.004,1.01
2026/01/08 10:04:15.207,0.019,0.002,1.006
2026/01/08 10:04:15.227,0.017,-0.007,1.007
2026/01/08 10:04:15.247,0.015,-0.004,1.012
2026/01/08 10:04:15.267,0.017,-0.004,1.007
2026/01/08 10:04:15.287,0.013,-0.002,1.008
2026/01/08 10:04:15.307,0.014,-0.003,1.007
2026/01/08 10:04:15.327,0.017,0.0,1.01
2026/01/08 10:04:15.347,0.017,-0.001,1.009
2026/01/08 10:04:15.367,0.018,-0.002,1.008
2026/01/08 10:04:15.387,0.016,-0.006,1.007
2026/01/08 10:04:15.407,0.018,0.002,1.007
2026/01/08 10:04:15.426,0.015,-0.005,1.007
2026/01/08 10:04:15.446,0.016,-0.001,1.003
2026/01/08 10:04:15.466,0.018,-0.002,1.005
2026/01/08 10:04:15.486,0.015,0.0,1.008
2026/01/08 10:04:15.506,0.016,-0.001,1.005
2026/01/08 10:04:15.526,0.019,-0.002,1.006
2026/01/08 10:04:15.546,0.019,-0.001,1.008
2026/01/08 10:04:15.566,0.012,0.0,1.007
2026/01/08 10:04:15.586,0.019,-0.001,1.006
2026/01/08 10:04:15.606,0.017,0.0,1.009
2026/01/08 10:04:15.626,0.014,0.0,1.008
2026/01/08 10:04:15.646,0.018,0.0,1.006
2026/01/08 10:04:15.666,0.018,-0.003,1.008
2026/01/08 10:04:15.685,0.018,-0.002,1.009
2026/01/08 10:04:15.705,0.016,-0.003,1.008
2026/01/08 10:04:15.725,0.017,-0.002,1.003
2026/01/08 10:04:15.745,0.013,0.0,1.006
2026/01/08 10:04:15.765,0.018,-0.002,1.008
2026/01/08 10:04:15.785,0.017,-0.001,1.006
2026/01/08 10:04:15.805,0.018,-0.002,1.007
2026/01/08 10:04:15.825,0.017,-0.004,1.009
2026/01/08 10:04:15.845,0.016,-0.002,1.008
2026/01/08 10:04:15.865,0.015,0.0,1.008
2026/01/08 10:04:15.885,0.02,-0.001,1.009
2026/01/08 10:04:15.905,0.019,0.002,1.008
2026/01/08 10:04:15.924,0.017,-0.002,1.007
2026/01/08 10:04:15.944,0.017,-0.002,1.007
2026/01/08 10:04:15.964,0.016,-0.004,1.01
2026/01/08 10:04:15.984,0.016,-0.001,1.001
2026/01/08 10:04:16.004,0.017,-0.005,1.008
2026/01/08 10:04:16.024,0.016,0.0,1.01
2026/01/08 10:04:16.044,0.016,-0.003,1.01
2026/01/08 10:04:16.064,0.017,0.0,1.006
2026/01/08 10:04:16.084,0.017,0.002,1.01
2026/01/08 10:04:16.104,0.014,0.002,1.008
2026/01/08 10:04:16.124,0.018,0.001,1.009
2026/01/08 10:04:16.144,0.015,-0.003,1.007
2026/01/08 10:04:16.163,0.018,-0.001,1.01
2026/01/08 10:04:16.183,0.016,-0.003,1.009
2026/01/08 10:04:16.203,0.015,0.001,1.009
2026/01/08 10:04:16.223,0.016,-0.001,1.008
2026/01/08 10:04:16.243,0.015,0.001,1.008
2026/01/08 10:04:16.263,0.017,-0.001,1.009
2026/01/08 10:04:16.283,0.016,0.0,1.009
2026/01/08 10:04:16.303,0.019,-0.002,1.008
2026/01/08 10:04:16.323,0.018,-0.004,1.006
2026/01/08 10:04:16.343,0.017,-0.002,1.007
2026/01/08 10:04:16.363,0.019,0.001,1.009
2026/01/08 10:04:16.383,0.013,0.0,1.003
2026/01/08 10:04:16.403,0.012,-0.002,1.007
2026/01/08 10:04:16.422,0.015,-0.003,1.005
2026/01/08 10:04:16.442,0.016,0.006,1.01
2026/01/08 10:04:16.462,0.016,-0.003,1.008
2026/01/08 10:04:16.482,0.018,-0.002,1.008
2026/01/08 10:04:16.502,0.018,-0.002,1.009
2026/01/08 10:04:16.522,0.016,-0.002,1.008
2026/01/08 10:04:16.542,0.016,-0.006,1.01
2026/01/08 10:04:16.562,0.015,-0.002,1.007
2026/01/08 10:04:16.582,0.015,0.001,1.006
2026/01/08 10:04:16.602,0.013,-0.003,1.01
2026/01/08 10:04:16.622,0.016,-0.002,1.01
2026/01/08 10:04:16.642,0.017,0.004,1.007
2026/01/08 10:04:16.661,0.016,-0.003,1.008
2026/01/08 10:04:16.681,0.013,0.0,1.011
2026/01/08 10:04:16.701,0.017,-0.001,1.007
2026/01/08 10:04:16.721,0.018,-0.003,1.007
2026/01/08 10:04:16.741,0.018,0.001,1.006
2026/01/08 10:04:16.761,0.016,-0.002,1.01
2026/01/08 10:04:16.781,0.017,-0.005,1.011
2026/01/08 10:04:16.801,0.019,-0.004,1.011
2026/01/08 10:04:16.821,0.023,0.001,1.007
2026/01/08 10:04:16.841,0.018,-0.002,1.006
2026/01/08 10:04:16.861,0.015,0.0,1.004
2026/01/08 10:04:16.881,0.016,0.001,1.011
2026/01/08 10:04:16.901,0.015,0.002,1.011
2026/01/08 10:04:16.920,0.015,-0.002,1.007
2026/01/08 10:04:16.940,0.016,-0.002,1.006
2026/01/08 10:04:16.960,0.016,-0.004,1.009
2026/01/08 10:04:16.980,0.02,-0.004,1.007
2026/01/08 10:04:17.000,0.017,-0.001,1.007
2026/01/08 10:04:17.020,0.015,-0.005,1.008
2026/01/08 10:04:17.040,0.016,0.0,1.007
2026/01/08 10:04:17.060,0.018,-0.003,1.013
2026/01/08 10:04:17.080,0.014,-0.004,1.009
2026/01/08 10:04:17.100,0.018,-0.006,1.011
2026/01/08 10:04:17.120,0.015,-0.002,1.008
2026/01/08 10:04:17.140,0.015,-0.002,1.007
2026/01/08 10:04:17.159,0.017,-0.003,1.005
2026/01/08 10:04:17.179,0.017,-0.001,1.008
2026/01/08 10:04:17.199,0.016,-0.001,1.009
2026/01/08 10:04:17.219,0.017,0.001,1.01
2026/01/08 10:04:17.239,0.018,-0.002,1.005
2026/01/08 10:04:17.259,0.014,0.0,1.011
2026/01/08 10:04:17.279,0.017,-0.002,1.013
2026/01/08 10:04:17.299,0.019,-0.003,1.008
2026/01/08 10:04:17.319,0.016,-0.002,1.009
2026/01/08 10:04:17.339,0.015,0.0,1.008
2026/01/08 10:04:17.359,0.013,-0.005,1.008
2026/01/08 10:04:17.379,0.014,-0.001,1.011
2026/01/08 10:04:17.398,0.013,0.001,1.009
2026/01/08 10:04:17.418,0.014,-0.003,1.008
2026/01/08 10:04:17.438,0.017,-0.003,1.007
2026/01/08 10:04:17.458,0.017,-0.004,1.007
2026/01/08 10:04:17.478,0.015,-0.002,1.009
2026/01/08 10:04:17.498,0.015,0.0,1.004
2026/01/08 10:04:17.518,0.016,-0.006,1.007
2026/01/08 10:04:17.538,0.013,-0.001,1.01
2026/01/08 10:04:17.558,0.015,-0.005,1.012
2026/01/08 10:04:17.578,0.017,-0.004,1.01
2026/01/08 10:04:17.598,0.017,-0.005,1.006
2026/01/08 10:04:17.618,0.017,-0.003,1.01
2026/01/08 10:04:17.638,0.018,-0.001,1.008
2026/01/08 10:04:17.657,0.015,-0.001,1.012
2026/01/08 10:04:17.677,0.017,-0.001,1.009
2026/01/08 10:04:17.697,0.017,-0.001,1.01
2026/01/08 10:04:17.717,0.016,0.002,1.009
2026/01/08 10:04:17.737,0.014,0.001,1.008
2026/01/08 10:04:17.757,0.018,0.0,1.009
2026/01/08 10:04:17.777,0.02,0.002,1.008
2026/01/08 10:04:17.797,0.015,0.0,1.004
2026/01/08 10:04:17.817,0.015,-0.005,1.008
2026/01/08 10:04:17.837,0.017,-0.003,1.009
2026/01/08 10:04:17.857,0.015,-0.005,1.009
2026/01/08 10:04:17.877,0.014,0.001,1.005
2026/01/08 10:04:17.896,0.014,-0.002,1.009
2026/01/08 10:04:17.916,0.016,-0.002,1.007
2026/01/08 10:04:17.936,0.017,-0.005,1.01
2026/01/08 10:04:17.956,0.018,-0.001,1.011
2026/01/08 10:04:17.976,0.015,-0.001,1.008
2026/01/08 10:04:17.996,0.02,-0.002,1.006
2026/01/08 10:04:18.016,0.019,0.0,1.008
2026/01/08 10:04:18.036,0.018,0.003,1.004
2026/01/08 10:04:18.056,0.015,-0.002,1.009
2026/01/08 10:04:18.076,0.019,-0.002,1.006
2026/01/08 10:04:18.096,0.017,-0.001,1.008
2026/01/08 10:04:18.116,0.02,0.001,1.01
2026/01/08 10:04:18.135,0.017,0.0,1.012
2026/01/08 10:04:18.155,0.014,-0.002,1.009
2026/01/08 10:04:18.175,0.017,-0.004,1.01
2026/01/08 10:04:18.195,0.012,-0.005,1.008
2026/01/08 10:04:18.215,0.014,-0.002,1.007
2026/01/08 10:04:18.235,0.016,-0.004,1.008
2026/01/08 10:04:18.255,0.014,-0.003,1.005
2026/01/08 10:04:18.275,0.017,0.002,1.012
2026/01/08 10:04:18.295,0.017,-0.004,1.007
2026/01/08 10:04:18.315,0.015,0.0,1.007
2026/01/08 10:04:18.335,0.017,-0.006,1.008
2026/01/08 10:04:18.355,0.012,-0.005,1.01
2026/01/08 10:04:18.375,0.017,-0.005,1.006
2026/01/08 10:04:18.394,0.015,0.0,1.012
2026/01/08 10:04:18.414,0.017,0.001,1.01
2026/01/08 10:04:18.434,0.013,-0.003,1.006
2026/01/08 10:04:18.454,0.016,-0.006,1.008
2026/01/08 10:04:18.474,0.014,0.0,1.008
2026/01/08 10:04:18.494,0.018,0.002,1.01
2026/01/08 10:04:18.514,0.016,-0.004,1.007
2026/01/08 10:04:18.534,0.014,-0.001,1.006
2026/01/08 10:04:18.554,0.017,-0.002,1.005
2026/01/08 10:04:18.574,0.014,-0.002,1.01
2026/01/08 10:04:18.594,0.014,-0.001,1.008
2026/01/08 10:04:18.614,0.017,-0.001,1.008
2026/01/08 10:04:18.633,0.012,-0.002,1.006
2026/01/08 10:04:18.653,0.016,-0.001,1.006
2026/01/08 10:04:18.673,0.018,-0.002,1.009
2026/01/08 10:04:18.693,0.013,-0.004,1.009
2026/01/08 10:04:18.713,0.017,0.003,1.008
2026/01/08 10:04:18.733,0.02,-0.002,1.009
2026/01/08 10:04:18.753,0.015,0.0,1.009
2026/01/08 10:04:18.773,0.015,-0.002,1.007
2026/01/08 10:04:18.793,0.016,0.001,1.008
2026/01/08 10:04:18.813,0.016,-0.004,1.005
2026/01/08 10:04:18.833,0.015,-0.001,1.005
2026/01/08 10:04:18.853,0.016,-0.006,1.008
2026/01/08 10:04:18.872,0.018,0.0,1.009
2026/01/08 10:04:18.892,0.016,0.001,1.008
2026/01/08 10:04:18.912,0.015,-0.001,1.012
2026/01/08 10:04:18.932,0.018,-0.003,1.005
2026/01/08 10:04:18.952,0.016,-0.001,1.006
2026/01/08 10:04:18.972,0.017,-0.002,1.007
2026/01/08 10:04:18.992,0.018,0.003,1.007
2026/01/08 10:04:19.012,0.017,0.0,1.009
2026/01/08 10:04:19.032,0.014,-0.002,1.007
2026/01/08 10:04:19.052,0.017,-0.003,1.007
2026/01/08 10:04:19.072,0.013,0.001,1.007
2026/01/08 10:04:19.092,0.018,-0.002,1.011
2026/01/08 10:04:19.112,0.02,-0.003,1.005
2026/01/08 10:04:19.131,0.019,-0.002,1.009
2026/01/08 10:04:19.151,0.014,0.0,1.009
