Timestamp,ACC X,ACC Y,ACC Z
2026/01/08 10:04:44.148,-0.032,0.043,1.017
2026/01/08 10:04:44.167,-0.033,0.039,1.015
2026/01/08 10:04:44.187,-0.031,0.041,1.015
2026/01/08 10:04:44.206,-0.033,0.037,1.012
2026/01/08 10:04:44.225,-0.034,0.039,1.015
2026/01/08 10:04:44.244,-0.035,0.041,1.019
2026/01/08 10:04:44.263,-0.034,0.038,1.017
2026/01/08 10:04:44.283,-0.034,0.043,1.017
2026/01/08 10:04:44.302,-0.029,0.04,1.014
2026/01/08 10:04:44.321,-0.035,0.038,1.017
2026/01/08 10:04:44.340,-0.033,0.04,1.015
2026/01/08 10:04:44.360,-0.034,0.041,1.014
2026/01/08 10:04:44.379,-0.032,0.038,1.015
2026/01/08 10:04:44.398,-0.032,0.043,1.015
2026/01/08 10:04:44.417,-0.029,0.041,1.015
2026/01/08 10:04:44.437,-0.031,0.039,1.016
2026/01/08 10:04:44.456,-0.036,0.04,1.017
2026/01/08 10:04:44.475,-0.032,0.04,1.015
2026/01/08 10:04:44.494,-0.036,0.042,1.017
2026/01/08 10:04:44.513,-0.032,0.036,1.016
2026/01/08 10:04:44.533,-0.03,0.042,1.017
2026/01/08 10:04:44.552,-0.033,0.04,1.012
2026/01/08 10:04:44.571,-0.033,0.04,1.015
2026/01/08 10:04:44.590,-0.033,0.038,1.017
2026/01/08 10:04:44.610,-0.034,0.04,1.017
2026/01/08 10:04:44.629,-0.032,0.038,1.019
2026/01/08 10:04:44.648,-0.031,0.039,1.016
2026/01/08 10:04:44.667,-0.033,0.038,1.014
2026/01/08 10:04:44.687,-0.036,0.038,1.018
2026/01/08 10:04:44.706,-0.034,0.04,1.014
2026/01/08 10:04:44.725,-0.034,0.039,1.017
2026/01/08 10:04:44.744,-0.031,0.044,1.015
2026/01/08 10:04:44.763,-0.034,0.036,1.013
2026/01/08 10:04:44.783,-0.032,0.041,1.014
2026/01/08 10:04:44.802,-0.03,0.04,1.015
2026/01/08 10:04:44.821,-0.029,0.042,1.015
2026/01/08 10:04:44.840,-0.04,0.038,1.017
2026/01/08 10:04:44.860,-0.029,0.04,1.017
2026/01/08 10:04:44.879,-0.035,0.04,1.017
2026/01/08 10:04:44.898,-0.033,0.037,1.014
2026/01/08 10:04:44.917,-0.031,0.041,1.014
2026/01/08 10:04:44.937,-0.032,0.039,1.014
2026/01/08 10:04:44.956,-0.032,0.041,1.016
2026/01/08 10:04:44.975,-0.032,0.038,1.016
2026/01/08 10:04:44.994,-0.033,0.04,1.014
2026/01/08 10:04:45.013,-0.034,0.041,1.017
2026/01/08 10:04:45.033,-0.031,0.041,1.016
2026/01/08 10:04:45.052,-0.033,0.04,1.02
2026/01/08 10:04:45.071,-0.036,0.037,1.016
2026/01/08 10:04:45.090,-0.033,0.034,1.016
2026/01/08 10:04:45.110,-0.034,0.039,1.017
2026/01/08 10:04:45.129,-0.028,0.043,1.017
2026/01/08 10:04:45.148,-0.033,0.039,1.013
2026/01/08 10:04:45.167,-0.031,0.037,1.017
2026/01/08 10:04:45.187,-0.031,0.041,1.019
2026/01/08 10:04:45.206,-0.033,0.04,1.016
2026/01/08 10:04:45.225,-0.036,0.046,1.014
2026/01/08 10:04:45.244,-0.033,0.04,1.015
2026/01/08 10:04:45.263,-0.031,0.039,1.016
2026/01/08 10:04:45.283,-0.032,0.04,1.014
2026/01/08 10:04:45.302,-0.034,0.041,1.015
2026/01/08 10:04:45.321,-0.03,0.039,1.015
2026/01/08 10:04:45.340,-0.035,0.039,1.015
2026/01/08 10:04:45.360,-0.034,0.04,1.016
2026/01/08 10:04:45.379,-0.032,0.039,1.018
2026/01/08 10:04:45.398,-0.034,0.04,1.017
2026/01/08 10:04:45.417,-0.033,0.04,1.018
2026/01/08 10:04:45.437,-0.032,0.04,1.017
2026/01/08 10:04:45.456,-0.036,0.043,1.017
2026/01/08 10:04:45.475,-0.034,0.042,1.015
2026/01/08 10:04:45.494,-0.03,0.041,1.015
2026/01/08 10:04:45.513,-0.034,0.043,1.015
2026/01/08 10:04:45.533,-0.034,0.042,1.016
2026/01/08 10:04:45.552,-0.033,0.038,1.013
2026/01/08 10:04:45.571,-0.033,0.04,1.015
2026/01/08 10:04:45.590,-0.034,0.039,1.013
2026/01/08 10:04:45.610,-0.035,0.039,1.015
2026/01/08 10:04:45.629,-0.032,0.038,1.015
2026/01/08 10:04:45.648,-0.031,0.04,1.019
2026/01/08 10:04:45.667,-0.032,0.041,1.016
2026/01/08 10:04:45.687,-0.033,0.038,1.015
2026/01/08 10:04:45.706,-0.035,0.042,1.015
2026/01/08 10:04:45.725,-0.036,0.037,1.015
2026/01/08 10:04:45.744,-0.032,0.043,1.016
2026/01/08 10:04:45.763,-0.034,0.039,1.016
2026/01/08 10:04:45.783,-0.031,0.039,1.014
2026/01/08 10:04:45.802,-0.034,0.039,1.013
2026/01/08 10:04:45.821,-0.035,0.037,1.016
2026/01/08 10:04:45.840,-0.033,0.041,1.016
2026/01/08 10:04:45.860,-0.034,0.041,1.018
2026/01/08 10:04:45.879,-0.034,0.035,1.014
2026/01/08 10:04:45.898,-0.031,0.036,1.015
2026/01/08 10:04:45.917,-0.034,0.041,1.019
2026/01/08 10:04:45.937,-0.035,0.039,1.017
2026/01/08 10:04:45.956,-0.032,0.04,1.018
2026/01/08 10:04:45.975,-0.035,0.041,1.014
2026/01/08 10:04:45.994,-0.033,0.041,1.021
2026/01/08 10:04:46.013,-0.037,0.039,1.015
2026/01/08 10:04:46.033,-0.034,0.041,1.014
2026/01/08 10:04:46.052,-0.035,0.041,1.017
2026/01/08 10:04:46.071,-0.031,0.038,1.019
2026/01/08 10:04:46.090,-0.031,0.037,1.017
2026/01/08 10:04:46.110,-0.034,0.035,1.017
2026/01/08 10:04:46.129,-0.033,0.04,1.017
2026/01/08 10:04:46.148,-0.034,0.039,1.016
2026/01/08 10:04:46.167,-0.034,0.038,1.015
2026/01/08 10:04:46.187,-0.034,0.041,1.018
2026/01/08 10:04:46.206,-0.033,0.039,1.017
2026/01/08 10:04:46.225,-0.032,0.041,1.012
2026/01/08 10:04:46.244,-0.028,0.039,1.017
2026/01/08 10:04:46.263,-0.034,0.032,1.015
2026/01/08 10:04:46.283,-0.032,0.041,1.015
2026/01/08 10:04:46.302,-0.03,0.042,1.02
2026/01/08 10:04:46.321,-0.033,0.041,1.016
2026/01/08 10:04:46.340,-0.033,0.044,1.019
2026/01/08 10:04:46.360,-0.03,0.04,1.019
2026/01/08 10:04:46.379,-0.033,0.038,1.017
2026/01/08 10:04:46.398,-0.034,0.04,1.014
2026/01/08 10:04:46.417,-0.032,0.039,1.02
2026/01/08 10:04:46.437,-0.033,0.04,1.015
2026/01/08 10:04:46.456,-0.033,0.041,1.016
2026/01/08 10:04:46.475,-0.033,0.04,1.02
2026/01/08 10:04:46.494,-0.032,0.039,1.017
2026/01/08 10:04:46.513,-0.036,0.039,1.016
2026/01/08 10:04:46.533,-0.035,0.038,1.018
2026/01/08 10:04:46.552,-0.034,0.039,1.016
2026/01/08 10:04:46.571,-0.034,0.043,1.016
2026/01/08 10:04:46.590,-0.034,0.04,1.017
2026/01/08 10:04:46.610,-0.031,0.043,1.013
2026/01/08 10:04:46.629,-0.034,0.042,1.018
2026/01/08 10:04:46.648,-0.034,0.042,1.019
2026/01/08 10:04:46.667,-0.031,0.037,1.018
2026/01/08 10:04:46.687,-0.035,0.037,1.017
2026/01/08 10:04:46.706,-0.032,0.038,1.017
2026/01/08 10:04:46.725,-0.033,0.039,1.018
2026/01/08 10:04:46.744,-0.033,0.039,1.014
2026/01/08 10:04:46.763,-0.033,0.042,1.014
2026/01/08 10:04:46.783,-0.032,0.04,1.016
2026/01/08 10:04:46.802,-0.03,0.037,1.018
2026/01/08 10:04:46.821,-0.032,0.037,1.02
2026/01/08 10:04:46.840,-0.03,0.041,1.015
2026/01/08 10:04:46.860,-0.034,0.04,1.019
2026/01/08 10:04:46.879,-0.034,0.041,1.018
2026/01/08 10:04:46.898,-0.034,0.042,1.016
2026/01/08 10:04:46.917,-0.033,0.042,1.014
2026/01/08 10:04:46.937,-0.034,0.039,1.017
2026/01/08 10:04:46.956,-0.034,0.042,1.013
2026/01/08 10:04:46.975,-0.034,0.038,1.017
2026/01/08 10:04:46.994,-0.032,0.038,1.014
2026/01/08 10:04:47.013,-0.034,0.038,1.012
2026/01/08 10:04:47.033,-0.033,0.043,1.015
2026/01/08 10:04:47.052,-0.031,0.041,1.015
2026/01/08 10:04:47.071,-0.035,0.042,1.014
2026/01/08 10:04:47.090,-0.033,0.043,1.014
2026/01/08 10:04:47.110,-0.03,0.041,1.015
2026/01/08 10:04:47.129,-0.03,0.039,1.014
2026/01/08 10:04:47.148,-0.032,0.037,1.017
2026/01/08 10:04:47.167,-0.032,0.04,1.015
2026/01/08 10:04:47.187,-0.034,0.041,1.016
2026/01/08 10:04:47.207,-0.03,0.04,1.02
2026/01/08 10:04:47.228,-0.032,0.041,1.017
2026/01/08 10:04:47.248,-0.033,0.042,1.018
2026/01/08 10:04:47.268,-0.036,0.039,1.017
2026/01/08 10:04:47.288,-0.034,0.04,1.016
2026/01/08 10:04:47.308,-0.034,0.042,1.019
2026/01/08 10:04:47.328,-0.036,0.042,1.019
2026/01/08 10:04:47.348,-0.029,0.041,1.016
2026/01/08 10:04:47.368,-0.037,0.036,1.016
2026/01/08 10:04:47.388,-0.033,0.041,1.016
2026/01/08 10:04:47.408,-0.033,0.041,1.014
2026/01/08 10:04:47.428,-0.029,0.043,1.014
2026/01/08 10:04:47.448,-0.032,0.042,1.014
2026/01/08 10:04:47.469,-0.032,0.041,1.015
2026/01/08 10:04:47.489,-0.031,0.037,1.016
2026/01/08 10:04:47.509,-0.034,0.037,1.018
2026/01/08 10:04:47.529,-0.034,0.041,1.017
2026/01/08 10:04:47.549,-0.032,0.041,1.017
2026/01/08 10:04:47.569,-0.032,0.038,1.015
2026/01/08 10:04:47.589,-0.033,0.034,1.016
2026/01/08 10:04:47.609,-0.035,0.041,1.017
2026/01/08 10:04:47.629,-0.03,0.038,1.018
2026/01/08 10:04:47.649,-0.034,0.041,1.016
2026/01/08 10:04:47.669,-0.032,0.041,1.015
2026/01/08 10:04:47.690,-0.033,0.038,1.017
2026/01/08 10:04:47.710,-0.033,0.037,1.013
2026/01/08 10:04:47.730,-0.034,0.043,1.017
2026/01/08 10:04:47.750,-0.032,0.039,1.014
2026/01/08 10:04:47.770,-0.034,0.041,1.015
2026/01/08 10:04:47.790,-0.034,0.04,1.015
2026/01/08 10:04:47.810,-0.034,0.04,1.016
2026/01/08 10:04:47.830,-0.031,0.043,1.018
2026/01/08 10:04:47.850,-0.033,0.04,1.017
2026/01/08 10:04:47.870,-0.032,0.038,1.016
2026/01/08 10:04:47.890,-0.038,0.037,1.018
2026/01/08 10:04:47.910,-0.035,0.041,1.015
2026/01/08 10:04:47.931,-0.032,0.038,1.016
2026/01/08 10:04:47.951,-0.034,0.036,1.017
2026/01/08 10:04:47.971,-0.034,0.043,1.012
2026/01/08 10:04:47.991,-0.032,0.04,1.015
2026/01/08 10:04:48.011,-0.033,0.039,1.014
2026/01/08 10:04:48.031,-0.034,0.034,1.017
2026/01/08 10:04:48.051,-0.031,0.04,1.013
2026/01/08 10:04:48.071,-0.035,0.039,1.016
2026/01/08 10:04:48.091,-0.029,0.039,1.014
2026/01/08 10:04:48.111,-0.033,0.039,1.015
2026/01/08 10:04:48.131,-0.033,0.036,1.017
2026/01/08 10:04:48.151,-0.034,0.038,1.017
2026/01/08 10:04:48.172,-0.034,0.037,1.02
2026/01/08 10:04:48.192,-0.033,0.037,1.018
2026/01/08 10:04:48.212,-0.029,0.037,1.015
2026/01/08 10:04:48.232,-0.034,0.038,1.015
2026/01/08 10:04:48.252,-0.03,0.042,1.017
2026/01/08 10:04:48.272,-0.034,0.038,1.016
2026/01/08 10:04:48.292,-0.035,0.04,1.019
2026/01/08 10:04:48.312,-0.034,0.039,1.015
2026/01/08 10:04:48.332,-0.034,0.039,1.017
2026/01/08 10:04:48.352,-0.034,0.04,1.016
2026/01/08 10:04:48.372,-0.031,0.038,1.016
2026/01/08 10:04:48.392,-0.034,0.045,1.016
2026/01/08 10:04:48.413,-0.036,0.038,1.016
2026/01/08 10:04:48.433,-0.032,0.039,1.016
2026/01/08 10:04:48.453,-0.032,0.043,1.014
2026/01/08 10:04:48.473,-0.032,0.041,1.014
2026/01/08 10:04:48.493,-0.032,0.04,1.016
2026/01/08 10:04:48.513,-0.034,0.044,1.017
2026/01/08 10:04:48.533,-0.032,0.043,1.019
2026/01/08 10:04:48.553,-0.033,0.041,1.017
2026/01/08 10:04:48.573,-0.033,0.041,1.014
2026/01/08 10:04:48.593,-0.03,0.038,1.015
2026/01/08 10:04:48.613,-0.032,0.043,1.017
2026/01/08 10:04:48.634,-0.034,0.043,1.015
2026/01/08 10:04:48.654,-0.034,0.039,1.013
2026/01/08 10:04:48.674,-0.034,0.039,1.018
2026/01/08 10:04:48.694,-0.031,0.039,1.014
2026/01/08 10:04:48.714,-0.033,0.039,1.015
2026/01/08 10:04:48.734,-0.032,0.045,1.017
2026/01/08 10:04:48.754,-0.033,0.039,1.015
2026/01/08 10:04:48.774,-0.036,0.042,1.016
2026/01/08 10:04:48.794,-0.031,0.04,1.017
2026/01/08 10:04:48.814,-0.033,0.037,1.013
2026/01/08 10:04:48.834,-0.034,0.042,1.016
2026/01/08 10:04:48.854,-0.034,0.039,1.014
2026/01/08 10:04:48.875,-0.033,0.041,1.016
2026/01/08 10:04:48.895,-0.031,0.043,1.014
2026/01/08 10:04:48.915,-0.034,0.04,1.018
2026/01/08 10:04:48.935,-0.032,0.039,1.014
2026/01/08 10:04:48.955,-0.032,0.046,1.013
2026/01/08 10:04:48.975,-0.031,0.041,1.012
2026/01/08 10:04:48.995,-0.036,0.039,1.017
2026/01/08 10:04:49.015,-0.033,0.04,1.015
2026/01/08 10:04:49.035,-0.033,0.039,1.016
2026/01/08 10:04:49.055,-0.033,0.043,1.015
2026/01/08 10:04:49.075,-0.035,0.039,1.015
2026/01/08 10:04:49.095,-0.032,0.041,1.015
2026/01/08 10:04:49.116,-0.031,0.037,1.017
2026/01/08 10:04:49.136,-0.033,0.039,1.014
2026/01/08 10:04:49.156,-0.034,0.043,1.015
2026/01/08 10:04:49.176,-0.032,0.043,1.015
2026/01/08 10:04:49.196,-0.034,0.035,1.015
2026/01/08 10:04:49.216,-0.035,0.039,1.017
2026/01/08 10:04:49.236,-0.032,0.038,1.012
2026/01/08 10:04:49.256,-0.035,0.038,1.015
2026/01/08 10:04:49.276,-0.031,0.04,1.015
2026/01/08 10:04:49.296,-0.034,0.039,1.017
2026/01/08 10:04:49.316,-0.032,0.036,1.014
2026/01/08 10:04:49.336,-0.032,0.039,1.014
2026/01/08 10:04:49.357,-0.034,0.042,1.018
2026/01/08 10:04:49.377,-0.033,0.037,1.017
2026/01/08 10:04:49.397,-0.029,0.041,1.016
2026/01/08 10:04:49.417,-0.035,0.042,1.016
2026/01/08 10:04:49.437,-0.034,0.037,1.017
2026/01/08 10:04:49.457,-0.03,0.038,1.014
2026/01/08 10:04:49.477,-0.034,0.039,1.012
2026/01/08 10:04:49.497,-0.035,0.042,1.015
2026/01/08 10:04:49.517,-0.035,0.039,1.015
2026/01/08 10:04:49.537,-0.033,0.04,1.014
2026/01/08 10:04:49.557,-0.033,0.037,1.017
2026/01/08 10:04:49.577,-0.033,0.038,1.015
2026/01/08 10:04:49.598,-0.032,0.037,1.014
2026/01/08 10:04:49.618,-0.032,0.04,1.015
2026/01/08 10:04:49.638,-0.034,0.039,1.014
2026/01/08 10:04:49.658,-0.035,0.039,1.015
2026/01/08 10:04:49.678,-0.036,0.037,1.015
2026/01/08 10:04:49.698,-0.035,0.042,1.015
2026/01/08 10:04:49.718,-0.033,0.036,1.017
2026/01/08 10:04:49.738,-0.032,0.043,1.016
2026/01/08 10:04:49.758,-0.031,0.041,1.015
2026/01/08 10:04:49.778,-0.036,0.038,1.012
2026/01/08 10:04:49.798,-0.032,0.037,1.012
2026/01/08 10:04:49.819,-0.033,0.041,1.017
2026/01/08 10:04:49.839,-0.034,0.036,1.015
2026/01/08 10:04:49.859,-0.03,0.037,1.015
2026/01/08 10:04:49.879,-0.03,0.04,1.014
2026/01/08 10:04:49.899,-0.035,0.038,1.017
2026/01/08 10:04:49.919,-0.032,0.037,1.016
2026/01/08 10:04:49.939,-0.031,0.043,1.012
2026/01/08 10:04:49.959,-0.029,0.04,1.011
2026/01/08 10:04:49.979,-0.033,0.036,1.014
2026/01/08 10:04:49.999,-0.027,0.039,1.015
2026/01/08 10:04:50.019,-0.034,0.039,1.016
2026/01/08 10:04:50.039,-0.032,0.041,1.016
2026/01/08 10:04:50.060,-0.032,0.042,1.017
2026/01/08 10:04:50.080,-0.032,0.041,1.014
2026/01/08 10:04:50.100,-0.036,0.035,1.015
2026/01/08 10:04:50.120,-0.034,0.041,1.017
2026/01/08 10:04:50.140,-0.031,0.04,1.015
2026/01/08 10:04:50.160,-0.033,0.041,1.014
2026/01/08 10:04:50.180,-0.033,0.037,1.016
2026/01/08 10:04:50.200,-0.032,0.038,1.017
2026/01/08 10:04:50.220,-0.032,0.039,1.017
2026/01/08 10:04:50.240,-0.03,0.04,1.014
2026/01/08 10:04:50.260,-0.033,0.039,1.016
2026/01/08 10:04:50.280,-0.032,0.037,1.015
2026/01/08 10:04:50.301,-0.035,0.04,1.016
2026/01/08 10:04:50.321,-0.032,0.039,1.013
2026/01/08 10:04:50.341,-0.036,0.042,1.016
2026/01/08 10:04:50.361,-0.034,0.038,1.015
2026/01/08 10:04:50.381,-0.031,0.039,1.018
2026/01/08 10:04:50.401,-0.032,0.039,1.014
2026/01/08 10:04:50.421,-0.031,0.042,1.016
2026/01/08 10:04:50.441,-0.029,0.039,1.013
2026/01/08 10:04:50.461,-0.033,0.037,1.015
2026/01/08 10:04:50.481,-0.033,0.041,1.015
2026/01/08 10:04:50.501,-0.031,0.04,1.014
2026/01/08 10:04:50.521,-0.032,0.04,1.019
2026/01/08 10:04:50.542,-0.033,0.042,1.015
2026/01/08 10:04:50.562,-0.032,0.037,1.013
2026/01/08 10:04:50.582,-0.035,0.036,1.015
2026/01/08 10:04:50.602,-0.032,0.042,1.015
2026/01/08 10:04:50.622,-0.034,0.039,1.016
2026/01/08 10:04:50.642,-0.03,0.04,1.015
2026/01/08 10:04:50.662,-0.033,0.038,1.014
2026/01/08 10:04:50.682,-0.033,0.039,1.014
2026/01/08 10:04:50.702,-0.033,0.043,1.015
2026/01/08 10:04:50.722,-0.031,0.04,1.017
2026/01/08 10:04:50.742,-0.032,0.041,1.016
2026/01/08 10:04:50.763,-0.035,0.041,1.017
2026/01/08 10:04:50.783,-0.03,0.04,1.015
2026/01/08 10:04:50.803,-0.031,0.042,1.014
2026/01/08 10:04:50.823,-0.033,0.04,1.014
2026/01/08 10:04:50.843,-0.033,0.038,1.017
2026/01/08 10:04:50.863,-0.035,0.039,1.014
2026/01/08 10:04:50.883,-0.033,0.043,1.014
2026/01/08 10:04:50.903,-0.032,0.037,1.014
2026/01/08 10:04:50.923,-0.033,0.037,1.017
2026/01/08 10:04:50.943,-0.033,0.042,1.015
2026/01/08 10:04:50.963,-0.034,0.037,1.014
2026/01/08 10:04:50.983,-0.032,0.04,1.016
2026/01/08 10:04:51.004,-0.034,0.041,1.017
2026/01/08 10:04:51.024,-0.034,0.042,1.015
2026/01/08 10:04:51.044,-0.034,0.037,1.015
2026/01/08 10:04:51.064,-0.031,0.038,1.015
2026/01/08 10:04:51.084,-0.034,0.041,1.017
2026/01/08 10:04:51.104,-0.034,0.038,1.018
2026/01/08 10:04:51.124,-0.033,0.044,1.014
2026/01/08 10:04:51.144,-0.029,0.04,1.016
2026/01/08 10:04:51.164,-0.033,0.041,1.016
2026/01/08 10:04:51.184,-0.031,0.039,1.013
2026/01/08 10:04:51.204,-0.033,0.041,1.019
2026/01/08 10:04:51.224,-0.033,0.039,1.017
2026/01/08 10:04:51.245,-0.034,0.04,1.015
2026/01/08 10:04:51.265,-0.034,0.041,1.015
2026/01/08 10:04:51.285,-0.033,0.039,1.016
2026/01/08 10:04:51.305,-0.032,0.038,1.013
2026/01/08 10:04:51.325,-0.033,0.038,1.018
2026/01/08 10:04:51.345,-0.032,0.041,1.016
2026/01/08 10:04:51.365,-0.035,0.038,1.014
2026/01/08 10:04:51.385,-0.028,0.038,1.013
2026/01/08 10:04:51.405,-0.029,0.04,1.016
2026/01/08 10:04:51.425,-0.036,0.039,1.017
2026/01/08 10:04:51.445,-0.032,0.04,1.015
2026/01/08 10:04:51.465,-0.032,0.04,1.016
2026/01/08 10:04:51.486,-0.034,0.04,1.013
2026/01/08 10:04:51.506,-0.031,0.038,1.012
2026/01/08 10:04:51.526,-0.033,0.039,1.015
2026/01/08 10:04:51.546,-0.034,0.037,1.016
2026/01/08 10:04:51.566,-0.032,0.042,1.016
2026/01/08 10:04:51.586,-0.032,0.042,1.013
2026/01/08 10:04:51.606,-0.034,0.038,1.014
2026/01/08 10:04:51.626,-0.029,0.04,1.015
2026/01/08 10:04:51.646,-0.03,0.041,1.014
2026/01/08 10:04:51.666,-0.034,0.037,1.014
2026/01/08 10:04:51.686,-0.033,0.038,1.022
2026/01/08 10:04:51.707,-0.031,0.041,1.015
2026/01/08 10:04:51.727,-0.031,0.041,1.016
2026/01/08 10:04:51.747,-0.036,0.037,1.016
2026/01/08 10:04:51.767,-0.032,0.041,1.017
2026/01/08 10:04:51.787,-0.033,0.038,1.015
2026/01/08 10:04:51.807,-0.034,0.038,1.014
2026/01/08 10:04:51.827,-0.029,0.037,1.015
2026/01/08 10:04:51.847,-0.034,0.041,1.015
2026/01/08 10:04:51.867,-0.035,0.041,1.015
2026/01/08 10:04:51.887,-0.032,0.037,1.016
2026/01/08 10:04:51.907,-0.031,0.039,1.014
2026/01/08 10:04:51.927,-0.034,0.042,1.017
2026/01/08 10:04:51.948,-0.029,0.038,1.014
2026/01/08 10:04:51.968,-0.034,0.04,1.014
2026/01/08 10:04:51.988,-0.035,0.038,1.017
2026/01/08 10:04:52.008,-0.036,0.037,1.014
2026/01/08 10:04:52.028,-0.032,0.039,1.016
2026/01/08 10:04:52.048,-0.031,0.042,1.016
2026/01/08 10:04:52.068,-0.034,0.038,1.011
2026/01/08 10:04:52.088,-0.034,0.039,1.018
2026/01/08 10:04:52.108,-0.034,0.038,1.017
2026/01/08 10:04:52.128,-0.034,0.039,1.017
2026/01/08 10:04:52.148,-0.033,0.036,1.018
2026/01/08 10:04:52.168,-0.034,0.039,1.015
2026/01/08 10:04:52.189,-0.037,0.038,1.015
2026/01/08 10:04:52.209,-0.031,0.039,1.016
2026/01/08 10:04:52.229,-0.032,0.04,1.015
2026/01/08 10:04:52.249,-0.032,0.042,1.016
2026/01/08 10:04:52.269,-0.033,0.034,1.016
2026/01/08 10:04:52.289,-0.033,0.039,1.016
2026/01/08 10:04:52.309,-0.034,0.04,1.016
2026/01/08 10:04:52.329,-0.03,0.037,1.012
2026/01/08 10:04:52.349,-0.032,0.04,1.016
2026/01/08 10:04:52.369,-0.034,0.037,1.016
2026/01/08 10:04:52.389,-0.032,0.039,1.016
2026/01/08 10:04:52.410,-0.033,0.037,1.012
2026/01/08 10:04:52.430,-0.033,0.038,1.017
2026/01/08 10:04:52.450,-0.032,0.038,1.017
2026/01/08 10:04:52.470,-0.036,0.04,1.014
2026/01/08 10:04:52.490,-0.03,0.036,1.018
2026/01/08 10:04:52.510,-0.035,0.038,1.015
2026/01/08 10:04:52.530,-0.031,0.038,1.018
2026/01/08 10:04:52.550,-0.03,0.04,1.016
2026/01/08 10:04:52.570,-0.033,0.037,1.016
2026/01/08 10:04:52.590,-0.033,0.041,1.013
2026/01/08 10:04:52.610,-0.033,0.039,1.016
2026/01/08 10:04:52.630,-0.032,0.038,1.014
2026/01/08 10:04:52.651,-0.035,0.039,1.02
2026/01/08 10:04:52.671,-0.033,0.043,1.016
2026/01/08 10:04:52.691,-0.036,0.038,1.015
2026/01/08 10:04:52.711,-0.029,0.039,1.014
2026/01/08 10:04:52.731,-0.034,0.039,1.016
2026/01/08 10:04:52.751,-0.035,0.042,1.014
2026/01/08 10:04:52.771,-0.032,0.039,1.018
2026/01/08 10:04:52.791,-0.03,0.04,1.013
2026/01/08 10:04:52.811,-0.032,0.043,1.015
2026/01/08 10:04:52.831,-0.034,0.04,1.014
2026/01/08 10:04:52.851,-0.033,0.04,1.011
2026/01/08 10:04:52.871,-0.03,0.038,1.017
2026/01/08 10:04:52.892,-0.034,0.04,1.012
2026/01/08 10:04:52.912,-0.031,0.041,1.015
2026/01/08 10:04:52.932,-0.035,0.043,1.012
2026/01/08 10:04:52.952,-0.034,0.04,1.015
2026/01/08 10:04:52.972,-0.035,0.038,1.015
2026/01/08 10:04:52.992,-0.029,0.038,1.015
2026/01/08 10:04:53.012,-0.032,0.041,1.015
2026/01/08 10:04:53.032,-0.034,0.038,1.015
2026/01/08 10:04:53.052,-0.029,0.039,1.015
2026/01/08 10:04:53.072,-0.03,0.043,1.015
2026/01/08 10:04:53.092,-0.031,0.04,1.017
2026/01/08 10:04:53.112,-0.032,0.038,1.017
2026/01/08 10:04:53.133,-0.034,0.041,1.013
2026/01/08 10:04:53.153,-0.034,0.041,1.016
2026/01/08 10:04:53.173,-0.033,0.038,1.013
2026/01/08 10:04:53.193,-0.033,0.043,1.015
2026/01/08 10:04:53.213,-0.034,0.04,1.015
2026/01/08 10:04:53.233,-0.03,0.037,1.017
2026/01/08 10:04:53.253,-0.033,0.04,1.014
2026/01/08 10:04:53.273,-0.031,0.037,1.014
2026/01/08 10:04:53.293,-0.028,0.042,1.016
2026/01/08 10:04:53.313,-0.033,0.041,1.014
2026/01/08 10:04:53.333,-0.036,0.042,1.016
2026/01/08 10:04:53.354,-0.033,0.043,1.016
2026/01/08 10:04:53.374,-0.035,0.039,1.013
2026/01/08 10:04:53.394,-0.034,0.04,1.015
2026/01/08 10:04:53.414,-0.034,0.035,1.016
2026/01/08 10:04:53.434,-0.034,0.039,1.017
2026/01/08 10:04:53.454,-0.034,0.041,1.017
2026/01/08 10:04:53.474,-0.033,0.04,1.012
2026/01/08 10:04:53.494,-0.033,0.039,1.014
2026/01/08 10:04:53.514,-0.032,0.035,1.014
2026/01/08 10:04:53.534,-0.032,0.039,1.016
2026/01/08 10:04:53.554,-0.031,0.04,1.015
2026/01/08 10:04:53.574,-0.033,0.042,1.013
2026/01/08 10:04:53.595,-0.033,0.04,1.016
2026/01/08 10:04:53.615,-0.034,0.038,1.015
2026/01/08 10:04:53.635,-0.033,0.041,1.016
2026/01/08 10:04:53.655,-0.031,0.039,1.015
2026/01/08 10:04:53.675,-0.032,0.042,1.018
2026/01/08 10:04:53.695,-0.034,0.039,1.016
2026/01/08 10:04:53.715,-0.037,0.042,1.016
2026/01/08 10:04:53.735,-0.034,0.043,1.015
2026/01/08 10:04:53.755,-0.032,0.042,1.012
2026/01/08 10:04:53.775,-0.033,0.042,1.014
2026/01/08 10:04:53.795,-0.03,0.039,1.013
2026/01/08 10:04:53.815,-0.034,0.039,1.014
2026/01/08 10:04:53.836,-0.032,0.041,1.013
2026/01/08 10:04:53.856,-0.033,0.039,1.016
2026/01/08 10:04:53.876,-0.036,0.044,1.016
2026/01/08 10:04:53.896,-0.031,0.037,1.016
2026/01/08 10:04:53.916,-0.03,0.04,1.015
2026/01/08 10:04:53.936,-0.034,0.041,1.016
2026/01/08 10:04:53.956,-0.029,0.039,1.014
2026/01/08 10:04:53.976,-0.033,0.038,1.013
2026/01/08 10:04:53.996,-0.033,0.041,1.017
2026/01/08 10:04:54.016,-0.036,0.039,1.015
2026/01/08 10:04:54.036,-0.033,0.038,1.017
2026/01/08 10:04:54.057,-0.033,0.043,1.014
2026/01/08 10:04:54.077,-0.034,0.038,1.015
2026/01/08 10:04:54.097,-0.032,0.042,1.013
2026/01/08 10:04:54.117,-0.033,0.046,1.016
2026/01/08 10:04:54.137,-0.033,0.039,1.015
2026/01/08 10:04:54.157,-0.032,0.037,1.014
2026/01/08 10:04:54.177,-0.03,0.042,1.014
2026/01/08 10:04:54.197,-0.035,0.041,1.017
2026/01/08 10:04:54.217,-0.032,0.036,1.018
2026/01/08 10:04:54.237,-0.03,0.04,1.013
2026/01/08 10:04:54.257,-0.034,0.036,1.014
2026/01/08 10:04:54.277,-0.033,0.04,1.016
2026/01/08 10:04:54.298,-0.034,0.041,1.015
2026/01/08 10:04:54.318,-0.035,0.036,1.017
2026/01/08 10:04:54.338,-0.034,0.04,1.017
2026/01/08 10:04:54.358,-0.035,0.041,1.015
2026/01/08 10:04:54.378,-0.032,0.041,1.016
2026/01/08 10:04:54.398,-0.033,0.041,1.016
2026/01/08 10:04:54.418,-0.035,0.04,1.019
2026/01/08 10:04:54.438,-0.033,0.035,1.019
2026/01/08 10:04:54.458,-0.033,0.039,1.014
2026/01/08 10:04:54.478,-0.031,0.038,1.016
2026/01/08 10:04:54.498,-0.03,0.04,1.017
2026/01/08 10:04:54.518,-0.035,0.04,1.016
2026/01/08 10:04:54.539,-0.035,0.042,1.017
2026/01/08 10:04:54.559,-0.031,0.04,1.014
2026/01/08 10:04:54.579,-0.03,0.039,1.014
2026/01/08 10:04:54.599,-0.034,0.044,1.014
2026/01/08 10:04:54.619,-0.031,0.037,1.014
2026/01/08 10:04:54.639,-0.034,0.038,1.013
2026/01/08 10:04:54.659,-0.034,0.04,1.016
2026/01/08 10:04:54.679,-0.035,0.036,1.016
2026/01/08 10:04:54.699,-0.033,0.036,1.014
2026/01/08 10:04:54.719,-0.033,0.041,1.013
2026/01/08 10:04:54.739,-0.031,0.04,1.012
2026/01/08 10:04:54.760,-0.034,0.037,1.016
2026/01/08 10:04:54.780,-0.032,0.037,1.015
2026/01/08 10:04:54.800,-0.031,0.041,1.014
2026/01/08 10:04:54.820,-0.033,0.036,1.014
2026/01/08 10:04:54.840,-0.034,0.042,1.016
2026/01/08 10:04:54.860,-0.031,0.039,1.017
2026/01/08 10:04:54.880,-0.035,0.037,1.014
2026/01/08 10:04:54.900,-0.035,0.04,1.017
2026/01/08 10:04:54.920,-0.034,0.043,1.016
2026/01/08 10:04:54.940,-0.031,0.036,1.015
2026/01/08 10:04:54.960,-0.03,0.04,1.013
2026/01/08 10:04:54.980,-0.029,0.041,1.013
2026/01/08 10:04:55.001,-0.033,0.043,1.013
2026/01/08 10:04:55.021,-0.032,0.038,1.014
2026/01/08 10:04:55.041,-0.035,0.038,1.014
2026/01/08 10:04:55.061,-0.037,0.041,1.014
2026/01/08 10:04:55.081,-0.034,0.039,1.014
2026/01/08 10:04:55.101,-0.032,0.038,1.015
2026/01/08 10:04:55.121,-0.032,0.041,1.013
2026/01/08 10:04:55.141,-0.033,0.039,1.013
2026/01/08 10:04:55.161,-0.034,0.039,1.017
2026/01/08 10:04:55.181,-0.033,0.044,1.015
2026/01/08 10:04:55.201,-0.033,0.041,1.013
2026/01/08 10:04:55.221,-0.031,0.043,1.015
2026/01/08 10:04:55.242,-0.034,0.038,1.014
2026/01/08 10:04:55.262,-0.031,0.039,1.014
2026/01/08 10:04:55.282,-0.035,0.039,1.012
2026/01/08 10:04:55.302,-0.031,0.042,1.014
2026/01/08 10:04:55.322,-0.036,0.04,1.017
2026/01/08 10:04:55.342,-0.033,0.038,1.013
2026/01/08 10:04:55.362,-0.032,0.042,1.013
2026/01/08 10:04:55.382,-0.033,0.038,1.015
2026/01/08 10:04:55.402,-0.035,0.041,1.015
2026/01/08 10:04:55.422,-0.031,0.04,1.014
2026/01/08 10:04:55.442,-0.03,0.04,1.02
2026/01/08 10:04:55.463,-0.032,0.038,1.015
2026/01/08 10:04:55.483,-0.034,0.041,1.017
2026/01/08 10:04:55.503,-0.033,0.038,1.014
2026/01/08 10:04:55.523,-0.03,0.041,1.016
2026/01/08 10:04:55.543,-0.036,0.038,1.019
2026/01/08 10:04:55.563,-0.035,0.042,1.017
2026/01/08 10:04:55.583,-0.033,0.042,1.016
2026/01/08 10:04:55.603,-0.033,0.041,1.014
2026/01/08 10:04:55.623,-0.032,0.036,1.013
2026/01/08 10:04:55.643,-0.034,0.04,1.016
2026/01/08 10:04:55.663,-0.029,0.038,1.017
2026/01/08 10:04:55.683,-0.031,0.037,1.016
2026/01/08 10:04:55.704,-0.031,0.04,1.012
2026/01/08 10:04:55.724,-0.033,0.043,1.017
2026/01/08 10:04:55.744,-0.033,0.037,1.015
2026/01/08 10:04:55.764,-0.037,0.039,1.012
2026/01/08 10:04:55.784,-0.033,0.038,1.017
2026/01/08 10:04:55.804,-0.033,0.037,1.017
2026/01/08 10:04:55.824,-0.033,0.039,1.014
2026/01/08 10:04:55.844,-0.035,0.037,1.019
2026/01/08 10:04:55.864,-0.034,0.043,1.016
2026/01/08 10:04:55.884,-0.031,0.041,1.014
2026/01/08 10:04:55.904,-0.032,0.041,1.021
2026/01/08 10:04:55.924,-0.033,0.037,1.014
2026/01/08 10:04:55.945,-0.033,0.038,1.017
2026/01/08 10:04:55.965,-0.034,0.042,1.014
2026/01/08 10:04:55.985,-0.038,0.041,1.016
2026/01/08 10:04:56.005,-0.032,0.037,1.014
2026/01/08 10:04:56.025,-0.031,0.039,1.018
2026/01/08 10:04:56.045,-0.035,0.038,1.015
2026/01/08 10:04:56.065,-0.032,0.041,1.015
2026/01/08 10:04:56.085,-0.034,0.036,1.014
2026/01/08 10:04:56.105,-0.031,0.042,1.014
2026/01/08 10:04:56.125,-0.037,0.041,1.017
2026/01/08 10:04:56.145,-0.032,0.038,1.014
2026/01/08 10:04:56.166,-0.034,0.042,1.016
2026/01/08 10:04:56.186,-0.033,0.042,1.016
2026/01/08 10:04:56.206,-0.032,0.039,1.015
2026/01/08 10:04:56.226,-0.031,0.038,1.013
2026/01/08 10:04:56.246,-0.03,0.039,1.015
2026/01/08 10:04:56.266,-0.035,0.039,1.014
2026/01/08 10:04:56.286,-0.032,0.038,1.015
2026/01/08 10:04:56.306,-0.034,0.039,1.014
2026/01/08 10:04:56.326,-0.035,0.037,1.015
2026/01/08 10:04:56.346,-0.031,0.042,1.012
2026/01/08 10:04:56.366,-0.031,0.038,1.013
2026/01/08 10:04:56.386,-0.034,0.039,1.013
2026/01/08 10:04:56.407,-0.032,0.038,1.015
2026/01/08 10:04:56.427,-0.031,0.038,1.019
2026/01/08 10:04:56.447,-0.033,0.043,1.016
2026/01/08 10:04:56.467,-0.032,0.039,1.015
2026/01/08 10:04:56.487,-0.034,0.04,1.016
2026/01/08 10:04:56.507,-0.032,0.035,1.015
2026/01/08 10:04:56.527,-0.035,0.042,1.016
2026/01/08 10:04:56.547,-0.033,0.044,1.017
2026/01/08 10:04:56.567,-0.033,0.038,1.015
2026/01/08 10:04:56.587,-0.031,0.039,1.015
2026/01/08 10:04:56.607,-0.033,0.044,1.016
2026/01/08 10:04:56.627,-0.036,0.036,1.014
2026/01/08 10:04:56.648,-0.03,0.037,1.011
2026/01/08 10:04:56.668,-0.032,0.041,1.018
2026/01/08 10:04:56.688,-0.031,0.039,1.015
2026/01/08 10:04:56.708,-0.031,0.037,1.013
2026/01/08 10:04:56.728,-0.032,0.038,1.018
2026/01/08 10:04:56.748,-0.034,0.041,1.014
2026/01/08 10:04:56.768,-0.03,0.038,1.015
2026/01/08 10:04:56.788,-0.031,0.042,1.016
2026/01/08 10:04:56.808,-0.031,0.042,1.012
2026/01/08 10:04:56.828,-0.031,0.038,1.016
2026/01/08 10:04:56.848,-0.034,0.041,1.016
2026/01/08 10:04:56.869,-0.031,0.042,1.014
2026/01/08 10:04:56.889,-0.035,0.038,1.015
2026/01/08 10:04:56.909,-0.028,0.036,1.017
2026/01/08 10:04:56.929,-0.034,0.043,1.013
2026/01/08 10:04:56.949,-0.032,0.042,1.014
2026/01/08 10:04:56.969,-0.033,0.04,1.02
2026/01/08 10:04:56.989,-0.033,0.041,1.015
2026/01/08 10:04:57.009,-0.034,0.04,1.019
2026/01/08 10:04:57.029,-0.033,0.038,1.013
2026/01/08 10:04:57.049,-0.031,0.041,1.017
2026/01/08 10:04:57.069,-0.035,0.038,1.014
2026/01/08 10:04:57.089,-0.032,0.039,1.015
2026/01/08 10:04:57.110,-0.032,0.035,1.016
2026/01/08 10:04:57.130,-0.031,0.04,1.015
2026/01/08 10:04:57.150,-0.033,0.038,1.015
2026/01/08 10:04:57.170,-0.033,0.041,1.016
2026/01/08 10:04:57.190,-0.031,0.04,1.015
2026/01/08 10:04:57.210,-0.034,0.043,1.014
2026/01/08 10:04:57.230,-0.033,0.037,1.019
2026/01/08 10:04:57.250,-0.034,0.041,1.017
2026/01/08 10:04:57.270,-0.034,0.038,1.019
2026/01/08 10:04:57.290,-0.033,0.038,1.014
2026/01/08 10:04:57.310,-0.034,0.04,1.016
2026/01/08 10:04:57.330,-0.032,0.04,1.013
2026/01/08 10:04:57.351,-0.034,0.04,1.016
2026/01/08 10:04:57.371,-0.035,0.044,1.014
2026/01/08 10:04:57.391,-0.032,0.04,1.015
2026/01/08 10:04:57.411,-0.034,0.042,1.016
2026/01/08 10:04:57.431,-0.033,0.042,1.018
2026/01/08 10:04:57.451,-0.029,0.038,1.013
2026/01/08 10:04:57.471,-0.034,0.039,1.015
2026/01/08 10:04:57.491,-0.031,0.041,1.014
2026/01/08 10:04:57.511,-0.034,0.036,1.012
2026/01/08 10:04:57.531,-0.035,0.038,1.015
2026/01/08 10:04:57.551,-0.035,0.038,1.015
2026/01/08 10:04:57.572,-0.036,0.038,1.016
2026/01/08 10:04:57.592,-0.031,0.039,1.016
2026/01/08 10:04:57.612,-0.031,0.037,1.015
2026/01/08 10:04:57.632,-0.036,0.04,1.017
2026/01/08 10:04:57.652,-0.028,0.037,1.017
2026/01/08 10:04:57.672,-0.029,0.04,1.014
2026/01/08 10:04:57.692,-0.03,0.042,1.015
2026/01/08 10:04:57.712,-0.032,0.036,1.014
2026/01/08 10:04:57.732,-0.034,0.038,1.015
2026/01/08 10:04:57.752,-0.034,0.042,1.015
2026/01/08 10:04:57.772,-0.031,0.038,1.016
2026/01/08 10:04:57.792,-0.035,0.038,1.016
2026/01/08 10:04:57.813,-0.033,0.042,1.013
2026/01/08 10:04:57.833,-0.034,0.04,1.013
2026/01/08 10:04:57.853,-0.032,0.041,1.017
2026/01/08 10:04:57.873,-0.036,0.043,1.015
2026/01/08 10:04:57.893,-0.032,0.037,1.015
2026/01/08 10:04:57.913,-0.032,0.041,1.015
2026/01/08 10:04:57.933,-0.035,0.038,1.017
2026/01/08 10:04:57.953,-0.032,0.038,1.015
2026/01/08 10:04:57.973,-0.032,0.038,1.015
2026/01/08 10:04:57.993,-0.033,0.038,1.012
2026/01/08 10:04:58.013,-0.033,0.037,1.016
2026/01/08 10:04:58.034,-0.034,0.034,1.02
2026/01/08 10:04:58.054,-0.035,0.039,1.015
2026/01/08 10:04:58.074,-0.034,0.035,1.015
2026/01/08 10:04:58.094,-0.031,0.043,1.016
2026/01/08 10:04:58.114,-0.034,0.036,1.015
2026/01/08 10:04:58.134,-0.032,0.038,1.016
2026/01/08 10:04:58.154,-0.034,0.039,1.015
2026/01/08 10:04:58.174,-0.029,0.035,1.016
2026/01/08 10:04:58.194,-0.029,0.041,1.018
2026/01/08 10:04:58.214,-0.031,0.044,1.017
2026/01/08 10:04:58.234,-0.031,0.038,1.016
2026/01/08 10:04:58.254,-0.035,0.039,1.015
2026/01/08 10:04:58.275,-0.034,0.036,1.019
2026/01/08 10:04:58.295,-0.029,0.043,1.014
2026/01/08 10:04:58.315,-0.035,0.037,1.012
2026/01/08 10:04:58.335,-0.028,0.037,1.015
2026/01/08 10:04:58.355,-0.034,0.043,1.016
2026/01/08 10:04:58.375,-0.029,0.039,1.014
2026/01/08 10:04:58.395,-0.033,0.038,1.014
2026/01/08 10:04:58.415,-0.034,0.04,1.019
2026/01/08 10:04:58.435,-0.033,0.036,1.016
2026/01/08 10:04:58.455,-0.032,0.035,1.018
2026/01/08 10:04:58.475,-0.033,0.036,1.012
2026/01/08 10:04:58.496,-0.033,0.043,1.017
2026/01/08 10:04:58.516,-0.034,0.041,1.02
2026/01/08 10:04:58.536,-0.035,0.036,1.015
2026/01/08 10:04:58.556,-0.034,0.039,1.015
2026/01/08 10:04:58.576,-0.035,0.039,1.016
2026/01/08 10:04:58.596,-0.031,0.043,1.019
2026/01/08 10:04:58.616,-0.033,0.04,1.017
2026/01/08 10:04:58.636,-0.035,0.04,1.014
2026/01/08 10:04:58.656,-0.033,0.036,1.013
2026/01/08 10:04:58.676,-0.035,0.043,1.015
2026/01/08 10:04:58.696,-0.032,0.038,1.014
2026/01/08 10:04:58.716,-0.033,0.039,1.014
2026/01/08 10:04:58.737,-0.034,0.042,1.018
2026/01/08 10:04:58.757,-0.031,0.038,1.015
2026/01/08 10:04:58.777,-0.035,0.042,1.015
2026/01/08 10:04:58.797,-0.033,0.041,1.015
2026/01/08 10:04:58.817,-0.033,0.041,1.018
2026/01/08 10:04:58.837,-0.033,0.042,1.015
2026/01/08 10:04:58.857,-0.032,0.038,1.012
2026/01/08 10:04:58.877,-0.031,0.041,1.015
2026/01/08 10:04:58.897,-0.033,0.037,1.016
2026/01/08 10:04:58.917,-0.035,0.04,1.016
2026/01/08 10:04:58.937,-0.033,0.037,1.014
2026/01/08 10:04:58.957,-0.033,0.036,1.014
2026/01/08 10:04:58.978,-0.034,0.044,1.015
2026/01/08 10:04:58.998,-0.032,0.038,1.013
2026/01/08 10:04:59.018,-0.032,0.041,1.014
2026/01/08 10:04:59.038,-0.032,0.042,1.015
2026/01/08 10:04:59.058,-0.033,0.04,1.019
2026/01/08 10:04:59.078,-0.037,0.038,1.014
2026/01/08 10:04:59.098,-0.036,0.035,1.019
2026/01/08 10:04:59.118,-0.031,0.038,1.015
2026/01/08 10:04:59.138,-0.03,0.04,1.017
2026/01/08 10:04:59.158,-0.035,0.037,1.016
2026/01/08 10:04:59.178,-0.032,0.043,1.017
2026/01/08 10:04:59.199,-0.031,0.038,1.016
2026/01/08 10:04:59.219,-0.032,0.042,1.015
2026/01/08 10:04:59.239,-0.032,0.039,1.016
2026/01/08 10:04:59.259,-0.031,0.039,1.019
2026/01/08 10:04:59.279,-0.033,0.038,1.014
2026/01/08 10:04:59.299,-0.03,0.041,1.017
2026/01/08 10:04:59.319,-0.034,0.042,1.014
2026/01/08 10:04:59.339,-0.032,0.039,1.016
2026/01/08 10:04:59.359,-0.034,0.036,1.015
2026/01/08 10:04:59.379,-0.032,0.041,1.017
2026/01/08 10:04:59.399,-0.034,0.041,1.015
2026/01/08 10:04:59.419,-0.033,0.039,1.012
2026/01/08 10:04:59.440,-0.031,0.043,1.013
2026/01/08 10:04:59.460,-0.036,0.04,1.015
2026/01/08 10:04:59.480,-0.031,0.037,1.015
2026/01/08 10:04:59.500,-0.032,0.041,1.015
2026/01/08 10:04:59.520,-0.034,0.039,1.012
2026/01/08 10:04:59.540,-0.036,0.039,1.013
2026/01/08 10:04:59.560,-0.031,0.042,1.015
2026/01/08 10:04:59.580,-0.035,0.035,1.017
2026/01/08 10:04:59.600,-0.032,0.043,1.012
2026/01/08 10:04:59.620,-0.033,0.04,1.013
2026/01/08 10:04:59.640,-0.03,0.04,1.014
2026/01/08 10:04:59.661,-0.035,0.042,1.011
2026/01/08 10:04:59.681,-0.033,0.036,1.02
2026/01/08 10:04:59.701,-0.036,0.039,1.015
2026/01/08 10:04:59.721,-0.034,0.039,1.015
2026/01/08 10:04:59.741,-0.033,0.037,1.015
2026/01/08 10:04:59.761,-0.032,0.04,1.013
2026/01/08 10:04:59.781,-0.03,0.042,1.015
2026/01/08 10:04:59.801,-0.035,0.041,1.014
2026/01/08 10:04:59.821,-0.035,0.041,1.015
2026/01/08 10:04:59.841,-0.033,0.041,1.015
2026/01/08 10:04:59.861,-0.031,0.042,1.015
2026/01/08 10:04:59.881,-0.032,0.04,1.015
2026/01/08 10:04:59.902,-0.032,0.042,1.016
2026/01/08 10:04:59.922,-0.035,0.041,1.016
2026/01/08 10:04:59.942,-0.031,0.038,1.012
2026/01/08 10:04:59.962,-0.034,0.043,1.014
2026/01/08 10:04:59.982,-0.033,0.039,1.014
2026/01/08 10:05:00.002,-0.034,0.043,1.014
2026/01/08 10:05:00.022,-0.033,0.04,1.015
2026/01/08 10:05:00.042,-0.034,0.039,1.015
2026/01/08 10:05:00.062,-0.033,0.038,1.017
2026/01/08 10:05:00.082,-0.032,0.039,1.012
2026/01/08 10:05:00.102,-0.03,0.043,1.014
2026/01/08 10:05:00.123,-0.032,0.04,1.017
2026/01/08 10:05:00.143,-0.029,0.038,1.018
2026/01/08 10:05:00.163,-0.033,0.04,1.018
2026/01/08 10:05:00.183,-0.031,0.041,1.014
2026/01/08 10:05:00.203,-0.03,0.041,1.013
2026/01/08 10:05:00.223,-0.032,0.041,1.015
2026/01/08 10:05:00.243,-0.031,0.038,1.016
2026/01/08 10:05:00.263,-0.031,0.042,1.016
2026/01/08 10:05:00.283,-0.035,0.041,1.012
2026/01/08 10:05:00.303,-0.035,0.042,1.013
2026/01/08 10:05:00.323,-0.032,0.038,1.016
2026/01/08 10:05:00.343,-0.034,0.04,1.015
2026/01/08 10:05:00.364,-0.033,0.04,1.014
2026/01/08 10:05:00.384,-0.033,0.041,1.015
2026/01/08 10:05:00.404,-0.034,0.042,1.023
2026/01/08 10:05:00.424,-0.032,0.042,1.017
2026/01/08 10:05:00.444,-0.032,0.04,1.015
2026/01/08 10:05:00.464,-0.032,0.038,1.017
2026/01/08 10:05:00.484,-0.033,0.039,1.013
2026/01/08 10:05:00.504,-0.033,0.042,1.015
2026/01/08 10:05:00.524,-0.036,0.042,1.016
2026/01/08 10:05:00.544,-0.033,0.041,1.013
2026/01/08 10:05:00.564,-0.034,0.04,1.016
2026/01/08 10:05:00.584,-0.035,0.039,1.016
2026/01/08 10:05:00.605,-0.033,0.042,1.017
2026/01/08 10:05:00.625,-0.033,0.042,1.015
2026/01/08 10:05:00.645,-0.034,0.041,1.015
2026/01/08 10:05:00.665,-0.033,0.037,1.015
2026/01/08 10:05:00.685,-0.034,0.043,1.018
2026/01/08 10:05:00.705,-0.033,0.038,1.014
2026/01/08 10:05:00.725,-0.031,0.039,1.013
2026/01/08 10:05:00.745,-0.031,0.041,1.015
2026/01/08 10:05:00.765,-0.033,0.042,1.017
2026/01/08 10:05:00.785,-0.03,0.041,1.015
2026/01/08 10:05:00.805,-0.033,0.037,1.015
2026/01/08 10:05:00.826,-0.034,0.04,1.013
2026/01/08 10:05:00.846,-0.032,0.038,1.014
2026/01/08 10:05:00.866,-0.035,0.041,1.017
2026/01/08 10:05:00.886,-0.034,0.037,1.017
2026/01/08 10:05:00.906,-0.03,0.042,1.016
2026/01/08 10:05:00.926,-0.035,0.042,1.013
2026/01/08 10:05:00.946,-0.033,0.042,1.017
2026/01/08 10:05:00.966,-0.034,0.037,1.015
2026/01/08 10:05:00.986,-0.034,0.038,1.015
2026/01/08 10:05:01.006,-0.028,0.042,1.015
2026/01/08 10:05:01.026,-0.029,0.043,1.016
2026/01/08 10:05:01.046,-0.034,0.039,1.014
2026/01/08 10:05:01.067,-0.033,0.042,1.016
2026/01/08 10:05:01.087,-0.035,0.043,1.015
2026/01/08 10:05:01.107,-0.035,0.04,1.016
2026/01/08 10:05:01.127,-0.033,0.039,1.014
2026/01/08 10:05:01.147,-0.036,0.036,1.014
2026/01/08 10:05:01.167,-0.031,0.04,1.012
2026/01/08 10:05:01.187,-0.034,0.039,1.016
2026/01/08 10:05:01.207,-0.034,0.039,1.016
2026/01/08 10:05:01.227,-0.035,0.041,1.017
2026/01/08 10:05:01.247,-0.034,0.042,1.015
2026/01/08 10:05:01.267,-0.034,0.045,1.015
2026/01/08 10:05:01.288,-0.031,0.044,1.014
2026/01/08 10:05:01.308,-0.035,0.041,1.014
2026/01/08 10:05:01.328,-0.034,0.037,1.016
2026/01/08 10:05:01.348,-0.035,0.04,1.016
2026/01/08 10:05:01.368,-0.032,0.042,1.015
2026/01/08 10:05:01.388,-0.035,0.04,1.014
2026/01/08 10:05:01.408,-0.034,0.042,1.016
2026/01/08 10:05:01.428,-0.03,0.043,1.015
2026/01/08 10:05:01.448,-0.033,0.037,1.014
2026/01/08 10:05:01.468,-0.035,0.039,1.018
2026/01/08 10:05:01.488,-0.034,0.042,1.015
2026/01/08 10:05:01.508,-0.035,0.043,1.014
2026/01/08 10:05:01.529,-0.034,0.038,1.019
2026/01/08 10:05:01.549,-0.033,0.039,1.015
2026/01/08 10:05:01.569,-0.034,0.041,1.018
2026/01/08 10:05:01.589,-0.033,0.037,1.016
2026/01/08 10:05:01.609,-0.035,0.038,1.012
2026/01/08 10:05:01.629,-0.031,0.04,1.016
2026/01/08 10:05:01.649,-0.031,0.041,1.015
2026/01/08 10:05:01.669,-0.034,0.037,1.014
2026/01/08 10:05:01.689,-0.032,0.04,1.016
2026/01/08 10:05:01.709,-0.036,0.043,1.019
2026/01/08 10:05:01.729,-0.038,0.04,1.014
2026/01/08 10:05:01.749,-0.033,0.041,1.015
2026/01/08 10:05:01.770,-0.034,0.04,1.015
2026/01/08 10:05:01.790,-0.033,0.038,1.018
2026/01/08 10:05:01.810,-0.032,0.037,1.015
2026/01/08 10:05:01.830,-0.031,0.039,1.015
2026/01/08 10:05:01.850,-0.032,0.038,1.016
2026/01/08 10:05:01.870,-0.035,0.039,1.016
2026/01/08 10:05:01.890,-0.033,0.039,1.013
2026/01/08 10:05:01.910,-0.033,0.039,1.017
2026/01/08 10:05:01.930,-0.03,0.038,1.015
2026/01/08 10:05:01.950,-0.033,0.041,1.016
2026/01/08 10:05:01.970,-0.029,0.039,1.016
2026/01/08 10:05:01.991,-0.033,0.037,1.015
2026/01/08 10:05:02.011,-0.034,0.038,1.014
2026/01/08 10:05:02.031,-0.033,0.038,1.014
2026/01/08 10:05:02.051,-0.032,0.039,1.014
2026/01/08 10:05:02.071,-0.035,0.037,1.014
2026/01/08 10:05:02.091,-0.034,0.039,1.017
2026/01/08 10:05:02.111,-0.036,0.036,1.017
2026/01/08 10:05:02.131,-0.033,0.039,1.014
2026/01/08 10:05:02.151,-0.034,0.036,1.016
2026/01/08 10:05:02.171,-0.034,0.039,1.015
2026/01/08 10:05:02.191,-0.035,0.039,1.015
2026/01/08 10:05:02.211,-0.034,0.041,1.016
2026/01/08 10:05:02.232,-0.031,0.038,1.017
2026/01/08 10:05:02.252,-0.031,0.036,1.013
2026/01/08 10:05:02.272,-0.033,0.036,1.018
2026/01/08 10:05:02.292,-0.032,0.038,1.014
2026/01/08 10:05:02.312,-0.032,0.041,1.017
2026/01/08 10:05:02.332,-0.032,0.035,1.011
2026/01/08 10:05:02.352,-0.03,0.043,1.018
2026/01/08 10:05:02.372,-0.032,0.037,1.013
2026/01/08 10:05:02.392,-0.031,0.042,1.017
2026/01/08 10:05:02.412,-0.033,0.038,1.013
2026/01/08 10:05:02.432,-0.034,0.036,1.014
2026/01/08 10:05:02.453,-0.034,0.04,1.018
2026/01/08 10:05:02.473,-0.033,0.038,1.014
2026/01/08 10:05:02.493,-0.034,0.041,1.014
2026/01/08 10:05:02.513,-0.035,0.042,1.013
2026/01/08 10:05:02.533,-0.031,0.04,1.016
2026/01/08 10:05:02.553,-0.034,0.038,1.017
2026/01/08 10:05:02.573,-0.031,0.039,1.016
2026/01/08 10:05:02.593,-0.035,0.042,1.014
2026/01/08 10:05:02.613,-0.033,0.04,1.016
2026/01/08 10:05:02.633,-0.032,0.04,1.012
2026/01/08 10:05:02.653,-0.034,0.039,1.015
2026/01/08 10:05:02.673,-0.034,0.04,1.017
2026/01/08 10:05:02.694,-0.034,0.039,1.015
2026/01/08 10:05:02.714,-0.033,0.041,1.015
2026/01/08 10:05:02.734,-0.034,0.041,1.015
2026/01/08 10:05:02.754,-0.032,0.037,1.015
2026/01/08 10:05:02.774,-0.03,0.042,1.016
2026/01/08 10:05:02.794,-0.032,0.039,1.014
2026/01/08 10:05:02.814,-0.035,0.036,1.015
2026/01/08 10:05:02.834,-0.031,0.037,1.02
2026/01/08 10:05:02.854,-0.032,0.042,1.016
2026/01/08 10:05:02.874,-0.032,0.039,1.018
2026/01/08 10:05:02.894,-0.031,0.038,1.014
2026/01/08 10:05:02.915,-0.036,0.041,1.013
2026/01/08 10:05:02.935,-0.032,0.036,1.014
2026/01/08 10:05:02.955,-0.035,0.034,1.018
2026/01/08 10:05:02.975,-0.036,0.036,1.015
2026/01/08 10:05:02.995,-0.033,0.04,1.016
2026/01/08 10:05:03.015,-0.032,0.036,1.016
2026/01/08 10:05:03.035,-0.028,0.037,1.015
2026/01/08 10:05:03.055,-0.03,0.038,1.014
2026/01/08 10:05:03.075,-0.032,0.038,1.011
2026/01/08 10:05:03.095,-0.033,0.04,1.017
2026/01/08 10:05:03.115,-0.035,0.045,1.014
2026/01/08 10:05:03.135,-0.034,0.041,1.013
2026/01/08 10:05:03.156,-0.035,0.039,1.015
2026/01/08 10:05:03.176,-0.036,0.038,1.016
2026/01/08 10:05:03.196,-0.032,0.037,1.016
2026/01/08 10:05:03.216,-0.036,0.038,1.016
2026/01/08 10:05:03.236,-0.033,0.04,1.014
2026/01/08 10:05:03.256,-0.035,0.038,1.013
2026/01/08 10:05:03.276,-0.03,0.043,1.016
2026/01/08 10:05:03.296,-0.034,0.038,1.017
2026/01/08 10:05:03.316,-0.028,0.042,1.016
2026/01/08 10:05:03.336,-0.032,0.037,1.014
2026/01/08 10:05:03.356,-0.032,0.039,1.015
2026/01/08 10:05:03.376,-0.034,0.037,1.015
2026/01/08 10:05:03.397,-0.031,0.039,1.015
2026/01/08 10:05:03.417,-0.034,0.039,1.014
2026/01/08 10:05:03.437,-0.03,0.041,1.014
2026/01/08 10:05:03.457,-0.031,0.038,1.017
2026/01/08 10:05:03.477,-0.034,0.043,1.017
2026/01/08 10:05:03.497,-0.03,0.037,1.018
2026/01/08 10:05:03.517,-0.035,0.038,1.014
2026/01/08 10:05:03.537,-0.034,0.037,1.017
2026/01/08 10:05:03.557,-0.034,0.04,1.015
2026/01/08 10:05:03.577,-0.034,0.038,1.015
2026/01/08 10:05:03.597,-0.036,0.041,1.014
2026/01/08 10:05:03.618,-0.032,0.042,1.018
2026/01/08 10:05:03.638,-0.034,0.036,1.018
2026/01/08 10:05:03.658,-0.034,0.041,1.015
2026/01/08 10:05:03.678,-0.035,0.039,1.015
2026/01/08 10:05:03.698,-0.032,0.038,1.014
2026/01/08 10:05:03.718,-0.034,0.042,1.017
2026/01/08 10:05:03.738,-0.033,0.039,1.014
2026/01/08 10:05:03.758,-0.036,0.041,1.014
2026/01/08 10:05:03.778,-0.035,0.041,1.018
2026/01/08 10:05:03.798,-0.033,0.042,1.015
2026/01/08 10:05:03.818,-0.033,0.04,1.016
2026/01/08 10:05:03.838,-0.035,0.04,1.016
2026/01/08 10:05:03.859,-0.032,0.043,1.019
2026/01/08 10:05:03.879,-0.034,0.04,1.016
2026/01/08 10:05:03.899,-0.035,0.039,1.015
2026/01/08 10:05:03.919,-0.035,0.04,1.016
2026/01/08 10:05:03.939,-0.031,0.043,1.016
2026/01/08 10:05:03.959,-0.035,0.04,1.017
2026/01/08 10:05:03.979,-0.033,0.04,1.015
2026/01/08 10:05:03.999,-0.029,0.039,1.019
2026/01/08 10:05:04.019,-0.033,0.037,1.016
2026/01/08 10:05:04.039,-0.032,0.042,1.013
2026/01/08 10:05:04.059,-0.032,0.04,1.014
2026/01/08 10:05:04.080,-0.034,0.038,1.014
2026/01/08 10:05:04.100,-0.033,0.043,1.013
2026/01/08 10:05:04.120,-0.036,0.039,1.015
2026/01/08 10:05:04.140,-0.033,0.04,1.013
2026/01/08 10:05:04.160,-0.032,0.034,1.015
2026/01/08 10:05:04.180,-0.03,0.037,1.016
2026/01/08 10:05:04.200,-0.033,0.037,1.013
2026/01/08 10:05:04.220,-0.033,0.041,1.018
2026/01/08 10:05:04.240,-0.031,0.034,1.015
2026/01/08 10:05:04.260,-0.032,0.039,1.015
2026/01/08 10:05:04.280,-0.03,0.036,1.018
2026/01/08 10:05:04.300,-0.033,0.038,1.017
2026/01/08 10:05:04.321,-0.036,0.04,1.015
2026/01/08 10:05:04.341,-0.034,0.041,1.016
2026/01/08 10:05:04.361,-0.034,0.037,1.015
2026/01/08 10:05:04.381,-0.034,0.036,1.017
2026/01/08 10:05:04.401,-0.033,0.042,1.015
2026/01/08 10:05:04.421,-0.032,0.038,1.014
2026/01/08 10:05:04.441,-0.031,0.043,1.014
2026/01/08 10:05:04.461,-0.035,0.043,1.014
2026/01/08 10:05:04.481,-0.034,0.038,1.013
2026/01/08 10:05:04.501,-0.033,0.037,1.012
2026/01/08 10:05:04.521,-0.035,0.037,1.014
2026/01/08 10:05:04.542,-0.035,0.038,1.016
2026/01/08 10:05:04.562,-0.032,0.039,1.016
2026/01/08 10:05:04.582,-0.034,0.046,1.014
2026/01/08 10:05:04.602,-0.033,0.041,1.014
2026/01/08 10:05:04.622,-0.034,0.038,1.014
2026/01/08 10:05:04.642,-0.035,0.04,1.016
2026/01/08 10:05:04.662,-0.033,0.041,1.015
2026/01/08 10:05:04.682,-0.03,0.04,1.017
2026/01/08 10:05:04.702,-0.03,0.037,1.015
2026/01/08 10:05:04.722,-0.033,0.038,1.017
2026/01/08 10:05:04.742,-0.031,0.042,1.013
2026/01/08 10:05:04.762,-0.034,0.039,1.016
2026/01/08 10:05:04.783,-0.03,0.037,1.014
2026/01/08 10:05:04.803,-0.035,0.039,1.015
2026/01/08 10:05:04.823,-0.034,0.042,1.015
2026/01/08 10:05:04.843,-0.035,0.037,1.017
2026/01/08 10:05:04.863,-0.031,0.037,1.013
2026/01/08 10:05:04.883,-0.033,0.039,1.014
2026/01/08 10:05:04.903,-0.034,0.041,1.015
2026/01/08 10:05:04.923,-0.034,0.042,1.013
2026/01/08 10:05:04.943,-0.034,0.038,1.016
2026/01/08 10:05:04.963,-0.036,0.041,1.015
2026/01/08 10:05:04.983,-0.036,0.04,1.015
2026/01/08 10:05:05.004,-0.033,0.038,1.014
2026/01/08 10:05:05.024,-0.033,0.037,1.016
2026/01/08 10:05:05.044,-0.032,0.038,1.015
2026/01/08 10:05:05.064,-0.034,0.043,1.014
2026/01/08 10:05:05.084,-0.033,0.037,1.014
2026/01/08 10:05:05.104,-0.037,0.04,1.016
2026/01/08 10:05:05.124,-0.033,0.039,1.015
2026/01/08 10:05:05.144,-0.034,0.038,1.015
2026/01/08 10:05:05.164,-0.031,0.039,1.015
2026/01/08 10:05:05.184,-0.032,0.042,1.014
2026/01/08 10:05:05.204,-0.032,0.04,1.015
2026/01/08 10:05:05.224,-0.03,0.042,1.016
2026/01/08 10:05:05.245,-0.036,0.038,1.015
2026/01/08 10:05:05.265,-0.035,0.036,1.014
2026/01/08 10:05:05.285,-0.037,0.041,1.015
2026/01/08 10:05:05.305,-0.03,0.039,1.013
2026/01/08 10:05:05.325,-0.033,0.043,1.014
2026/01/08 10:05:05.345,-0.03,0.04,1.014
2026/01/08 10:05:05.365,-0.034,0.038,1.017
2026/01/08 10:05:05.385,-0.034,0.038,1.017
2026/01/08 10:05:05.405,-0.035,0.035,1.011
2026/01/08 10:05:05.425,-0.032,0.042,1.018
2026/01/08 10:05:05.445,-0.031,0.037,1.016
2026/01/08 10:05:05.465,-0.03,0.042,1.014
2026/01/08 10:05:05.486,-0.036,0.039,1.015
2026/01/08 10:05:05.506,-0.035,0.041,1.016
2026/01/08 10:05:05.526,-0.035,0.042,1.015
2026/01/08 10:05:05.546,-0.035,0.041,1.017
2026/01/08 10:05:05.566,-0.034,0.043,1.015
2026/01/08 10:05:05.586,-0.034,0.043,1.013
2026/01/08 10:05:05.606,-0.032,0.039,1.012
2026/01/08 10:05:05.626,-0.031,0.039,1.017
2026/01/08 10:05:05.646,-0.029,0.039,1.013
2026/01/08 10:05:05.666,-0.034,0.036,1.017
2026/01/08 10:05:05.686,-0.031,0.04,1.016
2026/01/08 10:05:05.707,-0.035,0.042,1.015
2026/01/08 10:05:05.727,-0.039,0.042,1.015
2026/01/08 10:05:05.747,-0.03,0.039,1.015
2026/01/08 10:05:05.767,-0.033,0.039,1.013
2026/01/08 10:05:05.787,-0.031,0.039,1.015
2026/01/08 10:05:05.807,-0.034,0.041,1.016
2026/01/08 10:05:05.827,-0.033,0.036,1.016
2026/01/08 10:05:05.847,-0.034,0.036,1.017
2026/01/08 10:05:05.867,-0.032,0.037,1.021
2026/01/08 10:05:05.887,-0.032,0.039,1.014
2026/01/08 10:05:05.907,-0.034,0.04,1.02
2026/01/08 10:05:05.927,-0.033,0.04,1.014
2026/01/08 10:05:05.948,-0.035,0.041,1.015
2026/01/08 10:05:05.968,-0.031,0.036,1.015
2026/01/08 10:05:05.988,-0.033,0.041,1.014
2026/01/08 10:05:06.008,-0.035,0.038,1.012
2026/01/08 10:05:06.028,-0.033,0.04,1.015
2026/01/08 10:05:06.048,-0.029,0.04,1.017
2026/01/08 10:05:06.068,-0.031,0.041,1.016
2026/01/08 10:05:06.088,-0.038,0.037,1.016
2026/01/08 10:05:06.108,-0.029,0.038,1.013
2026/01/08 10:05:06.128,-0.033,0.04,1.016
2026/01/08 10:05:06.148,-0.033,0.039,1.013
2026/01/08 10:05:06.169,-0.032,0.043,1.013
2026/01/08 10:05:06.189,-0.035,0.039,1.013
2026/01/08 10:05:06.209,-0.034,0.041,1.013
2026/01/08 10:05:06.229,-0.031,0.039,1.016
2026/01/08 10:05:06.249,-0.034,0.037,1.019
2026/01/08 10:05:06.269,-0.032,0.038,1.013
2026/01/08 10:05:06.289,-0.036,0.042,1.016
2026/01/08 10:05:06.309,-0.035,0.042,1.014
2026/01/08 10:05:06.329,-0.038,0.041,1.014
2026/01/08 10:05:06.349,-0.033,0.043,1.015
2026/01/08 10:05:06.369,-0.034,0.04,1.014
2026/01/08 10:05:06.389,-0.035,0.042,1.015
2026/01/08 10:05:06.410,-0.034,0.035,1.017
2026/01/08 10:05:06.430,-0.033,0.036,1.014
2026/01/08 10:05:06.450,-0.03,0.04,1.014
2026/01/08 10:05:06.470,-0.037,0.037,1.016
2026/01/08 10:05:06.490,-0.035,0.04,1.016
2026/01/08 10:05:06.510,-0.034,0.039,1.016
2026/01/08 10:05:06.530,-0.032,0.039,1.013
2026/01/08 10:05:06.550,-0.034,0.04,1.017
2026/01/08 10:05:06.570,-0.035,0.043,1.014
2026/01/08 10:05:06.590,-0.033,0.036,1.014
2026/01/08 10:05:06.610,-0.035,0.044,1.012
2026/01/08 10:05:06.631,-0.032,0.037,1.014
2026/01/08 10:05:06.651,-0.032,0.039,1.013
2026/01/08 10:05:06.671,-0.035,0.042,1.015
2026/01/08 10:05:06.691,-0.036,0.036,1.012
2026/01/08 10:05:06.711,-0.029,0.04,1.013
2026/01/08 10:05:06.731,-0.031,0.041,1.016
2026/01/08 10:05:06.751,-0.033,0.034,1.015
2026/01/08 10:05:06.771,-0.034,0.038,1.014
2026/01/08 10:05:06.791,-0.03,0.039,1.016
2026/01/08 10:05:06.811,-0.033,0.042,1.015
2026/01/08 10:05:06.831,-0.032,0.039,1.015
2026/01/08 10:05:06.851,-0.035,0.042,1.013
2026/01/08 10:05:06.872,-0.036,0.041,1.016
2026/01/08 10:05:06.892,-0.033,0.034,1.017
2026/01/08 10:05:06.912,-0.036,0.039,1.015
2026/01/08 10:05:06.932,-0.033,0.037,1.014
2026/01/08 10:05:06.952,-0.035,0.043,1.017
2026/01/08 10:05:06.972,-0.033,0.039,1.016
2026/01/08 10:05:06.992,-0.034,0.039,1.015
2026/01/08 10:05:07.012,-0.028,0.037,1.015
2026/01/08 10:05:07.032,-0.033,0.04,1.017
2026/01/08 10:05:07.052,-0.032,0.04,1.012
2026/01/08 10:05:07.072,-0.033,0.039,1.014
2026/01/08 10:05:07.093,-0.033,0.04,1.015
2026/01/08 10:05:07.113,-0.032,0.041,1.015
2026/01/08 10:05:07.133,-0.031,0.041,1.015
2026/01/08 10:05:07.153,-0.033,0.037,1.013
2026/01/08 10:05:07.173,-0.031,0.041,1.013
2026/01/08 10:05:07.193,-0.034,0.041,1.016
2026/01/08 10:05:07.213,-0.036,0.043,1.016
2026/01/08 10:05:07.233,-0.035,0.037,1.012
2026/01/08 10:05:07.253,-0.034,0.036,1.019
2026/01/08 10:05:07.273,-0.035,0.039,1.016
2026/01/08 10:05:07.293,-0.031,0.043,1.021
2026/01/08 10:05:07.313,-0.035,0.041,1.014
2026/01/08 10:05:07.334,-0.032,0.044,1.015
2026/01/08 10:05:07.354,-0.034,0.038,1.019
2026/01/08 10:05:07.374,-0.032,0.041,1.012
2026/01/08 10:05:07.394,-0.034,0.04,1.017
2026/01/08 10:05:07.414,-0.034,0.041,1.016
2026/01/08 10:05:07.434,-0.032,0.037,1.017
2026/01/08 10:05:07.454,-0.031,0.04,1.014
2026/01/08 10:05:07.474,-0.035,0.038,1.014
2026/01/08 10:05:07.494,-0.031,0.042,1.014
2026/01/08 10:05:07.514,-0.032,0.035,1.012
2026/01/08 10:05:07.534,-0.033,0.043,1.016
2026/01/08 10:05:07.555,-0.033,0.038,1.013
2026/01/08 10:05:07.575,-0.033,0.043,1.017
2026/01/08 10:05:07.595,-0.034,0.038,1.016
2026/01/08 10:05:07.615,-0.034,0.041,1.015
2026/01/08 10:05:07.635,-0.034,0.039,1.018
2026/01/08 10:05:07.655,-0.031,0.039,1.013
2026/01/08 10:05:07.675,-0.039,0.038,1.018
2026/01/08 10:05:07.695,-0.034,0.042,1.014
2026/01/08 10:05:07.715,-0.035,0.038,1.015
2026/01/08 10:05:07.735,-0.035,0.04,1.015
2026/01/08 10:05:07.755,-0.035,0.036,1.014
2026/01/08 10:05:07.775,-0.031,0.037,1.012
2026/01/08 10:05:07.796,-0.036,0.038,1.018
2026/01/08 10:05:07.816,-0.03,0.038,1.015
2026/01/08 10:05:07.836,-0.031,0.035,1.016
2026/01/08 10:05:07.856,-0.034,0.042,1.014
2026/01/08 10:05:07.876,-0.036,0.042,1.014
2026/01/08 10:05:07.896,-0.035,0.042,1.015
2026/01/08 10:05:07.916,-0.035,0.043,1.018
2026/01/08 10:05:07.936,-0.031,0.035,1.014
2026/01/08 10:05:07.956,-0.028,0.039,1.017
2026/01/08 10:05:07.976,-0.032,0.04,1.017
2026/01/08 10:05:07.996,-0.034,0.042,1.014
2026/01/08 10:05:08.016,-0.032,0.039,1.012
2026/01/08 10:05:08.037,-0.033,0.037,1.018
2026/01/08 10:05:08.057,-0.032,0.041,1.015
2026/01/08 10:05:08.077,-0.033,0.036,1.014
2026/01/08 10:05:08.097,-0.033,0.041,1.016
2026/01/08 10:05:08.117,-0.036,0.039,1.02
2026/01/08 10:05:08.137,-0.036,0.036,1.013
2026/01/08 10:05:08.157,-0.035,0.042,1.014
2026/01/08 10:05:08.177,-0.034,0.041,1.013
2026/01/08 10:05:08.197,-0.031,0.043,1.011
2026/01/08 10:05:08.217,-0.034,0.041,1.014
2026/01/08 10:05:08.237,-0.031,0.042,1.016
2026/01/08 10:05:08.258,-0.034,0.039,1.017
2026/01/08 10:05:08.278,-0.034,0.041,1.014
2026/01/08 10:05:08.298,-0.034,0.038,1.016
2026/01/08 10:05:08.318,-0.033,0.041,1.018
2026/01/08 10:05:08.338,-0.033,0.042,1.016
2026/01/08 10:05:08.358,-0.035,0.039,1.016
2026/01/08 10:05:08.378,-0.035,0.038,1.013
2026/01/08 10:05:08.398,-0.032,0.04,1.014
2026/01/08 10:05:08.418,-0.031,0.044,1.012
2026/01/08 10:05:08.438,-0.031,0.038,1.014
2026/01/08 10:05:08.458,-0.035,0.038,1.018
2026/01/08 10:05:08.478,-0.035,0.039,1.014
2026/01/08 10:05:08.499,-0.035,0.037,1.017
2026/01/08 10:05:08.519,-0.034,0.037,1.013
2026/01/08 10:05:08.539,-0.033,0.04,1.018
2026/01/08 10:05:08.559,-0.032,0.04,1.016
2026/01/08 10:05:08.579,-0.034,0.043,1.017
2026/01/08 10:05:08.599,-0.035,0.042,1.014
2026/01/08 10:05:08.619,-0.032,0.039,1.014
2026/01/08 10:05:08.639,-0.035,0.039,1.015
2026/01/08 10:05:08.659,-0.033,0.038,1.015
2026/01/08 10:05:08.679,-0.031,0.038,1.013
2026/01/08 10:05:08.699,-0.037,0.039,1.019
2026/01/08 10:05:08.720,-0.032,0.037,1.014
2026/01/08 10:05:08.740,-0.033,0.036,1.014
2026/01/08 10:05:08.760,-0.036,0.042,1.014
2026/01/08 10:05:08.780,-0.03,0.041,1.016
2026/01/08 10:05:08.800,-0.035,0.045,1.013
2026/01/08 10:05:08.820,-0.032,0.04,1.015
2026/01/08 10:05:08.840,-0.034,0.04,1.015
2026/01/08 10:05:08.860,-0.033,0.038,1.015
2026/01/08 10:05:08.880,-0.03,0.038,1.016
2026/01/08 10:05:08.900,-0.032,0.041,1.016
2026/01/08 10:05:08.920,-0.034,0.04,1.015
2026/01/08 10:05:08.940,-0.032,0.038,1.016
2026/01/08 10:05:08.961,-0.033,0.043,1.016
2026/01/08 10:05:08.981,-0.036,0.041,1.015
2026/01/08 10:05:09.001,-0.035,0.038,1.018
2026/01/08 10:05:09.021,-0.04,0.043,1.016
2026/01/08 10:05:09.041,-0.032,0.037,1.015
2026/01/08 10:05:09.061,-0.035,0.041,1.012
2026/01/08 10:05:09.081,-0.033,0.041,1.017
2026/01/08 10:05:09.101,-0.032,0.037,1.013
2026/01/08 10:05:09.121,-0.033,0.038,1.015
2026/01/08 10:05:09.141,-0.032,0.035,1.014
2026/01/08 10:05:09.161,-0.032,0.039,1.015
2026/01/08 10:05:09.182,-0.035,0.042,1.018
2026/01/08 10:05:09.202,-0.034,0.038,1.015
2026/01/08 10:05:09.222,-0.034,0.038,1.016
2026/01/08 10:05:09.242,-0.036,0.039,1.015
2026/01/08 10:05:09.262,-0.037,0.039,1.018
2026/01/08 10:05:09.282,-0.036,0.035,1.015
2026/01/08 10:05:09.302,-0.035,0.04,1.014
2026/01/08 10:05:09.322,-0.03,0.036,1.014
2026/01/08 10:05:09.342,-0.034,0.039,1.014
2026/01/08 10:05:09.362,-0.034,0.044,1.014
2026/01/08 10:05:09.382,-0.034,0.038,1.015
2026/01/08 10:05:09.402,-0.031,0.041,1.012
2026/01/08 10:05:09.423,-0.035,0.036,1.014
2026/01/08 10:05:09.443,-0.029,0.04,1.015
2026/01/08 10:05:09.463,-0.032,0.042,1.015
2026/01/08 10:05:09.483,-0.034,0.04,1.019
2026/01/08 10:05:09.503,-0.033,0.037,1.014
2026/01/08 10:05:09.523,-0.03,0.036,1.014
2026/01/08 10:05:09.543,-0.032,0.041,1.015
2026/01/08 10:05:09.563,-0.031,0.04,1.015
2026/01/08 10:05:09.583,-0.034,0.037,1.015
2026/01/08 10:05:09.603,-0.03,0.038,1.012
2026/01/08 10:05:09.623,-0.033,0.039,1.015
2026/01/08 10:05:09.644,-0.035,0.043,1.015
2026/01/08 10:05:09.664,-0.032,0.037,1.014
2026/01/08 10:05:09.684,-0.035,0.039,1.015
2026/01/08 10:05:09.704,-0.031,0.039,1.014
2026/01/08 10:05:09.724,-0.033,0.043,1.014
2026/01/08 10:05:09.744,-0.033,0.04,1.017
2026/01/08 10:05:09.764,-0.035,0.04,1.015
2026/01/08 10:05:09.784,-0.034,0.039,1.015
2026/01/08 10:05:09.804,-0.034,0.039,1.015
2026/01/08 10:05:09.824,-0.033,0.04,1.016
2026/01/08 10:05:09.844,-0.033,0.041,1.015
2026/01/08 10:05:09.865,-0.032,0.036,1.017
2026/01/08 10:05:09.885,-0.032,0.039,1.014
2026/01/08 10:05:09.905,-0.033,0.043,1.015
2026/01/08 10:05:09.925,-0.037,0.04,1.014
2026/01/08 10:05:09.945,-0.035,0.043,1.014
2026/01/08 10:05:09.965,-0.029,0.04,1.015
2026/01/08 10:05:09.985,-0.036,0.04,1.017
2026/01/08 10:05:10.005,-0.034,0.04,1.017
2026/01/08 10:05:10.025,-0.032,0.041,1.013
2026/01/08 10:05:10.045,-0.034,0.039,1.017
2026/01/08 10:05:10.065,-0.032,0.04,1.017
2026/01/08 10:05:10.085,-0.029,0.04,1.015
2026/01/08 10:05:10.106,-0.03,0.041,1.015
2026/01/08 10:05:10.126,-0.033,0.041,1.015
2026/01/08 10:05:10.146,-0.032,0.037,1.015
2026/01/08 10:05:10.166,-0.03,0.039,1.015
2026/01/08 10:05:10.186,-0.033,0.04,1.014
2026/01/08 10:05:10.206,-0.035,0.04,1.017
2026/01/08 10:05:10.226,-0.034,0.042,1.015
2026/01/08 10:05:10.246,-0.034,0.039,1.018
2026/01/08 10:05:10.266,-0.036,0.042,1.017
2026/01/08 10:05:10.286,-0.033,0.038,1.016
2026/01/08 10:05:10.306,-0.033,0.041,1.015
2026/01/08 10:05:10.327,-0.035,0.037,1.016
2026/01/08 10:05:10.347,-0.031,0.035,1.018
2026/01/08 10:05:10.367,-0.029,0.04,1.014
2026/01/08 10:05:10.387,-0.034,0.038,1.014
2026/01/08 10:05:10.407,-0.032,0.04,1.014
2026/01/08 10:05:10.427,-0.034,0.041,1.017
2026/01/08 10:05:10.447,-0.036,0.041,1.017
2026/01/08 10:05:10.467,-0.028,0.042,1.017
2026/01/08 10:05:10.487,-0.033,0.041,1.017
2026/01/08 10:05:10.507,-0.036,0.037,1.016
2026/01/08 10:05:10.527,-0.035,0.038,1.015
2026/01/08 10:05:10.547,-0.032,0.044,1.014
2026/01/08 10:05:10.568,-0.032,0.036,1.019
2026/01/08 10:05:10.588,-0.034,0.041,1.017
2026/01/08 10:05:10.608,-0.027,0.038,1.014
2026/01/08 10:05:10.628,-0.031,0.04,1.014
2026/01/08 10:05:10.648,-0.032,0.039,1.016
2026/01/08 10:05:10.668,-0.031,0.035,1.017
2026/01/08 10:05:10.688,-0.035,0.04,1.017
2026/01/08 10:05:10.708,-0.035,0.037,1.015
2026/01/08 10:05:10.728,-0.036,0.038,1.016
2026/01/08 10:05:10.748,-0.034,0.042,1.013
2026/01/08 10:05:10.768,-0.029,0.041,1.015
2026/01/08 10:05:10.789,-0.031,0.039,1.017
2026/01/08 10:05:10.809,-0.03,0.035,1.013
2026/01/08 10:05:10.829,-0.035,0.043,1.015
2026/01/08 10:05:10.849,-0.03,0.041,1.015
2026/01/08 10:05:10.869,-0.037,0.038,1.016
2026/01/08 10:05:10.889,-0.035,0.039,1.014
2026/01/08 10:05:10.909,-0.032,0.038,1.019
2026/01/08 10:05:10.929,-0.034,0.04,1.018
2026/01/08 10:05:10.949,-0.034,0.042,1.015
2026/01/08 10:05:10.969,-0.034,0.038,1.014
2026/01/08 10:05:10.989,-0.036,0.043,1.017
2026/01/08 10:05:11.009,-0.035,0.041,1.015
2026/01/08 10:05:11.030,-0.032,0.039,1.015
2026/01/08 10:05:11.050,-0.035,0.039,1.018
2026/01/08 10:05:11.070,-0.033,0.04,1.017
2026/01/08 10:05:11.090,-0.033,0.037,1.017
2026/01/08 10:05:11.110,-0.034,0.039,1.015
2026/01/08 10:05:11.130,-0.033,0.036,1.016
2026/01/08 10:05:11.150,-0.031,0.041,1.015
2026/01/08 10:05:11.170,-0.035,0.04,1.016
2026/01/08 10:05:11.190,-0.038,0.041,1.015
2026/01/08 10:05:11.210,-0.033,0.042,1.017
2026/01/08 10:05:11.230,-0.034,0.037,1.015
2026/01/08 10:05:11.251,-0.031,0.039,1.015
2026/01/08 10:05:11.271,-0.032,0.04,1.014
2026/01/08 10:05:11.291,-0.031,0.04,1.014
2026/01/08 10:05:11.311,-0.034,0.04,1.016
2026/01/08 10:05:11.331,-0.029,0.041,1.017
2026/01/08 10:05:11.351,-0.032,0.041,1.016
2026/01/08 10:05:11.371,-0.036,0.039,1.014
2026/01/08 10:05:11.391,-0.031,0.037,1.015
2026/01/08 10:05:11.411,-0.036,0.037,1.015
2026/01/08 10:05:11.431,-0.034,0.038,1.015
2026/01/08 10:05:11.451,-0.032,0.042,1.013
2026/01/08 10:05:11.471,-0.03,0.04,1.014
2026/01/08 10:05:11.492,-0.032,0.04,1.016
2026/01/08 10:05:11.512,-0.034,0.039,1.013
2026/01/08 10:05:11.532,-0.036,0.037,1.015
2026/01/08 10:05:11.552,-0.03,0.041,1.019
2026/01/08 10:05:11.572,-0.036,0.037,1.015
2026/01/08 10:05:11.592,-0.033,0.041,1.017
2026/01/08 10:05:11.612,-0.034,0.039,1.015
2026/01/08 10:05:11.632,-0.032,0.04,1.013
2026/01/08 10:05:11.652,-0.031,0.034,1.019
2026/01/08 10:05:11.672,-0.035,0.035,1.016
2026/01/08 10:05:11.692,-0.034,0.037,1.017
2026/01/08 10:05:11.713,-0.035,0.036,1.012
2026/01/08 10:05:11.733,-0.036,0.044,1.018
2026/01/08 10:05:11.753,-0.034,0.038,1.016
2026/01/08 10:05:11.773,-0.034,0.039,1.013
2026/01/08 10:05:11.793,-0.031,0.041,1.015
2026/01/08 10:05:11.813,-0.032,0.042,1.016
2026/01/08 10:05:11.833,-0.034,0.037,1.014
2026/01/08 10:05:11.853,-0.033,0.041,1.014
2026/01/08 10:05:11.873,-0.035,0.04,1.015
2026/01/08 10:05:11.893,-0.031,0.043,1.017
2026/01/08 10:05:11.913,-0.035,0.039,1.015
2026/01/08 10:05:11.933,-0.032,0.038,1.014
2026/01/08 10:05:11.954,-0.032,0.039,1.017
2026/01/08 10:05:11.974,-0.034,0.04,1.016
2026/01/08 10:05:11.994,-0.03,0.04,1.015
2026/01/08 10:05:12.014,-0.034,0.04,1.018
2026/01/08 10:05:12.034,-0.036,0.041,1.018
2026/01/08 10:05:12.054,-0.035,0.039,1.014
2026/01/08 10:05:12.074,-0.036,0.034,1.016
2026/01/08 10:05:12.094,-0.034,0.038,1.015
2026/01/08 10:05:12.114,-0.034,0.039,1.013
2026/01/08 10:05:12.134,-0.033,0.043,1.015
2026/01/08 10:05:12.154,-0.032,0.038,1.015
2026/01/08 10:05:12.175,-0.032,0.039,1.016
2026/01/08 10:05:12.195,-0.035,0.043,1.017
2026/01/08 10:05:12.215,-0.03,0.038,1.015
2026/01/08 10:05:12.235,-0.032,0.039,1.017
2026/01/08 10:05:12.255,-0.032,0.037,1.016
2026/01/08 10:05:12.275,-0.034,0.039,1.014
2026/01/08 10:05:12.295,-0.032,0.041,1.017
2026/01/08 10:05:12.315,-0.03,0.04,1.016
2026/01/08 10:05:12.335,-0.035,0.042,1.014
2026/01/08 10:05:12.355,-0.032,0.037,1.014
2026/01/08 10:05:12.375,-0.032,0.04,1.015
2026/01/08 10:05:12.395,-0.034,0.039,1.016
2026/01/08 10:05:12.416,-0.031,0.036,1.015
2026/01/08 10:05:12.436,-0.035,0.037,1.017
2026/01/08 10:05:12.456,-0.032,0.043,1.014
2026/01/08 10:05:12.476,-0.032,0.036,1.013
2026/01/08 10:05:12.496,-0.037,0.037,1.013
2026/01/08 10:05:12.516,-0.03,0.039,1.016
2026/01/08 10:05:12.536,-0.034,0.038,1.014
2026/01/08 10:05:12.556,-0.034,0.038,1.015
2026/01/08 10:05:12.576,-0.034,0.04,1.012
2026/01/08 10:05:12.596,-0.034,0.039,1.013
2026/01/08 10:05:12.616,-0.031,0.041,1.011
2026/01/08 10:05:12.636,-0.034,0.041,1.013
2026/01/08 10:05:12.657,-0.035,0.039,1.015
2026/01/08 10:05:12.677,-0.033,0.038,1.016
2026/01/08 10:05:12.697,-0.038,0.04,1.015
2026/01/08 10:05:12.717,-0.032,0.039,1.015
2026/01/08 10:05:12.737,-0.032,0.04,1.014
2026/01/08 10:05:12.757,-0.036,0.043,1.013
2026/01/08 10:05:12.777,-0.035,0.04,1.015
2026/01/08 10:05:12.797,-0.033,0.041,1.013
2026/01/08 10:05:12.817,-0.032,0.037,1.016
2026/01/08 10:05:12.837,-0.034,0.037,1.018
2026/01/08 10:05:12.857,-0.032,0.039,1.016
2026/01/08 10:05:12.878,-0.037,0.043,1.016
2026/01/08 10:05:12.898,-0.032,0.041,1.016
2026/01/08 10:05:12.918,-0.033,0.041,1.014
2026/01/08 10:05:12.938,-0.032,0.043,1.018
2026/01/08 10:05:12.958,-0.036,0.037,1.014
2026/01/08 10:05:12.978,-0.034,0.04,1.012
2026/01/08 10:05:12.998,-0.031,0.041,1.013
2026/01/08 10:05:13.018,-0.031,0.041,1.012
2026/01/08 10:05:13.038,-0.035,0.036,1.011
2026/01/08 10:05:13.058,-0.032,0.035,1.016
2026/01/08 10:05:13.078,-0.036,0.04,1.014
2026/01/08 10:05:13.098,-0.031,0.039,1.015
2026/01/08 10:05:13.119,-0.032,0.039,1.016
2026/01/08 10:05:13.139,-0.033,0.035,1.015
2026/01/08 10:05:13.159,-0.029,0.041,1.014
2026/01/08 10:05:13.179,-0.033,0.04,1.016
2026/01/08 10:05:13.199,-0.033,0.039,1.013
2026/01/08 10:05:13.219,-0.029,0.04,1.016
2026/01/08 10:05:13.239,-0.035,0.037,1.018
2026/01/08 10:05:13.259,-0.033,0.043,1.016
2026/01/08 10:05:13.279,-0.034,0.038,1.018
2026/01/08 10:05:13.299,-0.032,0.041,1.015
2026/01/08 10:05:13.319,-0.035,0.043,1.017
2026/01/08 10:05:13.340,-0.035,0.035,1.014
2026/01/08 10:05:13.360,-0.034,0.041,1.016
2026/01/08 10:05:13.380,-0.033,0.042,1.014
2026/01/08 10:05:13.400,-0.034,0.037,1.014
2026/01/08 10:05:13.420,-0.032,0.043,1.014
2026/01/08 10:05:13.440,-0.033,0.042,1.015
2026/01/08 10:05:13.460,-0.03,0.039,1.015
2026/01/08 10:05:13.480,-0.032,0.04,1.018
2026/01/08 10:05:13.500,-0.032,0.043,1.017
2026/01/08 10:05:13.520,-0.03,0.041,1.017
2026/01/08 10:05:13.540,-0.034,0.043,1.013
2026/01/08 10:05:13.560,-0.035,0.038,1.016
2026/01/08 10:05:13.581,-0.036,0.042,1.014
2026/01/08 10:05:13.601,-0.034,0.039,1.015
2026/01/08 10:05:13.621,-0.038,0.041,1.015
2026/01/08 10:05:13.641,-0.032,0.045,1.014
2026/01/08 10:05:13.661,-0.033,0.037,1.015
2026/01/08 10:05:13.681,-0.03,0.038,1.015
2026/01/08 10:05:13.701,-0.035,0.04,1.018
2026/01/08 10:05:13.721,-0.031,0.039,1.013
2026/01/08 10:05:13.741,-0.034,0.038,1.015
2026/01/08 10:05:13.761,-0.031,0.038,1.016
2026/01/08 10:05:13.781,-0.034,0.038,1.014
2026/01/08 10:05:13.802,-0.03,0.04,1.016
2026/01/08 10:05:13.822,-0.032,0.04,1.019
2026/01/08 10:05:13.842,-0.033,0.042,1.016
2026/01/08 10:05:13.862,-0.03,0.038,1.016
2026/01/08 10:05:13.882,-0.03,0.039,1.014
2026/01/08 10:05:13.902,-0.036,0.037,1.015
2026/01/08 10:05:13.922,-0.032,0.039,1.014
2026/01/08 10:05:13.942,-0.03,0.036,1.017
2026/01/08 10:05:13.962,-0.033,0.041,1.014
2026/01/08 10:05:13.982,-0.035,0.042,1.014
2026/01/08 10:05:14.002,-0.033,0.036,1.015
2026/01/08 10:05:14.022,-0.033,0.04,1.013
2026/01/08 10:05:14.043,-0.032,0.039,1.015
2026/01/08 10:05:14.063,-0.035,0.043,1.015
2026/01/08 10:05:14.083,-0.034,0.039,1.016
2026/01/08 10:05:14.103,-0.036,0.04,1.015
2026/01/08 10:05:14.123,-0.036,0.04,1.014
2026/01/08 10:05:14.143,-0.034,0.036,1.013
2026/01/08 10:05:14.163,-0.033,0.039,1.012
2026/01/08 10:05:14.183,-0.034,0.037,1.016
2026/01/08 10:05:14.203,-0.032,0.037,1.017
2026/01/08 10:05:14.223,-0.033,0.043,1.015
2026/01/08 10:05:14.243,-0.033,0.04,1.017
2026/01/08 10:05:14.264,-0.033,0.033,1.013
2026/01/08 10:05:14.284,-0.031,0.04,1.015
2026/01/08 10:05:14.304,-0.033,0.039,1.018
2026/01/08 10:05:14.324,-0.032,0.039,1.018
2026/01/08 10:05:14.344,-0.032,0.038,1.015
2026/01/08 10:05:14.364,-0.033,0.041,1.017
2026/01/08 10:05:14.384,-0.031,0.039,1.017
2026/01/08 10:05:14.404,-0.031,0.038,1.014
2026/01/08 10:05:14.424,-0.034,0.041,1.015
2026/01/08 10:05:14.444,-0.033,0.036,1.013
2026/01/08 10:05:14.464,-0.034,0.043,1.017
2026/01/08 10:05:14.484,-0.031,0.038,1.015
2026/01/08 10:05:14.505,-0.034,0.038,1.015
2026/01/08 10:05:14.525,-0.03,0.038,1.016
2026/01/08 10:05:14.545,-0.034,0.039,1.016
2026/01/08 10:05:14.565,-0.033,0.04,1.014
2026/01/08 10:05:14.585,-0.032,0.041,1.014
2026/01/08 10:05:14.605,-0.029,0.042,1.019
2026/01/08 10:05:14.625,-0.035,0.038,1.015
2026/01/08 10:05:14.645,-0.035,0.041,1.016
2026/01/08 10:05:14.665,-0.034,0.037,1.017
2026/01/08 10:05:14.685,-0.034,0.042,1.014
2026/01/08 10:05:14.705,-0.029,0.037,1.018
2026/01/08 10:05:14.726,-0.036,0.042,1.016
2026/01/08 10:05:14.746,-0.034,0.041,1.012
2026/01/08 10:05:14.766,-0.029,0.04,1.019
2026/01/08 10:05:14.786,-0.034,0.039,1.015
2026/01/08 10:05:14.806,-0.031,0.036,1.013
2026/01/08 10:05:14.826,-0.031,0.041,1.016
2026/01/08 10:05:14.846,-0.033,0.04,1.015
2026/01/08 10:05:14.866,-0.033,0.039,1.018
2026/01/08 10:05:14.886,-0.032,0.038,1.018
2026/01/08 10:05:14.906,-0.033,0.04,1.014
2026/01/08 10:05:14.926,-0.034,0.04,1.013
2026/01/08 10:05:14.946,-0.033,0.044,1.015
2026/01/08 10:05:14.967,-0.034,0.042,1.013
2026/01/08 10:05:14.987,-0.033,0.041,1.012
2026/01/08 10:05:15.007,-0.031,0.041,1.015
2026/01/08 10:05:15.027,-0.029,0.042,1.014
2026/01/08 10:05:15.047,-0.032,0.041,1.014
2026/01/08 10:05:15.067,-0.035,0.037,1.016
2026/01/08 10:05:15.087,-0.031,0.039,1.018
2026/01/08 10:05:15.107,-0.03,0.038,1.013
2026/01/08 10:05:15.127,-0.035,0.038,1.017
2026/01/08 10:05:15.147,-0.034,0.039,1.02
2026/01/08 10:05:15.167,-0.031,0.038,1.016
2026/01/08 10:05:15.188,-0.036,0.037,1.012
2026/01/08 10:05:15.208,-0.032,0.036,1.012
2026/01/08 10:05:15.228,-0.034,0.041,1.016
2026/01/08 10:05:15.248,-0.033,0.043,1.013
2026/01/08 10:05:15.268,-0.032,0.043,1.016
2026/01/08 10:05:15.288,-0.034,0.041,1.014
2026/01/08 10:05:15.308,-0.03,0.039,1.016
2026/01/08 10:05:15.328,-0.034,0.039,1.017
2026/01/08 10:05:15.348,-0.029,0.039,1.014
2026/01/08 10:05:15.368,-0.034,0.038,1.016
2026/01/08 10:05:15.388,-0.037,0.042,1.016
2026/01/08 10:05:15.409,-0.032,0.04,1.013
2026/01/08 10:05:15.429,-0.029,0.043,1.016
2026/01/08 10:05:15.449,-0.032,0.042,1.016
2026/01/08 10:05:15.469,-0.032,0.039,1.014
2026/01/08 10:05:15.489,-0.031,0.042,1.016
2026/01/08 10:05:15.509,-0.031,0.039,1.017
2026/01/08 10:05:15.529,-0.03,0.037,1.014
2026/01/08 10:05:15.549,-0.032,0.043,1.016
2026/01/08 10:05:15.569,-0.035,0.039,1.016
2026/01/08 10:05:15.589,-0.032,0.038,1.017
2026/01/08 10:05:15.609,-0.031,0.041,1.015
2026/01/08 10:05:15.629,-0.032,0.04,1.016
2026/01/08 10:05:15.650,-0.031,0.038,1.015
2026/01/08 10:05:15.670,-0.037,0.038,1.017
2026/01/08 10:05:15.690,-0.031,0.039,1.013
2026/01/08 10:05:15.710,-0.033,0.041,1.014
2026/01/08 10:05:15.730,-0.032,0.039,1.014
2026/01/08 10:05:15.750,-0.036,0.035,1.017
2026/01/08 10:05:15.770,-0.031,0.039,1.013
2026/01/08 10:05:15.790,-0.032,0.039,1.017
2026/01/08 10:05:15.810,-0.029,0.035,1.016
2026/01/08 10:05:15.830,-0.033,0.04,1.013
2026/01/08 10:05:15.850,-0.031,0.039,1.015
2026/01/08 10:05:15.871,-0.032,0.037,1.013
2026/01/08 10:05:15.891,-0.033,0.037,1.016
2026/01/08 10:05:15.911,-0.031,0.041,1.011
2026/01/08 10:05:15.931,-0.034,0.034,1.014
2026/01/08 10:05:15.951,-0.035,0.036,1.016
2026/01/08 10:05:15.971,-0.033,0.038,1.016
2026/01/08 10:05:15.991,-0.034,0.039,1.013
2026/01/08 10:05:16.011,-0.033,0.038,1.013
2026/01/08 10:05:16.031,-0.034,0.039,1.016
2026/01/08 10:05:16.051,-0.032,0.041,1.017
2026/01/08 10:05:16.071,-0.032,0.042,1.018
2026/01/08 10:05:16.092,-0.031,0.043,1.015
2026/01/08 10:05:16.112,-0.029,0.04,1.017
2026/01/08 10:05:16.132,-0.032,0.041,1.012
2026/01/08 10:05:16.152,-0.034,0.039,1.015
2026/01/08 10:05:16.172,-0.031,0.043,1.012
2026/01/08 10:05:16.192,-0.03,0.044,1.019
2026/01/08 10:05:16.212,-0.033,0.043,1.016
2026/01/08 10:05:16.232,-0.033,0.04,1.015
2026/01/08 10:05:16.252,-0.034,0.041,1.017
2026/01/08 10:05:16.272,-0.034,0.039,1.012
2026/01/08 10:05:16.292,-0.033,0.042,1.016
2026/01/08 10:05:16.313,-0.034,0.04,1.014
2026/01/08 10:05:16.333,-0.032,0.042,1.017
2026/01/08 10:05:16.353,-0.029,0.04,1.015
2026/01/08 10:05:16.373,-0.029,0.038,1.015
2026/01/08 10:05:16.393,-0.035,0.04,1.015
2026/01/08 10:05:16.413,-0.029,0.039,1.014
2026/01/08 10:05:16.433,-0.038,0.041,1.016
2026/01/08 10:05:16.453,-0.034,0.036,1.018
2026/01/08 10:05:16.473,-0.031,0.038,1.017
2026/01/08 10:05:16.493,-0.033,0.042,1.014
2026/01/08 10:05:16.513,-0.034,0.035,1.018
2026/01/08 10:05:16.533,-0.031,0.041,1.014
2026/01/08 10:05:16.554,-0.034,0.037,1.015
2026/01/08 10:05:16.574,-0.031,0.038,1.013
2026/01/08 10:05:16.594,-0.031,0.041,1.015
2026/01/08 10:05:16.614,-0.031,0.042,1.016
2026/01/08 10:05:16.634,-0.033,0.039,1.013
2026/01/08 10:05:16.654,-0.034,0.043,1.015
2026/01/08 10:05:16.674,-0.032,0.042,1.017
2026/01/08 10:05:16.694,-0.03,0.041,1.015
2026/01/08 10:05:16.714,-0.036,0.04,1.017
2026/01/08 10:05:16.734,-0.033,0.039,1.013
2026/01/08 10:05:16.754,-0.029,0.038,1.015
2026/01/08 10:05:16.775,-0.033,0.039,1.017
2026/01/08 10:05:16.795,-0.032,0.039,1.014
2026/01/08 10:05:16.815,-0.036,0.038,1.014
2026/01/08 10:05:16.835,-0.032,0.036,1.017
2026/01/08 10:05:16.855,-0.034,0.038,1.017
2026/01/08 10:05:16.875,-0.035,0.039,1.016
2026/01/08 10:05:16.895,-0.03,0.042,1.016
2026/01/08 10:05:16.915,-0.034,0.039,1.015
2026/01/08 10:05:16.935,-0.035,0.041,1.016
2026/01/08 10:05:16.955,-0.032,0.037,1.016
2026/01/08 10:05:16.975,-0.033,0.041,1.015
2026/01/08 10:05:16.996,-0.033,0.04,1.014
2026/01/08 10:05:17.016,-0.031,0.041,1.016
2026/01/08 10:05:17.036,-0.034,0.041,1.016
2026/01/08 10:05:17.056,-0.032,0.041,1.018
2026/01/08 10:05:17.076,-0.035,0.038,1.012
2026/01/08 10:05:17.096,-0.035,0.039,1.015
2026/01/08 10:05:17.116,-0.032,0.04,1.015
2026/01/08 10:05:17.136,-0.034,0.039,1.014
2026/01/08 10:05:17.156,-0.032,0.041,1.014
2026/01/08 10:05:17.176,-0.031,0.039,1.014
2026/01/08 10:05:17.196,-0.033,0.041,1.013
2026/01/08 10:05:17.216,-0.031,0.036,1.017
2026/01/08 10:05:17.237,-0.031,0.038,1.013
2026/01/08 10:05:17.257,-0.032,0.038,1.015
2026/01/08 10:05:17.277,-0.031,0.041,1.016
2026/01/08 10:05:17.297,-0.034,0.036,1.015
2026/01/08 10:05:17.317,-0.037,0.043,1.015
2026/01/08 10:05:17.337,-0.035,0.038,1.014
2026/01/08 10:05:17.357,-0.038,0.038,1.014
2026/01/08 10:05:17.377,-0.036,0.04,1.016
2026/01/08 10:05:17.397,-0.031,0.043,1.016
2026/01/08 10:05:17.417,-0.032,0.04,1.016
2026/01/08 10:05:17.437,-0.034,0.038,1.014
2026/01/08 10:05:17.458,-0.034,0.042,1.016
2026/01/08 10:05:17.478,-0.036,0.041,1.018
2026/01/08 10:05:17.498,-0.031,0.04,1.017
2026/01/08 10:05:17.518,-0.027,0.038,1.016
2026/01/08 10:05:17.538,-0.031,0.041,1.011
2026/01/08 10:05:17.558,-0.033,0.041,1.016
2026/01/08 10:05:17.578,-0.033,0.042,1.016
2026/01/08 10:05:17.598,-0.033,0.037,1.016
2026/01/08 10:05:17.618,-0.032,0.042,1.014
2026/01/08 10:05:17.638,-0.035,0.039,1.014
2026/01/08 10:05:17.658,-0.032,0.037,1.017
2026/01/08 10:05:17.679,-0.029,0.04,1.011
2026/01/08 10:05:17.699,-0.033,0.042,1.013
2026/01/08 10:05:17.719,-0.033,0.04,1.015
2026/01/08 10:05:17.739,-0.029,0.042,1.017
2026/01/08 10:05:17.759,-0.036,0.04,1.016
2026/01/08 10:05:17.779,-0.03,0.039,1.015
2026/01/08 10:05:17.799,-0.034,0.041,1.016
2026/01/08 10:05:17.819,-0.034,0.045,1.015
2026/01/08 10:05:17.839,-0.034,0.036,1.013
2026/01/08 10:05:17.859,-0.031,0.043,1.014
2026/01/08 10:05:17.879,-0.036,0.037,1.014
2026/01/08 10:05:17.899,-0.033,0.04,1.017
2026/01/08 10:05:17.920,-0.031,0.038,1.014
2026/01/08 10:05:17.940,-0.034,0.039,1.016
2026/01/08 10:05:17.960,-0.03,0.038,1.017
2026/01/08 10:05:17.980,-0.032,0.038,1.017
2026/01/08 10:05:18.000,-0.033,0.041,1.015
2026/01/08 10:05:18.020,-0.034,0.039,1.015
2026/01/08 10:05:18.040,-0.035,0.043,1.017
2026/01/08 10:05:18.060,-0.031,0.044,1.016
2026/01/08 10:05:18.080,-0.033,0.037,1.015
2026/01/08 10:05:18.100,-0.032,0.043,1.014
2026/01/08 10:05:18.120,-0.033,0.036,1.016
2026/01/08 10:05:18.141,-0.032,0.039,1.017
2026/01/08 10:05:18.161,-0.032,0.04,1.015
2026/01/08 10:05:18.181,-0.034,0.04,1.013
2026/01/08 10:05:18.201,-0.033,0.043,1.018
2026/01/08 10:05:18.221,-0.032,0.039,1.012
2026/01/08 10:05:18.241,-0.032,0.041,1.018
2026/01/08 10:05:18.261,-0.031,0.034,1.014
2026/01/08 10:05:18.281,-0.034,0.038,1.016
2026/01/08 10:05:18.301,-0.032,0.035,1.017
2026/01/08 10:05:18.321,-0.034,0.04,1.017
2026/01/08 10:05:18.341,-0.034,0.037,1.013
2026/01/08 10:05:18.362,-0.033,0.042,1.015
2026/01/08 10:05:18.382,-0.035,0.04,1.013
2026/01/08 10:05:18.402,-0.029,0.036,1.015
2026/01/08 10:05:18.422,-0.028,0.04,1.018
2026/01/08 10:05:18.442,-0.032,0.039,1.018
2026/01/08 10:05:18.462,-0.033,0.041,1.016
2026/01/08 10:05:18.482,-0.033,0.037,1.016
2026/01/08 10:05:18.502,-0.034,0.042,1.015
2026/01/08 10:05:18.522,-0.034,0.037,1.015
2026/01/08 10:05:18.542,-0.032,0.04,1.017
2026/01/08 10:05:18.562,-0.035,0.039,1.015
2026/01/08 10:05:18.582,-0.033,0.039,1.015
2026/01/08 10:05:18.603,-0.033,0.039,1.015
2026/01/08 10:05:18.623,-0.03,0.038,1.016
2026/01/08 10:05:18.643,-0.033,0.039,1.015
2026/01/08 10:05:18.663,-0.033,0.04,1.017
2026/01/08 10:05:18.683,-0.033,0.039,1.015
2026/01/08 10:05:18.703,-0.032,0.037,1.014
2026/01/08 10:05:18.723,-0.031,0.041,1.019
2026/01/08 10:05:18.743,-0.035,0.037,1.017
2026/01/08 10:05:18.763,-0.032,0.036,1.013
2026/01/08 10:05:18.783,-0.03,0.041,1.014
2026/01/08 10:05:18.803,-0.033,0.04,1.016
2026/01/08 10:05:18.824,-0.031,0.035,1.014
2026/01/08 10:05:18.844,-0.033,0.04,1.015
2026/01/08 10:05:18.864,-0.034,0.043,1.016
2026/01/08 10:05:18.884,-0.032,0.042,1.014
2026/01/08 10:05:18.904,-0.034,0.041,1.012
2026/01/08 10:05:18.924,-0.034,0.039,1.014
2026/01/08 10:05:18.944,-0.029,0.04,1.014
2026/01/08 10:05:18.964,-0.033,0.039,1.017
2026/01/08 10:05:18.984,-0.033,0.043,1.013
2026/01/08 10:05:19.004,-0.035,0.039,1.017
2026/01/08 10:05:19.024,-0.034,0.041,1.015
2026/01/08 10:05:19.045,-0.034,0.038,1.014
2026/01/08 10:05:19.065,-0.036,0.038,1.018
2026/01/08 10:05:19.085,-0.037,0.04,1.019
2026/01/08 10:05:19.105,-0.029,0.04,1.016
2026/01/08 10:05:19.125,-0.034,0.035,1.013
2026/01/08 10:05:19.145,-0.033,0.042,1.014
2026/01/08 10:05:19.165,-0.029,0.04,1.013
2026/01/08 10:05:19.185,-0.032,0.038,1.015
2026/01/08 10:05:19.205,-0.036,0.04,1.015
2026/01/08 10:05:19.225,-0.034,0.037,1.015
2026/01/08 10:05:19.245,-0.031,0.038,1.014
2026/01/08 10:05:19.265,-0.032,0.037,1.016
2026/01/08 10:05:19.286,-0.029,0.04,1.016
2026/01/08 10:05:19.306,-0.035,0.04,1.017
2026/01/08 10:05:19.326,-0.034,0.041,1.017
2026/01/08 10:05:19.346,-0.035,0.041,1.018
2026/01/08 10:05:19.366,-0.031,0.037,1.014
2026/01/08 10:05:19.386,-0.03,0.04,1.015
2026/01/08 10:05:19.406,-0.033,0.04,1.017
2026/01/08 10:05:19.426,-0.032,0.04,1.015
2026/01/08 10:05:19.446,-0.029,0.039,1.013
2026/01/08 10:05:19.466,-0.032,0.042,1.012
2026/01/08 10:05:19.486,-0.033,0.037,1.017
2026/01/08 10:05:19.507,-0.033,0.041,1.014
2026/01/08 10:05:19.527,-0.034,0.039,1.018
2026/01/08 10:05:19.547,-0.036,0.039,1.016
2026/01/08 10:05:19.567,-0.031,0.042,1.016
2026/01/08 10:05:19.587,-0.031,0.038,1.015
2026/01/08 10:05:19.607,-0.033,0.038,1.014
2026/01/08 10:05:19.627,-0.035,0.039,1.018
2026/01/08 10:05:19.647,-0.031,0.04,1.016
2026/01/08 10:05:19.667,-0.034,0.034,1.017
2026/01/08 10:05:19.687,-0.031,0.039,1.013
2026/01/08 10:05:19.707,-0.031,0.036,1.013
2026/01/08 10:05:19.728,-0.036,0.04,1.016
2026/01/08 10:05:19.748,-0.033,0.038,1.012
2026/01/08 10:05:19.768,-0.03,0.037,1.015
2026/01/08 10:05:19.788,-0.033,0.039,1.016
2026/01/08 10:05:19.808,-0.032,0.039,1.015
2026/01/08 10:05:19.828,-0.034,0.039,1.015
2026/01/08 10:05:19.848,-0.034,0.038,1.012
2026/01/08 10:05:19.868,-0.033,0.04,1.015
2026/01/08 10:05:19.888,-0.03,0.041,1.015
2026/01/08 10:05:19.908,-0.032,0.04,1.015
2026/01/08 10:05:19.928,-0.032,0.039,1.014
2026/01/08 10:05:19.948,-0.037,0.039,1.016
2026/01/08 10:05:19.969,-0.033,0.037,1.014
2026/01/08 10:05:19.989,-0.031,0.039,1.015
2026/01/08 10:05:20.009,-0.032,0.036,1.018
2026/01/08 10:05:20.029,-0.033,0.04,1.015
2026/01/08 10:05:20.049,-0.035,0.042,1.015
2026/01/08 10:05:20.069,-0.032,0.037,1.017
2026/01/08 10:05:20.089,-0.033,0.046,0.988
2026/01/08 10:05:20.109,-0.035,0.04,1.026
2026/01/08 10:05:20.129,-0.032,0.038,1.009
2026/01/08 10:05:20.149,-0.028,0.045,1.034
2026/01/08 10:05:20.169,-0.035,0.039,1.001
2026/01/08 10:05:20.190,-0.037,0.039,1.014
2026/01/08 10:05:20.210,-0.025,0.038,1.016
2026/01/08 10:05:20.230,-0.035,0.048,1.021
2026/01/08 10:05:20.250,-0.029,0.037,1.011
2026/01/08 10:05:20.270,-0.035,0.038,1.008
2026/01/08 10:05:20.290,-0.032,0.043,1.01
2026/01/08 10:05:20.310,-0.031,0.048,1.008
2026/01/08 10:05:20.330,-0.034,0.045,1.025
2026/01/08 10:05:20.350,-0.035,0.035,1.003
2026/01/08 10:05:20.370,-0.034,0.037,0.999
2026/01/08 10:05:20.390,-0.025,0.044,0.948
2026/01/08 10:05:20.411,-0.033,0.038,1.044
2026/01/08 10:05:20.431,-0.03,0.035,1.011
2026/01/08 10:05:20.451,-0.031,0.036,1.046
2026/01/08 10:05:20.471,-0.064,0.09,0.926
2026/01/08 10:05:20.491,-0.024,0.029,1.006
2026/01/08 10:05:20.511,-0.031,0.048,1.001
2026/01/08 10:05:20.531,-0.024,0.043,1.025
2026/01/08 10:05:20.551,-0.032,0.049,1.017
2026/01/08 10:05:20.571,-0.03,0.027,1.044
2026/01/08 10:05:20.591,-0.024,0.012,1.023
2026/01/08 10:05:20.611,-0.032,0.032,1.0
2026/01/08 10:05:20.632,-0.038,0.043,1.004
2026/01/08 10:05:20.652,-0.021,0.037,1.037
2026/01/08 10:05:20.672,-0.022,0.028,1.033
2026/01/08 10:05:20.692,-0.027,0.029,1.004
2026/01/08 10:05:20.712,-0.033,0.033,1.009
2026/01/08 10:05:20.732,-0.03,0.034,1.021
2026/01/08 10:05:20.752,-0.024,0.031,1.022
2026/01/08 10:05:20.772,-0.026,0.033,1.012
2026/01/08 10:05:20.792,-0.024,0.036,1.02
2026/01/08 10:05:20.812,-0.024,0.033,1.02
2026/01/08 10:05:20.832,-0.023,0.036,1.015
2026/01/08 10:05:20.852,-0.025,0.028,1.019
2026/01/08 10:05:20.873,-0.028,0.026,1.018
2026/01/08 10:05:20.893,-0.032,0.023,1.009
2026/01/08 10:05:20.913,-0.029,0.033,1.018
2026/01/08 10:05:20.933,-0.022,0.034,1.017
2026/01/08 10:05:20.953,-0.021,0.031,1.014
2026/01/08 10:05:20.973,-0.025,0.026,1.013
2026/01/08 10:05:20.993,-0.028,0.032,1.019
2026/01/08 10:05:21.013,-0.03,0.036,1.015
2026/01/08 10:05:21.033,-0.022,0.032,1.016
2026/01/08 10:05:21.053,-0.017,0.03,1.017
2026/01/08 10:05:21.073,-0.024,0.034,1.009
2026/01/08 10:05:21.094,-0.024,0.038,1.018
2026/01/08 10:05:21.114,-0.027,0.035,1.016
2026/01/08 10:05:21.134,-0.02,0.031,1.022
2026/01/08 10:05:21.154,-0.024,0.026,1.017
2026/01/08 10:05:21.174,-0.028,0.025,1.012
2026/01/08 10:05:21.194,-0.036,0.036,1.017
2026/01/08 10:05:21.214,-0.034,0.04,1.016
2026/01/08 10:05:21.234,-0.025,0.03,1.015
2026/01/08 10:05:21.254,-0.023,0.025,1.018
2026/01/08 10:05:21.274,-0.024,0.028,1.012
2026/01/08 10:05:21.294,-0.025,0.033,1.021
2026/01/08 10:05:21.315,-0.031,0.034,1.015
2026/01/08 10:05:21.335,-0.026,0.035,1.013
2026/01/08 10:05:21.355,-0.024,0.03,1.013
2026/01/08 10:05:21.375,-0.022,0.029,1.017
2026/01/08 10:05:21.395,-0.02,0.028,1.022
2026/01/08 10:05:21.415,-0.026,0.034,1.016
2026/01/08 10:05:21.435,-0.03,0.04,1.016
2026/01/08 10:05:21.455,-0.024,0.037,1.022
2026/01/08 10:05:21.475,-0.021,0.031,1.008
2026/01/08 10:05:21.495,-0.021,0.028,1.014
2026/01/08 10:05:21.515,-0.032,0.03,1.016
2026/01/08 10:05:21.536,-0.028,0.037,1.013
2026/01/08 10:05:21.556,-0.028,0.033,1.02
2026/01/08 10:05:21.576,-0.019,0.029,1.017
2026/01/08 10:05:21.596,-0.022,0.026,1.011
2026/01/08 10:05:21.616,-0.023,0.029,1.021
2026/01/08 10:05:21.636,-0.027,0.03,1.018
2026/01/08 10:05:21.656,-0.026,0.027,1.015
2026/01/08 10:05:21.676,-0.027,0.029,1.01
2026/01/08 10:05:21.696,-0.031,0.033,1.014
2026/01/08 10:05:21.716,-0.029,0.035,1.018
2026/01/08 10:05:21.736,-0.024,0.033,1.015
2026/01/08 10:05:21.757,-0.023,0.033,1.012
2026/01/08 10:05:21.777,-0.021,0.029,1.016
2026/01/08 10:05:21.797,-0.025,0.037,1.015
2026/01/08 10:05:21.817,-0.024,0.031,1.019
2026/01/08 10:05:21.837,-0.028,0.03,1.014
2026/01/08 10:05:21.857,-0.026,0.027,1.018
2026/01/08 10:05:21.877,-0.024,0.027,1.014
2026/01/08 10:05:21.897,-0.028,0.032,1.013
2026/01/08 10:05:21.917,-0.026,0.036,1.014
2026/01/08 10:05:21.937,-0.024,0.034,1.021
2026/01/08 10:05:21.957,-0.024,0.033,1.02
2026/01/08 10:05:21.977,-0.026,0.03,1.015
2026/01/08 10:05:21.998,-0.031,0.027,1.009
2026/01/08 10:05:22.018,-0.033,0.032,1.011
2026/01/08 10:05:22.038,-0.03,0.031,1.015
2026/01/08 10:05:22.058,-0.023,0.034,1.016
2026/01/08 10:05:22.078,-0.021,0.032,1.016
2026/01/08 10:05:22.098,-0.021,0.028,1.016
2026/01/08 10:05:22.118,-0.028,0.035,1.015
2026/01/08 10:05:22.138,-0.033,0.034,1.014
2026/01/08 10:05:22.158,-0.029,0.033,1.012
2026/01/08 10:05:22.178,-0.027,0.035,1.011
2026/01/08 10:05:22.198,-0.026,0.027,1.019
2026/01/08 10:05:22.219,-0.026,0.027,1.017
2026/01/08 10:05:22.239,-0.027,0.03,1.016
2026/01/08 10:05:22.259,-0.029,0.036,1.016
2026/01/08 10:05:22.279,-0.026,0.036,1.011
2026/01/08 10:05:22.299,-0.025,0.032,1.014
2026/01/08 10:05:22.319,-0.022,0.033,1.012
2026/01/08 10:05:22.339,-0.021,0.03,1.014
2026/01/08 10:05:22.359,-0.026,0.033,1.015
2026/01/08 10:05:22.379,-0.029,0.032,1.014
2026/01/08 10:05:22.399,-0.029,0.034,1.017
2026/01/08 10:05:22.419,-0.027,0.035,1.019
2026/01/08 10:05:22.440,-0.019,0.026,1.018
2026/01/08 10:05:22.460,-0.019,0.032,1.013
2026/01/08 10:05:22.480,-0.028,0.034,1.019
2026/01/08 10:05:22.500,-0.03,0.034,1.017
2026/01/08 10:05:22.520,-0.027,0.038,1.014
2026/01/08 10:05:22.540,-0.024,0.029,1.016
2026/01/08 10:05:22.560,-0.019,0.026,1.019
2026/01/08 10:05:22.580,-0.028,0.027,1.014
2026/01/08 10:05:22.600,-0.032,0.03,1.012
2026/01/08 10:05:22.620,-0.031,0.039,1.014
2026/01/08 10:05:22.640,-0.026,0.03,1.015
2026/01/08 10:05:22.660,-0.022,0.03,1.02
2026/01/08 10:05:22.681,-0.022,0.031,1.019
2026/01/08 10:05:22.701,-0.027,0.032,1.013
2026/01/08 10:05:22.721,-0.033,0.037,1.012
2026/01/08 10:05:22.741,-0.031,0.031,1.018
2026/01/08 10:05:22.761,-0.026,0.031,1.012
2026/01/08 10:05:22.781,-0.024,0.031,1.014
2026/01/08 10:05:22.801,-0.025,0.031,1.016
2026/01/08 10:05:22.821,-0.028,0.036,1.014
2026/01/08 10:05:22.841,-0.026,0.035,1.022
2026/01/08 10:05:22.861,-0.025,0.035,1.017
2026/01/08 10:05:22.881,-0.027,0.031,1.016
2026/01/08 10:05:22.902,-0.025,0.03,1.018
2026/01/08 10:05:22.922,-0.027,0.032,1.016
2026/01/08 10:05:22.942,-0.028,0.033,1.016
2026/01/08 10:05:22.962,-0.024,0.03,1.015
2026/01/08 10:05:22.982,-0.022,0.031,1.011
2026/01/08 10:05:23.002,-0.024,0.029,1.015
2026/01/08 10:05:23.022,-0.027,0.036,1.013
2026/01/08 10:05:23.042,-0.029,0.036,1.018
2026/01/08 10:05:23.062,-0.027,0.026,1.016
2026/01/08 10:05:23.082,-0.026,0.029,1.012
2026/01/08 10:05:23.102,-0.024,0.028,1.014
2026/01/08 10:05:23.123,-0.027,0.035,1.017
2026/01/08 10:05:23.143,-0.022,0.036,1.015
2026/01/08 10:05:23.163,-0.024,0.033,1.014
2026/01/08 10:05:23.183,-0.023,0.031,1.017
2026/01/08 10:05:23.203,-0.025,0.035,1.018
2026/01/08 10:05:23.223,-0.028,0.033,1.014
2026/01/08 10:05:23.243,-0.029,0.031,1.012
2026/01/08 10:05:23.263,-0.03,0.032,1.01
2026/01/08 10:05:23.283,-0.025,0.034,1.015
2026/01/08 10:05:23.303,-0.022,0.033,1.017
2026/01/08 10:05:23.323,-0.023,0.033,1.014
2026/01/08 10:05:23.343,-0.024,0.03,1.01
2026/01/08 10:05:23.364,-0.03,0.028,1.018
2026/01/08 10:05:23.384,-0.029,0.033,1.015
2026/01/08 10:05:23.404,-0.027,0.032,1.017
2026/01/08 10:05:23.424,-0.022,0.032,1.017
2026/01/08 10:05:23.444,-0.026,0.033,1.012
2026/01/08 10:05:23.464,-0.024,0.03,1.017
2026/01/08 10:05:23.484,-0.028,0.031,1.013
2026/01/08 10:05:23.504,-0.031,0.03,1.015
2026/01/08 10:05:23.524,-0.028,0.033,1.015
2026/01/08 10:05:23.544,-0.026,0.033,1.014
2026/01/08 10:05:23.564,-0.024,0.029,1.015
2026/01/08 10:05:23.585,-0.024,0.036,1.017
2026/01/08 10:05:23.605,-0.018,0.036,1.019
2026/01/08 10:05:23.625,-0.028,0.032,1.016
2026/01/08 10:05:23.645,-0.031,0.031,1.014
2026/01/08 10:05:23.665,-0.033,0.031,1.012
2026/01/08 10:05:23.685,-0.028,0.028,1.013
2026/01/08 10:05:23.705,-0.026,0.03,1.015
2026/01/08 10:05:23.725,-0.021,0.03,1.012
2026/01/08 10:05:23.745,-0.021,0.033,1.017
2026/01/08 10:05:23.765,-0.026,0.032,1.014
2026/01/08 10:05:23.785,-0.029,0.035,1.017
2026/01/08 10:05:23.806,-0.032,0.031,1.014
2026/01/08 10:05:23.826,-0.027,0.03,1.018
2026/01/08 10:05:23.846,-0.024,0.032,1.015
2026/01/08 10:05:23.866,-0.026,0.029,1.016
2026/01/08 10:05:23.886,-0.028,0.034,1.015
2026/01/08 10:05:23.906,-0.029,0.035,1.015
2026/01/08 10:05:23.926,-0.023,0.03,1.012
2026/01/08 10:05:23.946,-0.027,0.031,1.017
2026/01/08 10:05:23.966,-0.029,0.031,1.014
2026/01/08 10:05:23.986,-0.028,0.031,1.016
2026/01/08 10:05:24.006,-0.026,0.033,1.012
2026/01/08 10:05:24.026,-0.028,0.035,1.018
2026/01/08 10:05:24.047,-0.025,0.037,1.016
2026/01/08 10:05:24.067,-0.029,0.033,1.016
2026/01/08 10:05:24.087,-0.024,0.03,1.017
2026/01/08 10:05:24.107,-0.025,0.029,1.014
2026/01/08 10:05:24.127,-0.026,0.036,1.018
2026/01/08 10:05:24.147,-0.029,0.034,1.013
2026/01/08 10:05:24.167,-0.031,0.032,1.018
2026/01/08 10:05:24.187,-0.026,0.032,1.015
2026/01/08 10:05:24.207,-0.025,0.033,1.019
2026/01/08 10:05:24.227,-0.024,0.034,1.017
2026/01/08 10:05:24.247,-0.028,0.032,1.015
2026/01/08 10:05:24.268,-0.026,0.033,1.014
2026/01/08 10:05:24.288,-0.026,0.032,1.015
2026/01/08 10:05:24.308,-0.029,0.036,1.017
2026/01/08 10:05:24.328,-0.028,0.029,1.013
2026/01/08 10:05:24.348,-0.024,0.03,1.014
2026/01/08 10:05:24.368,-0.024,0.033,1.011
2026/01/08 10:05:24.388,-0.029,0.032,1.015
2026/01/08 10:05:24.408,-0.023,0.032,1.019
2026/01/08 10:05:24.428,-0.028,0.03,1.014
2026/01/08 10:05:24.448,-0.024,0.032,1.015
2026/01/08 10:05:24.468,-0.028,0.032,1.015
2026/01/08 10:05:24.488,-0.021,0.032,1.017
2026/01/08 10:05:24.509,-0.028,0.03,1.014
2026/01/08 10:05:24.529,-0.027,0.032,1.013
2026/01/08 10:05:24.549,-0.028,0.032,1.015
2026/01/08 10:05:24.569,-0.025,0.031,1.017
2026/01/08 10:05:24.589,-0.023,0.029,1.016
2026/01/08 10:05:24.609,-0.025,0.03,1.015
2026/01/08 10:05:24.629,-0.027,0.032,1.016
2026/01/08 10:05:24.649,-0.029,0.033,1.014
2026/01/08 10:05:24.669,-0.029,0.031,1.016
2026/01/08 10:05:24.689,-0.026,0.031,1.012
2026/01/08 10:05:24.709,-0.025,0.031,1.018
2026/01/08 10:05:24.730,-0.024,0.028,1.016
2026/01/08 10:05:24.750,-0.026,0.036,1.013
2026/01/08 10:05:24.770,-0.027,0.028,1.014
2026/01/08 10:05:24.790,-0.024,0.029,1.016
2026/01/08 10:05:24.810,-0.025,0.033,1.019
2026/01/08 10:05:24.830,-0.025,0.033,1.018
2026/01/08 10:05:24.850,-0.024,0.032,1.013
2026/01/08 10:05:24.870,-0.027,0.03,1.012
2026/01/08 10:05:24.890,-0.028,0.034,1.017
2026/01/08 10:05:24.910,-0.028,0.029,1.02
2026/01/08 10:05:24.930,-0.025,0.027,1.013
2026/01/08 10:05:24.951,-0.023,0.033,1.012
2026/01/08 10:05:24.971,-0.023,0.037,1.017
2026/01/08 10:05:24.991,-0.026,0.032,1.013
2026/01/08 10:05:25.011,-0.023,0.034,1.012
2026/01/08 10:05:25.031,-0.031,0.028,1.015
2026/01/08 10:05:25.051,-0.029,0.032,1.016
2026/01/08 10:05:25.071,-0.028,0.032,1.016
2026/01/08 10:05:25.091,-0.027,0.032,1.016
2026/01/08 10:05:25.111,-0.022,0.032,1.016
2026/01/08 10:05:25.131,-0.023,0.035,1.016
2026/01/08 10:05:25.151,-0.023,0.031,1.015
2026/01/08 10:05:25.171,-0.029,0.03,1.013
2026/01/08 10:05:25.192,-0.027,0.031,1.017
2026/01/08 10:05:25.212,-0.028,0.033,1.015
2026/01/08 10:05:25.232,-0.028,0.032,1.015
2026/01/08 10:05:25.252,-0.023,0.032,1.014
2026/01/08 10:05:25.272,-0.025,0.029,1.015
2026/01/08 10:05:25.292,-0.024,0.034,1.017
2026/01/08 10:05:25.312,-0.028,0.033,1.015
2026/01/08 10:05:25.332,-0.026,0.031,1.014
2026/01/08 10:05:25.352,-0.026,0.029,1.015
2026/01/08 10:05:25.372,-0.023,0.033,1.016
2026/01/08 10:05:25.392,-0.024,0.032,1.016
2026/01/08 10:05:25.413,-0.027,0.037,1.012
2026/01/08 10:05:25.433,-0.025,0.032,1.013
2026/01/08 10:05:25.453,-0.03,0.028,1.015
2026/01/08 10:05:25.473,-0.031,0.031,1.014
2026/01/08 10:05:25.493,-0.026,0.032,1.012
2026/01/08 10:05:25.513,-0.026,0.036,1.017
2026/01/08 10:05:25.533,-0.025,0.033,1.018
2026/01/08 10:05:25.553,-0.025,0.031,1.022
2026/01/08 10:05:25.573,-0.026,0.025,1.018
2026/01/08 10:05:25.593,-0.03,0.025,1.018
2026/01/08 10:05:25.613,-0.027,0.034,1.015
2026/01/08 10:05:25.634,-0.026,0.037,1.017
2026/01/08 10:05:25.654,-0.025,0.04,1.012
2026/01/08 10:05:25.674,-0.022,0.032,1.013
2026/01/08 10:05:25.694,-0.026,0.03,1.017
2026/01/08 10:05:25.714,-0.029,0.028,1.016
2026/01/08 10:05:25.734,-0.034,0.029,1.017
2026/01/08 10:05:25.754,-0.029,0.035,1.015
2026/01/08 10:05:25.774,-0.024,0.032,1.016
2026/01/08 10:05:25.794,-0.018,0.033,1.017
2026/01/08 10:05:25.814,-0.017,0.034,1.014
2026/01/08 10:05:25.834,-0.031,0.035,1.014
2026/01/08 10:05:25.855,-0.034,0.036,1.012
2026/01/08 10:05:25.875,-0.034,0.03,1.012
2026/01/08 10:05:25.895,-0.028,0.029,1.011
2026/01/08 10:05:25.915,-0.024,0.032,1.018
2026/01/08 10:05:25.935,-0.018,0.037,1.017
2026/01/08 10:05:25.955,-0.017,0.037,1.022
2026/01/08 10:05:25.975,-0.019,0.033,1.018
2026/01/08 10:05:25.995,-0.028,0.028,1.011
2026/01/08 10:05:26.015,-0.034,0.028,1.015
2026/01/08 10:05:26.035,-0.029,0.029,1.019
2026/01/08 10:05:26.055,-0.027,0.032,1.017
2026/01/08 10:05:26.076,-0.025,0.031,1.011
2026/01/08 10:05:26.096,-0.024,0.036,1.017
2026/01/08 10:05:26.116,-0.03,0.034,1.02
2026/01/08 10:05:26.136,-0.025,0.029,1.012
2026/01/08 10:05:26.156,-0.028,0.03,1.013
2026/01/08 10:05:26.176,-0.026,0.033,1.02
2026/01/08 10:05:26.196,-0.02,0.031,1.021
2026/01/08 10:05:26.216,-0.022,0.032,1.028
2026/01/08 10:05:26.236,-0.02,0.032,1.013
2026/01/08 10:05:26.256,-0.026,0.034,1.013
2026/01/08 10:05:26.276,-0.027,0.034,1.018
2026/01/08 10:05:26.296,-0.031,0.032,1.02
2026/01/08 10:05:26.317,-0.028,0.033,1.015
2026/01/08 10:05:26.337,-0.024,0.027,1.014
2026/01/08 10:05:26.357,-0.025,0.031,1.013
2026/01/08 10:05:26.377,-0.025,0.037,1.01
2026/01/08 10:05:26.397,-0.023,0.038,1.013
2026/01/08 10:05:26.417,-0.027,0.028,1.021
2026/01/08 10:05:26.437,-0.019,0.029,1.026
2026/01/08 10:05:26.457,-0.029,0.031,1.015
2026/01/08 10:05:26.477,-0.025,0.032,1.031
2026/01/08 10:05:26.497,-0.018,0.032,1.021
2026/01/08 10:05:26.517,-0.041,0.04,1.011
2026/01/08 10:05:26.538,-0.024,0.042,0.996
2026/01/08 10:05:26.558,-0.044,0.04,1.01
2026/01/08 10:05:26.578,-0.024,0.038,1.012
2026/01/08 10:05:26.598,-0.028,0.038,1.008
2026/01/08 10:05:26.618,-0.033,0.041,1.011
2026/01/08 10:05:26.638,-0.024,0.04,1.014
2026/01/08 10:05:26.658,-0.031,0.035,1.029
2026/01/08 10:05:26.678,-0.043,0.051,1.011
2026/01/08 10:05:26.698,-0.027,0.034,1.018
2026/01/08 10:05:26.718,-0.034,0.044,1.011
2026/01/08 10:05:26.738,-0.026,0.036,1.022
2026/01/08 10:05:26.759,-0.038,0.043,1.003
2026/01/08 10:05:26.779,-0.038,0.029,1.023
2026/01/08 10:05:26.799,-0.031,0.037,1.009
2026/01/08 10:05:26.819,-0.034,0.04,1.017
2026/01/08 10:05:26.839,-0.034,0.037,1.018
2026/01/08 10:05:26.859,-0.032,0.039,1.016
2026/01/08 10:05:26.879,-0.032,0.043,1.014
2026/01/08 10:05:26.899,-0.033,0.038,1.014
2026/01/08 10:05:26.919,-0.031,0.039,1.015
2026/01/08 10:05:26.939,-0.033,0.037,1.012
2026/01/08 10:05:26.959,-0.032,0.042,1.016
2026/01/08 10:05:26.980,-0.031,0.033,1.016
2026/01/08 10:05:27.000,-0.034,0.043,1.014
2026/01/08 10:05:27.020,-0.032,0.037,1.016
2026/01/08 10:05:27.040,-0.033,0.04,1.012
2026/01/08 10:05:27.060,-0.035,0.042,1.019
2026/01/08 10:05:27.080,-0.034,0.04,1.011
2026/01/08 10:05:27.100,-0.034,0.034,1.015
2026/01/08 10:05:27.120,-0.036,0.038,1.015
2026/01/08 10:05:27.140,-0.033,0.042,1.016
2026/01/08 10:05:27.160,-0.033,0.038,1.017
2026/01/08 10:05:27.180,-0.036,0.044,1.016
2026/01/08 10:05:27.201,-0.036,0.038,1.015
2026/01/08 10:05:27.221,-0.032,0.04,1.015
2026/01/08 10:05:27.241,-0.033,0.037,1.015
2026/01/08 10:05:27.261,-0.031,0.038,1.012
2026/01/08 10:05:27.281,-0.034,0.037,1.011
2026/01/08 10:05:27.301,-0.029,0.038,1.015
2026/01/08 10:05:27.321,-0.032,0.04,1.012
2026/01/08 10:05:27.341,-0.033,0.037,1.012
2026/01/08 10:05:27.361,-0.032,0.036,1.015
2026/01/08 10:05:27.381,-0.032,0.039,1.014
2026/01/08 10:05:27.401,-0.034,0.043,1.015
2026/01/08 10:05:27.421,-0.033,0.042,1.015
2026/01/08 10:05:27.442,-0.034,0.037,1.016
2026/01/08 10:05:27.462,-0.033,0.04,1.013
2026/01/08 10:05:27.482,-0.033,0.037,1.017
2026/01/08 10:05:27.502,-0.035,0.045,1.014
2026/01/08 10:05:27.522,-0.034,0.04,1.016
2026/01/08 10:05:27.542,-0.033,0.038,1.016
2026/01/08 10:05:27.562,-0.03,0.041,1.016
2026/01/08 10:05:27.582,-0.033,0.04,1.013
2026/01/08 10:05:27.602,-0.029,0.04,1.013
2026/01/08 10:05:27.622,-0.031,0.035,1.016
2026/01/08 10:05:27.642,-0.035,0.042,1.016
2026/01/08 10:05:27.663,-0.033,0.04,1.017
2026/01/08 10:05:27.683,-0.031,0.04,1.013
2026/01/08 10:05:27.703,-0.034,0.038,1.015
2026/01/08 10:05:27.723,-0.033,0.038,1.017
2026/01/08 10:05:27.743,-0.035,0.04,1.012
2026/01/08 10:05:27.763,-0.03,0.041,1.015
2026/01/08 10:05:27.783,-0.036,0.038,1.014
2026/01/08 10:05:27.803,-0.033,0.039,1.014
2026/01/08 10:05:27.823,-0.038,0.04,1.017
2026/01/08 10:05:27.843,-0.035,0.038,1.013
2026/01/08 10:05:27.863,-0.034,0.032,1.013
2026/01/08 10:05:27.884,-0.032,0.039,1.016
2026/01/08 10:05:27.904,-0.032,0.04,1.015
2026/01/08 10:05:27.924,-0.036,0.038,1.017
2026/01/08 10:05:27.944,-0.034,0.037,1.017
2026/01/08 10:05:27.964,-0.031,0.039,1.015
2026/01/08 10:05:27.984,-0.034,0.038,1.015
2026/01/08 10:05:28.004,-0.035,0.042,1.016
2026/01/08 10:05:28.024,-0.034,0.04,1.013
2026/01/08 10:05:28.044,-0.032,0.037,1.014
2026/01/08 10:05:28.064,-0.034,0.04,1.015
2026/01/08 10:05:28.084,-0.034,0.034,1.015
2026/01/08 10:05:28.104,-0.03,0.042,1.017
2026/01/08 10:05:28.125,-0.03,0.038,1.016
2026/01/08 10:05:28.145,-0.031,0.04,1.015
2026/01/08 10:05:28.165,-0.033,0.035,1.017
2026/01/08 10:05:28.185,-0.035,0.043,1.014
2026/01/08 10:05:28.205,-0.032,0.038,1.017
2026/01/08 10:05:28.225,-0.03,0.036,1.016
2026/01/08 10:05:28.245,-0.032,0.041,1.013
2026/01/08 10:05:28.265,-0.03,0.042,1.016
2026/01/08 10:05:28.285,-0.033,0.038,1.014
2026/01/08 10:05:28.305,-0.034,0.037,1.012
2026/01/08 10:05:28.325,-0.033,0.036,1.073
2026/01/08 10:05:28.346,-0.018,0.025,0.964
2026/01/08 10:05:28.366,-0.038,0.037,1.038
2026/01/08 10:05:28.386,-0.032,0.032,1.049
2026/01/08 10:05:28.406,-0.032,0.032,0.993
2026/01/08 10:05:28.426,-0.031,0.041,1.044
2026/01/08 10:05:28.446,-0.03,0.042,0.998
2026/01/08 10:05:28.466,-0.031,0.039,1.002
2026/01/08 10:05:28.486,-0.035,0.065,1.001
2026/01/08 10:05:28.506,-0.036,0.043,1.016
2026/01/08 10:05:28.526,-0.034,0.052,1.017
2026/01/08 10:05:28.546,-0.026,0.03,1.013
2026/01/08 10:05:28.566,-0.034,0.034,1.024
2026/01/08 10:05:28.587,-0.034,0.04,1.013
2026/01/08 10:05:28.607,-0.035,0.041,1.018
2026/01/08 10:05:28.627,-0.031,0.04,1.019
2026/01/08 10:05:28.647,-0.031,0.04,1.015
2026/01/08 10:05:28.667,-0.039,0.036,1.016
2026/01/08 10:05:28.687,-0.034,0.04,1.014
2026/01/08 10:05:28.707,-0.032,0.038,1.016
2026/01/08 10:05:28.727,-0.035,0.038,1.015
2026/01/08 10:05:28.747,-0.034,0.041,1.018
2026/01/08 10:05:28.767,-0.031,0.04,1.013
2026/01/08 10:05:28.787,-0.034,0.037,1.016
2026/01/08 10:05:28.808,-0.031,0.039,1.014
2026/01/08 10:05:28.828,-0.032,0.038,1.016
2026/01/08 10:05:28.848,-0.034,0.041,1.015
2026/01/08 10:05:28.868,-0.031,0.037,1.015
2026/01/08 10:05:28.888,-0.03,0.04,1.016
2026/01/08 10:05:28.908,-0.031,0.039,1.015
2026/01/08 10:05:28.928,-0.032,0.038,1.014
2026/01/08 10:05:28.948,-0.032,0.042,1.018
2026/01/08 10:05:28.968,-0.034,0.037,1.015
2026/01/08 10:05:28.988,-0.034,0.043,1.012
2026/01/08 10:05:29.008,-0.035,0.042,1.018
2026/01/08 10:05:29.029,-0.026,0.037,1.015
2026/01/08 10:05:29.049,-0.033,0.039,1.016
2026/01/08 10:05:29.069,-0.033,0.04,1.021
2026/01/08 10:05:29.089,-0.037,0.041,1.008
2026/01/08 10:05:29.109,-0.014,0.053,1.047
2026/01/08 10:05:29.129,-0.032,0.046,1.02
2026/01/08 10:05:29.149,-0.015,0.028,0.905
2026/01/08 10:05:29.169,-0.022,0.043,1.098
2026/01/08 10:05:29.189,-0.043,0.047,1.035
2026/01/08 10:05:29.209,-0.041,0.06,1.054
2026/01/08 10:05:29.229,-0.033,0.047,1.021
2026/01/08 10:05:29.249,-0.037,0.04,1.022
2026/01/08 10:05:29.270,-0.019,0.03,1.032
2026/01/08 10:05:29.290,-0.018,0.051,1.076
2026/01/08 10:05:29.310,-0.045,0.028,0.991
2026/01/08 10:05:29.330,-0.018,0.037,0.993
2026/01/08 10:05:29.350,-0.031,0.051,1.045
2026/01/08 10:05:29.370,-0.054,0.047,0.991
2026/01/08 10:05:29.390,-0.026,0.039,1.066
2026/01/08 10:05:29.410,-0.032,0.008,0.981
2026/01/08 10:05:29.430,-0.062,0.031,1.068
2026/01/08 10:05:29.450,-0.048,0.05,1.132
2026/01/08 10:05:29.470,-0.043,0.06,0.982
2026/01/08 10:05:29.491,-0.034,0.041,0.983
2026/01/08 10:05:29.511,-0.033,0.039,1.034
2026/01/08 10:05:29.531,-0.085,0.097,1.606
2026/01/08 10:05:29.551,0.04,-0.032,1.141
2026/01/08 10:05:29.571,-0.011,0.057,0.95
2026/01/08 10:05:29.591,-0.02,0.003,1.075
2026/01/08 10:05:29.611,-0.03,0.039,0.977
2026/01/08 10:05:29.631,-0.031,0.043,1.023
2026/01/08 10:05:29.651,-0.032,0.035,1.005
2026/01/08 10:05:29.671,-0.03,0.039,1.023
2026/01/08 10:05:29.691,-0.033,0.037,1.015
2026/01/08 10:05:29.711,-0.033,0.041,1.02
2026/01/08 10:05:29.732,-0.035,0.037,1.014
2026/01/08 10:05:29.752,-0.042,0.049,1.044
2026/01/08 10:05:29.772,-0.034,0.032,1.018
2026/01/08 10:05:29.792,-0.033,0.036,1.019
2026/01/08 10:05:29.812,-0.031,0.045,1.006
2026/01/08 10:05:29.832,-0.031,0.038,1.016
2026/01/08 10:05:29.852,-0.034,0.039,1.013
2026/01/08 10:05:29.872,-0.031,0.036,1.015
2026/01/08 10:05:29.892,-0.032,0.04,1.016
2026/01/08 10:05:29.912,-0.033,0.041,1.014
2026/01/08 10:05:29.932,-0.03,0.038,1.014
2026/01/08 10:05:29.953,-0.029,0.038,1.015
2026/01/08 10:05:29.973,-0.033,0.04,1.014
2026/01/08 10:05:29.993,-0.034,0.039,1.014
2026/01/08 10:05:30.013,-0.036,0.034,1.016
2026/01/08 10:05:30.033,-0.031,0.042,1.013
2026/01/08 10:05:30.053,-0.031,0.037,1.014
2026/01/08 10:05:30.073,-0.032,0.04,1.013
2026/01/08 10:05:30.093,-0.036,0.037,1.016
2026/01/08 10:05:30.113,-0.037,0.044,1.016
2026/01/08 10:05:30.133,-0.036,0.036,1.016
2026/01/08 10:05:30.153,-0.037,0.041,1.018
2026/01/08 10:05:30.174,-0.034,0.041,1.014
2026/01/08 10:05:30.194,-0.03,0.039,1.014
2026/01/08 10:05:30.214,-0.033,0.045,1.014
2026/01/08 10:05:30.234,-0.037,0.041,1.016
2026/01/08 10:05:30.254,-0.031,0.04,1.014
2026/01/08 10:05:30.274,-0.034,0.038,1.014
2026/01/08 10:05:30.294,-0.034,0.037,1.013
2026/01/08 10:05:30.314,-0.032,0.04,1.015
2026/01/08 10:05:30.334,-0.037,0.041,1.014
2026/01/08 10:05:30.354,-0.029,0.035,1.014
2026/01/08 10:05:30.374,-0.034,0.039,1.014
2026/01/08 10:05:30.395,-0.032,0.042,1.017
2026/01/08 10:05:30.415,-0.033,0.04,1.014
2026/01/08 10:05:30.435,-0.034,0.041,1.015
2026/01/08 10:05:30.455,-0.033,0.039,1.013
2026/01/08 10:05:30.475,-0.032,0.041,1.015
2026/01/08 10:05:30.495,-0.036,0.037,1.016
2026/01/08 10:05:30.515,-0.034,0.037,1.016
2026/01/08 10:05:30.535,-0.032,0.04,1.016
2026/01/08 10:05:30.555,-0.033,0.04,1.014
2026/01/08 10:05:30.575,-0.034,0.036,1.014
2026/01/08 10:05:30.595,-0.033,0.041,1.016
2026/01/08 10:05:30.616,-0.035,0.041,1.015
2026/01/08 10:05:30.636,-0.031,0.041,1.014
2026/01/08 10:05:30.656,-0.034,0.039,1.015
2026/01/08 10:05:30.676,-0.033,0.038,1.014
2026/01/08 10:05:30.696,-0.031,0.038,1.015
2026/01/08 10:05:30.716,-0.032,0.037,1.014
2026/01/08 10:05:30.736,-0.036,0.041,1.016
2026/01/08 10:05:30.756,-0.032,0.041,1.016
2026/01/08 10:05:30.776,-0.033,0.038,1.018
2026/01/08 10:05:30.796,-0.032,0.038,1.016
2026/01/08 10:05:30.816,-0.034,0.041,1.016
2026/01/08 10:05:30.837,-0.033,0.038,1.013
2026/01/08 10:05:30.857,-0.033,0.04,1.016
2026/01/08 10:05:30.877,-0.029,0.037,1.013
2026/01/08 10:05:30.897,-0.033,0.039,1.016
2026/01/08 10:05:30.917,-0.034,0.037,1.015
2026/01/08 10:05:30.937,-0.032,0.042,1.015
2026/01/08 10:05:30.957,-0.029,0.043,1.013
2026/01/08 10:05:30.977,-0.035,0.035,1.016
2026/01/08 10:05:30.997,-0.034,0.039,1.014
2026/01/08 10:05:31.017,-0.032,0.038,1.015
2026/01/08 10:05:31.037,-0.03,0.038,1.014
2026/01/08 10:05:31.057,-0.034,0.04,1.013
2026/01/08 10:05:31.078,-0.034,0.042,1.013
2026/01/08 10:05:31.098,-0.033,0.042,1.017
2026/01/08 10:05:31.118,-0.031,0.041,1.014
2026/01/08 10:05:31.138,-0.031,0.042,1.018
2026/01/08 10:05:31.158,-0.032,0.038,1.013
2026/01/08 10:05:31.178,-0.03,0.041,1.015
2026/01/08 10:05:31.198,-0.032,0.042,1.016
2026/01/08 10:05:31.218,-0.035,0.041,1.014
2026/01/08 10:05:31.238,-0.03,0.041,1.014
2026/01/08 10:05:31.258,-0.034,0.038,1.015
2026/01/08 10:05:31.278,-0.035,0.042,1.015
2026/01/08 10:05:31.299,-0.033,0.042,1.017
2026/01/08 10:05:31.319,-0.033,0.041,1.016
2026/01/08 10:05:31.339,-0.032,0.042,1.011
2026/01/08 10:05:31.359,-0.033,0.044,1.013
2026/01/08 10:05:31.379,-0.03,0.039,1.013
2026/01/08 10:05:31.399,-0.033,0.041,1.015
2026/01/08 10:05:31.419,-0.032,0.039,1.014
2026/01/08 10:05:31.439,-0.033,0.041,1.014
2026/01/08 10:05:31.459,-0.033,0.038,1.014
2026/01/08 10:05:31.479,-0.033,0.037,1.016
2026/01/08 10:05:31.499,-0.033,0.041,1.017
2026/01/08 10:05:31.520,-0.035,0.038,1.018
2026/01/08 10:05:31.540,-0.031,0.039,1.015
2026/01/08 10:05:31.560,-0.033,0.041,1.015
2026/01/08 10:05:31.580,-0.035,0.04,1.014
2026/01/08 10:05:31.600,-0.033,0.041,1.016
2026/01/08 10:05:31.620,-0.033,0.04,1.014
2026/01/08 10:05:31.640,-0.033,0.041,1.017
2026/01/08 10:05:31.660,-0.031,0.038,1.015
2026/01/08 10:05:31.680,-0.034,0.043,1.016
2026/01/08 10:05:31.700,-0.033,0.038,1.02
2026/01/08 10:05:31.720,-0.033,0.035,1.015
2026/01/08 10:05:31.741,-0.033,0.041,1.015
2026/01/08 10:05:31.761,-0.034,0.041,1.015
2026/01/08 10:05:31.781,-0.034,0.041,1.018
2026/01/08 10:05:31.801,-0.033,0.038,1.013
2026/01/08 10:05:31.821,-0.036,0.039,1.017
2026/01/08 10:05:31.841,-0.032,0.038,1.016
2026/01/08 10:05:31.861,-0.034,0.04,1.014
2026/01/08 10:05:31.881,-0.033,0.038,1.014
2026/01/08 10:05:31.901,-0.034,0.041,1.015
2026/01/08 10:05:31.921,-0.031,0.04,1.013
2026/01/08 10:05:31.941,-0.031,0.044,1.015
2026/01/08 10:05:31.962,-0.032,0.04,1.017
2026/01/08 10:05:31.982,-0.031,0.04,1.016
2026/01/08 10:05:32.002,-0.034,0.043,1.014
2026/01/08 10:05:32.022,-0.035,0.042,1.015
2026/01/08 10:05:32.042,-0.034,0.039,1.014
2026/01/08 10:05:32.062,-0.035,0.038,1.012
2026/01/08 10:05:32.082,-0.033,0.039,1.017
2026/01/08 10:05:32.102,-0.032,0.039,1.014
2026/01/08 10:05:32.122,-0.031,0.039,1.013
2026/01/08 10:05:32.142,-0.033,0.036,1.015
2026/01/08 10:05:32.162,-0.032,0.041,1.014
2026/01/08 10:05:32.183,-0.032,0.04,1.016
2026/01/08 10:05:32.203,-0.033,0.042,1.018
2026/01/08 10:05:32.223,-0.035,0.04,1.015
2026/01/08 10:05:32.243,-0.033,0.038,1.018
2026/01/08 10:05:32.263,-0.032,0.039,1.015
2026/01/08 10:05:32.283,-0.034,0.039,1.014
2026/01/08 10:05:32.303,-0.037,0.041,1.016
2026/01/08 10:05:32.323,-0.033,0.037,1.015
2026/01/08 10:05:32.343,-0.034,0.04,1.018
2026/01/08 10:05:32.363,-0.033,0.037,1.018
2026/01/08 10:05:32.383,-0.031,0.043,1.014
2026/01/08 10:05:32.404,-0.035,0.039,1.014
2026/01/08 10:05:32.424,-0.034,0.04,1.015
2026/01/08 10:05:32.444,-0.032,0.039,1.017
2026/01/08 10:05:32.464,-0.032,0.041,1.014
2026/01/08 10:05:32.484,-0.037,0.039,1.016
2026/01/08 10:05:32.504,-0.031,0.042,1.016
2026/01/08 10:05:32.524,-0.032,0.039,1.012
2026/01/08 10:05:32.544,-0.031,0.039,1.014
2026/01/08 10:05:32.564,-0.033,0.038,1.014
2026/01/08 10:05:32.584,-0.034,0.041,1.016
2026/01/08 10:05:32.604,-0.034,0.037,1.017
2026/01/08 10:05:32.625,-0.036,0.037,1.016
2026/01/08 10:05:32.645,-0.034,0.039,1.013
2026/01/08 10:05:32.665,-0.034,0.035,1.019
2026/01/08 10:05:32.685,-0.034,0.038,1.013
2026/01/08 10:05:32.705,-0.035,0.042,1.013
2026/01/08 10:05:32.725,-0.034,0.043,1.013
2026/01/08 10:05:32.745,-0.033,0.041,1.016
2026/01/08 10:05:32.765,-0.034,0.04,1.015
2026/01/08 10:05:32.785,-0.034,0.043,1.014
2026/01/08 10:05:32.805,-0.033,0.041,1.015
2026/01/08 10:05:32.825,-0.034,0.039,1.021
2026/01/08 10:05:32.846,-0.032,0.04,1.016
2026/01/08 10:05:32.866,-0.03,0.04,1.015
2026/01/08 10:05:32.886,-0.035,0.039,1.014
2026/01/08 10:05:32.906,-0.034,0.041,1.017
2026/01/08 10:05:32.926,-0.032,0.037,1.017
2026/01/08 10:05:32.946,-0.033,0.04,1.015
2026/01/08 10:05:32.966,-0.031,0.035,1.016
2026/01/08 10:05:32.986,-0.031,0.041,1.017
2026/01/08 10:05:33.006,-0.035,0.04,1.013
2026/01/08 10:05:33.026,-0.035,0.037,1.012
2026/01/08 10:05:33.046,-0.034,0.04,1.015
2026/01/08 10:05:33.067,-0.034,0.04,1.015
2026/01/08 10:05:33.087,-0.034,0.041,1.013
2026/01/08 10:05:33.107,-0.034,0.04,1.014
2026/01/08 10:05:33.127,-0.036,0.038,1.017
2026/01/08 10:05:33.147,-0.032,0.039,1.015
2026/01/08 10:05:33.167,-0.031,0.039,1.015
2026/01/08 10:05:33.187,-0.033,0.039,1.016
2026/01/08 10:05:33.207,-0.033,0.04,1.017
2026/01/08 10:05:33.227,-0.031,0.042,1.014
2026/01/08 10:05:33.247,-0.033,0.037,1.015
2026/01/08 10:05:33.267,-0.034,0.04,1.014
2026/01/08 10:05:33.288,-0.028,0.043,1.016
2026/01/08 10:05:33.308,-0.034,0.045,1.01
2026/01/08 10:05:33.328,-0.029,0.039,1.015
2026/01/08 10:05:33.348,-0.033,0.041,1.014
2026/01/08 10:05:33.368,-0.034,0.04,1.016
2026/01/08 10:05:33.388,-0.032,0.04,1.015
2026/01/08 10:05:33.408,-0.031,0.038,1.016
2026/01/08 10:05:33.428,-0.035,0.035,1.015
2026/01/08 10:05:33.448,-0.035,0.04,1.017
2026/01/08 10:05:33.468,-0.035,0.043,1.016
2026/01/08 10:05:33.488,-0.036,0.04,1.014
2026/01/08 10:05:33.509,-0.035,0.039,1.015
2026/01/08 10:05:33.529,-0.034,0.038,1.018
2026/01/08 10:05:33.549,-0.033,0.043,1.015
2026/01/08 10:05:33.569,-0.03,0.039,1.013
2026/01/08 10:05:33.589,-0.034,0.04,1.013
2026/01/08 10:05:33.609,-0.034,0.038,1.012
2026/01/08 10:05:33.629,-0.034,0.038,1.015
2026/01/08 10:05:33.649,-0.032,0.042,1.013
2026/01/08 10:05:33.669,-0.033,0.039,1.015
2026/01/08 10:05:33.689,-0.035,0.039,1.015
2026/01/08 10:05:33.709,-0.036,0.042,1.015
2026/01/08 10:05:33.730,-0.033,0.042,1.014
2026/01/08 10:05:33.750,-0.032,0.039,1.014
2026/01/08 10:05:33.770,-0.036,0.04,1.014
2026/01/08 10:05:33.790,-0.029,0.038,1.015
2026/01/08 10:05:33.810,-0.034,0.041,1.013
2026/01/08 10:05:33.830,-0.027,0.042,1.018
2026/01/08 10:05:33.850,-0.03,0.042,1.015
2026/01/08 10:05:33.870,-0.034,0.041,1.013
2026/01/08 10:05:33.890,-0.034,0.038,1.013
2026/01/08 10:05:33.910,-0.035,0.04,1.016
2026/01/08 10:05:33.930,-0.035,0.038,1.017
2026/01/08 10:05:33.951,-0.035,0.04,1.016
2026/01/08 10:05:33.971,-0.034,0.039,1.014
2026/01/08 10:05:33.991,-0.032,0.043,1.014
2026/01/08 10:05:34.011,-0.03,0.036,1.015
2026/01/08 10:05:34.031,-0.036,0.037,1.014
2026/01/08 10:05:34.051,-0.033,0.041,1.015
2026/01/08 10:05:34.071,-0.034,0.04,1.014
2026/01/08 10:05:34.091,-0.033,0.041,1.016
2026/01/08 10:05:34.111,-0.034,0.043,1.015
2026/01/08 10:05:34.131,-0.03,0.04,1.013
2026/01/08 10:05:34.151,-0.034,0.038,1.015
2026/01/08 10:05:34.172,-0.033,0.041,1.017
2026/01/08 10:05:34.192,-0.032,0.04,1.013
2026/01/08 10:05:34.212,-0.034,0.037,1.014
2026/01/08 10:05:34.232,-0.029,0.042,1.016
2026/01/08 10:05:34.252,-0.032,0.04,1.013
2026/01/08 10:05:34.272,-0.031,0.043,1.012
2026/01/08 10:05:34.292,-0.029,0.04,1.016
2026/01/08 10:05:34.312,-0.032,0.039,1.016
2026/01/08 10:05:34.332,-0.035,0.04,1.014
2026/01/08 10:05:34.352,-0.034,0.036,1.018
2026/01/08 10:05:34.372,-0.034,0.043,1.015
2026/01/08 10:05:34.393,-0.031,0.042,1.014
2026/01/08 10:05:34.413,-0.032,0.038,1.015
2026/01/08 10:05:34.433,-0.033,0.043,1.017
2026/01/08 10:05:34.453,-0.033,0.044,1.017
2026/01/08 10:05:34.473,-0.03,0.036,1.013
2026/01/08 10:05:34.493,-0.036,0.038,1.015
2026/01/08 10:05:34.513,-0.031,0.043,1.013
2026/01/08 10:05:34.533,-0.035,0.037,1.014
2026/01/08 10:05:34.553,-0.033,0.041,1.015
2026/01/08 10:05:34.573,-0.033,0.041,1.014
2026/01/08 10:05:34.593,-0.036,0.038,1.014
2026/01/08 10:05:34.614,-0.033,0.037,1.014
2026/01/08 10:05:34.634,-0.032,0.043,1.016
2026/01/08 10:05:34.654,-0.032,0.038,1.014
2026/01/08 10:05:34.674,-0.034,0.039,1.016
2026/01/08 10:05:34.694,-0.034,0.039,1.016
2026/01/08 10:05:34.714,-0.035,0.039,1.015
2026/01/08 10:05:34.734,-0.035,0.039,1.011
2026/01/08 10:05:34.754,-0.03,0.038,1.015
2026/01/08 10:05:34.774,-0.032,0.038,1.016
2026/01/08 10:05:34.794,-0.033,0.04,1.014
2026/01/08 10:05:34.814,-0.035,0.041,1.014
2026/01/08 10:05:34.835,-0.033,0.04,1.017
2026/01/08 10:05:34.855,-0.034,0.04,1.015
2026/01/08 10:05:34.875,-0.031,0.041,1.014
2026/01/08 10:05:34.895,-0.035,0.039,1.013
2026/01/08 10:05:34.915,-0.033,0.041,1.015
2026/01/08 10:05:34.935,-0.036,0.042,1.016
2026/01/08 10:05:34.955,-0.033,0.039,1.017
2026/01/08 10:05:34.975,-0.033,0.042,1.016
2026/01/08 10:05:34.995,-0.032,0.04,1.016
2026/01/08 10:05:35.015,-0.033,0.038,1.015
2026/01/08 10:05:35.035,-0.035,0.036,1.022
2026/01/08 10:05:35.056,-0.035,0.041,1.016
2026/01/08 10:05:35.076,-0.033,0.041,1.015
2026/01/08 10:05:35.096,-0.035,0.043,1.015
2026/01/08 10:05:35.116,-0.032,0.036,1.015
2026/01/08 10:05:35.136,-0.034,0.038,1.013
2026/01/08 10:05:35.156,-0.031,0.041,1.013
2026/01/08 10:05:35.176,-0.033,0.041,1.013
2026/01/08 10:05:35.196,-0.032,0.038,1.014
2026/01/08 10:05:35.216,-0.032,0.04,1.017
2026/01/08 10:05:35.236,-0.033,0.04,1.016
2026/01/08 10:05:35.256,-0.033,0.042,1.015
2026/01/08 10:05:35.277,-0.034,0.04,1.017
2026/01/08 10:05:35.297,-0.036,0.04,1.014
2026/01/08 10:05:35.317,-0.032,0.036,1.014
2026/01/08 10:05:35.337,-0.034,0.038,1.016
2026/01/08 10:05:35.357,-0.032,0.039,1.017
2026/01/08 10:05:35.377,-0.034,0.038,1.016
2026/01/08 10:05:35.397,-0.032,0.038,1.016
2026/01/08 10:05:35.417,-0.034,0.042,1.018
2026/01/08 10:05:35.437,-0.031,0.039,1.014
2026/01/08 10:05:35.457,-0.032,0.041,1.014
2026/01/08 10:05:35.477,-0.032,0.039,1.012
2026/01/08 10:05:35.497,-0.033,0.041,1.014
2026/01/08 10:05:35.518,-0.035,0.042,1.015
2026/01/08 10:05:35.538,-0.034,0.038,1.014
2026/01/08 10:05:35.558,-0.034,0.042,1.015
2026/01/08 10:05:35.578,-0.037,0.041,1.013
2026/01/08 10:05:35.598,-0.035,0.038,1.015
2026/01/08 10:05:35.618,-0.033,0.041,1.017
2026/01/08 10:05:35.638,-0.034,0.04,1.015
2026/01/08 10:05:35.658,-0.033,0.034,1.015
2026/01/08 10:05:35.678,-0.034,0.042,1.014
2026/01/08 10:05:35.698,-0.033,0.038,1.014
2026/01/08 10:05:35.718,-0.032,0.038,1.018
2026/01/08 10:05:35.739,-0.033,0.039,1.015
2026/01/08 10:05:35.759,-0.031,0.041,1.012
2026/01/08 10:05:35.779,-0.034,0.037,1.018
2026/01/08 10:05:35.799,-0.034,0.04,1.014
2026/01/08 10:05:35.819,-0.034,0.036,1.018
2026/01/08 10:05:35.839,-0.033,0.044,1.014
2026/01/08 10:05:35.859,-0.034,0.043,1.016
2026/01/08 10:05:35.879,-0.035,0.036,1.017
2026/01/08 10:05:35.899,-0.034,0.039,1.016
2026/01/08 10:05:35.919,-0.031,0.036,1.014
2026/01/08 10:05:35.939,-0.03,0.04,1.015
2026/01/08 10:05:35.960,-0.027,0.038,1.015
2026/01/08 10:05:35.980,-0.033,0.039,1.013
2026/01/08 10:05:36.000,-0.031,0.041,1.017
2026/01/08 10:05:36.020,-0.031,0.039,1.014
2026/01/08 10:05:36.040,-0.031,0.038,1.013
2026/01/08 10:05:36.060,-0.033,0.041,1.018
2026/01/08 10:05:36.080,-0.033,0.038,1.017
2026/01/08 10:05:36.100,-0.034,0.039,1.014
2026/01/08 10:05:36.120,-0.033,0.039,1.014
2026/01/08 10:05:36.140,-0.03,0.033,1.013
2026/01/08 10:05:36.160,-0.031,0.042,1.013
2026/01/08 10:05:36.180,-0.03,0.04,1.016
2026/01/08 10:05:36.201,-0.031,0.038,1.016
2026/01/08 10:05:36.221,-0.032,0.041,1.012
2026/01/08 10:05:36.241,-0.031,0.042,1.018
2026/01/08 10:05:36.261,-0.032,0.041,1.018
2026/01/08 10:05:36.281,-0.031,0.043,1.016
2026/01/08 10:05:36.301,-0.032,0.042,1.014
2026/01/08 10:05:36.321,-0.032,0.038,1.016
2026/01/08 10:05:36.341,-0.033,0.034,1.017
2026/01/08 10:05:36.361,-0.034,0.041,1.014
2026/01/08 10:05:36.381,-0.036,0.041,1.014
2026/01/08 10:05:36.401,-0.032,0.041,1.014
2026/01/08 10:05:36.422,-0.033,0.038,1.015
2026/01/08 10:05:36.442,-0.03,0.043,1.016
2026/01/08 10:05:36.462,-0.032,0.038,1.016
2026/01/08 10:05:36.482,-0.033,0.041,1.015
2026/01/08 10:05:36.502,-0.033,0.038,1.012
2026/01/08 10:05:36.522,-0.036,0.038,1.016
2026/01/08 10:05:36.542,-0.032,0.037,1.015
2026/01/08 10:05:36.562,-0.034,0.037,1.016
2026/01/08 10:05:36.582,-0.032,0.04,1.014
2026/01/08 10:05:36.602,-0.033,0.044,1.016
2026/01/08 10:05:36.622,-0.034,0.044,1.015
2026/01/08 10:05:36.643,-0.031,0.041,1.012
2026/01/08 10:05:36.663,-0.033,0.04,1.015
2026/01/08 10:05:36.683,-0.032,0.044,1.013
2026/01/08 10:05:36.703,-0.03,0.036,1.013
2026/01/08 10:05:36.723,-0.031,0.038,1.019
2026/01/08 10:05:36.743,-0.032,0.039,1.014
2026/01/08 10:05:36.763,-0.034,0.043,1.017
2026/01/08 10:05:36.783,-0.034,0.037,1.016
2026/01/08 10:05:36.803,-0.034,0.043,1.015
2026/01/08 10:05:36.823,-0.035,0.037,1.012
2026/01/08 10:05:36.843,-0.033,0.041,1.016
2026/01/08 10:05:36.863,-0.032,0.039,1.019
2026/01/08 10:05:36.884,-0.033,0.041,1.015
2026/01/08 10:05:36.904,-0.031,0.038,1.018
2026/01/08 10:05:36.924,-0.032,0.038,1.015
2026/01/08 10:05:36.944,-0.033,0.039,1.011
2026/01/08 10:05:36.964,-0.034,0.039,1.018
2026/01/08 10:05:36.984,-0.032,0.041,1.016
2026/01/08 10:05:37.004,-0.032,0.039,1.016
2026/01/08 10:05:37.024,-0.032,0.043,1.016
2026/01/08 10:05:37.044,-0.032,0.044,1.014
2026/01/08 10:05:37.064,-0.032,0.04,1.016
2026/01/08 10:05:37.084,-0.034,0.039,1.016
2026/01/08 10:05:37.105,-0.033,0.039,1.016
2026/01/08 10:05:37.125,-0.031,0.039,1.013
2026/01/08 10:05:37.145,-0.037,0.038,1.016
2026/01/08 10:05:37.165,-0.037,0.04,1.013
2026/01/08 10:05:37.185,-0.031,0.041,1.017
2026/01/08 10:05:37.205,-0.034,0.036,1.016
2026/01/08 10:05:37.225,-0.035,0.041,1.015
2026/01/08 10:05:37.245,-0.03,0.042,1.015
2026/01/08 10:05:37.265,-0.036,0.042,1.013
2026/01/08 10:05:37.285,-0.036,0.043,1.016
2026/01/08 10:05:37.305,-0.036,0.038,1.016
2026/01/08 10:05:37.326,-0.033,0.04,1.015
2026/01/08 10:05:37.346,-0.033,0.042,1.013
2026/01/08 10:05:37.366,-0.034,0.04,1.018
2026/01/08 10:05:37.386,-0.034,0.041,1.013
2026/01/08 10:05:37.406,-0.034,0.04,1.017
2026/01/08 10:05:37.426,-0.036,0.039,1.014
2026/01/08 10:05:37.446,-0.035,0.04,1.013
2026/01/08 10:05:37.466,-0.034,0.041,1.016
2026/01/08 10:05:37.486,-0.034,0.042,1.015
2026/01/08 10:05:37.506,-0.034,0.04,1.013
2026/01/08 10:05:37.526,-0.031,0.038,1.015
2026/01/08 10:05:37.546,-0.034,0.039,1.017
2026/01/08 10:05:37.567,-0.033,0.037,1.013
2026/01/08 10:05:37.587,-0.034,0.04,1.015
2026/01/08 10:05:37.607,-0.035,0.041,1.017
2026/01/08 10:05:37.627,-0.033,0.039,1.013
2026/01/08 10:05:37.647,-0.032,0.039,1.017
2026/01/08 10:05:37.667,-0.031,0.039,1.019
2026/01/08 10:05:37.687,-0.035,0.043,1.016
2026/01/08 10:05:37.707,-0.032,0.041,1.015
2026/01/08 10:05:37.727,-0.033,0.038,1.014
2026/01/08 10:05:37.747,-0.037,0.04,1.016
2026/01/08 10:05:37.767,-0.032,0.041,1.014
2026/01/08 10:05:37.788,-0.036,0.038,1.013
2026/01/08 10:05:37.808,-0.03,0.043,1.015
2026/01/08 10:05:37.828,-0.031,0.043,1.012
2026/01/08 10:05:37.848,-0.035,0.04,1.015
2026/01/08 10:05:37.868,-0.032,0.043,1.015
2026/01/08 10:05:37.888,-0.031,0.044,1.017
2026/01/08 10:05:37.908,-0.03,0.039,1.015
2026/01/08 10:05:37.928,-0.036,0.038,1.014
2026/01/08 10:05:37.948,-0.034,0.043,1.017
2026/01/08 10:05:37.968,-0.032,0.04,1.013
2026/01/08 10:05:37.988,-0.033,0.036,1.014
2026/01/08 10:05:38.009,-0.031,0.041,1.016
2026/01/08 10:05:38.029,-0.034,0.041,1.013
2026/01/08 10:05:38.049,-0.033,0.042,1.013
2026/01/08 10:05:38.069,-0.032,0.039,1.014
2026/01/08 10:05:38.089,-0.034,0.039,1.015
2026/01/08 10:05:38.109,-0.031,0.043,1.014
2026/01/08 10:05:38.129,-0.036,0.04,1.017
2026/01/08 10:05:38.149,-0.034,0.04,1.015
2026/01/08 10:05:38.169,-0.034,0.04,1.014
2026/01/08 10:05:38.189,-0.031,0.041,1.017
2026/01/08 10:05:38.209,-0.033,0.043,1.016
2026/01/08 10:05:38.229,-0.035,0.041,1.015
2026/01/08 10:05:38.250,-0.031,0.039,1.014
2026/01/08 10:05:38.270,-0.035,0.039,1.017
2026/01/08 10:05:38.290,-0.033,0.04,1.017
2026/01/08 10:05:38.310,-0.036,0.04,1.016
2026/01/08 10:05:38.330,-0.032,0.042,1.018
2026/01/08 10:05:38.350,-0.032,0.041,1.015
2026/01/08 10:05:38.370,-0.032,0.041,1.015
2026/01/08 10:05:38.390,-0.032,0.039,1.016
2026/01/08 10:05:38.410,-0.035,0.04,1.017
2026/01/08 10:05:38.430,-0.032,0.034,1.017
2026/01/08 10:05:38.450,-0.03,0.035,1.014
2026/01/08 10:05:38.471,-0.034,0.039,1.015
2026/01/08 10:05:38.491,-0.032,0.036,1.016
2026/01/08 10:05:38.511,-0.036,0.035,1.014
2026/01/08 10:05:38.531,-0.036,0.041,1.018
2026/01/08 10:05:38.551,-0.034,0.042,1.015
2026/01/08 10:05:38.571,-0.033,0.038,1.015
2026/01/08 10:05:38.591,-0.036,0.038,1.015
2026/01/08 10:05:38.611,-0.032,0.041,1.017
2026/01/08 10:05:38.631,-0.033,0.038,1.015
2026/01/08 10:05:38.651,-0.033,0.041,1.015
2026/01/08 10:05:38.671,-0.031,0.041,1.017
2026/01/08 10:05:38.691,-0.034,0.039,1.014
2026/01/08 10:05:38.712,-0.034,0.041,1.015
2026/01/08 10:05:38.732,-0.034,0.042,1.016
2026/01/08 10:05:38.752,-0.032,0.037,1.015
2026/01/08 10:05:38.772,-0.032,0.041,1.013
2026/01/08 10:05:38.792,-0.035,0.04,1.015
2026/01/08 10:05:38.812,-0.034,0.036,1.013
2026/01/08 10:05:38.832,-0.029,0.041,1.018
2026/01/08 10:05:38.852,-0.031,0.039,1.016
2026/01/08 10:05:38.872,-0.033,0.036,1.016
2026/01/08 10:05:38.892,-0.031,0.038,1.016
2026/01/08 10:05:38.912,-0.03,0.037,1.015
2026/01/08 10:05:38.933,-0.033,0.039,1.014
2026/01/08 10:05:38.953,-0.035,0.04,1.015
2026/01/08 10:05:38.973,-0.03,0.041,1.015
2026/01/08 10:05:38.993,-0.038,0.04,1.013
2026/01/08 10:05:39.013,-0.034,0.039,1.016
2026/01/08 10:05:39.033,-0.035,0.035,1.015
2026/01/08 10:05:39.053,-0.029,0.04,1.018
2026/01/08 10:05:39.073,-0.031,0.038,1.015
2026/01/08 10:05:39.093,-0.031,0.038,1.014
2026/01/08 10:05:39.113,-0.03,0.039,1.015
2026/01/08 10:05:39.133,-0.035,0.042,1.017
2026/01/08 10:05:39.153,-0.034,0.04,1.013
2026/01/08 10:05:39.174,-0.033,0.039,1.016
2026/01/08 10:05:39.194,-0.034,0.041,1.013
2026/01/08 10:05:39.214,-0.035,0.037,1.016
2026/01/08 10:05:39.234,-0.031,0.038,1.015
2026/01/08 10:05:39.254,-0.034,0.039,1.014
2026/01/08 10:05:39.274,-0.034,0.04,1.014
2026/01/08 10:05:39.294,-0.034,0.041,1.018
2026/01/08 10:05:39.314,-0.033,0.04,1.014
2026/01/08 10:05:39.334,-0.032,0.042,1.014
2026/01/08 10:05:39.354,-0.034,0.036,1.014
2026/01/08 10:05:39.374,-0.032,0.037,1.015
2026/01/08 10:05:39.395,-0.032,0.037,1.016
2026/01/08 10:05:39.415,-0.034,0.036,1.014
2026/01/08 10:05:39.435,-0.032,0.041,1.014
2026/01/08 10:05:39.455,-0.034,0.04,1.014
2026/01/08 10:05:39.475,-0.032,0.035,1.014
2026/01/08 10:05:39.495,-0.033,0.043,1.018
2026/01/08 10:05:39.515,-0.029,0.039,1.015
2026/01/08 10:05:39.535,-0.034,0.038,1.014
2026/01/08 10:05:39.555,-0.029,0.036,1.013
2026/01/08 10:05:39.575,-0.033,0.04,1.014
2026/01/08 10:05:39.595,-0.036,0.038,1.015
2026/01/08 10:05:39.616,-0.03,0.04,1.013
2026/01/08 10:05:39.636,-0.032,0.041,1.016
2026/01/08 10:05:39.656,-0.033,0.036,1.014
2026/01/08 10:05:39.676,-0.037,0.039,1.015
2026/01/08 10:05:39.696,-0.032,0.037,1.014
2026/01/08 10:05:39.716,-0.032,0.041,1.012
2026/01/08 10:05:39.736,-0.032,0.042,1.018
2026/01/08 10:05:39.756,-0.034,0.04,1.013
2026/01/08 10:05:39.776,-0.034,0.039,1.019
2026/01/08 10:05:39.796,-0.037,0.043,1.017
2026/01/08 10:05:39.816,-0.033,0.04,1.013
2026/01/08 10:05:39.836,-0.033,0.042,1.016
2026/01/08 10:05:39.857,-0.034,0.042,1.015
2026/01/08 10:05:39.877,-0.033,0.036,1.014
2026/01/08 10:05:39.897,-0.029,0.04,1.015
2026/01/08 10:05:39.917,-0.033,0.04,1.016
2026/01/08 10:05:39.937,-0.03,0.038,1.018
2026/01/08 10:05:39.957,-0.032,0.041,1.014
2026/01/08 10:05:39.977,-0.033,0.038,1.017
2026/01/08 10:05:39.997,-0.032,0.039,1.016
2026/01/08 10:05:40.017,-0.033,0.041,1.016
2026/01/08 10:05:40.037,-0.034,0.037,1.014
2026/01/08 10:05:40.057,-0.032,0.04,1.016
2026/01/08 10:05:40.078,-0.032,0.037,1.017
2026/01/08 10:05:40.098,-0.026,0.039,1.016
2026/01/08 10:05:40.118,-0.03,0.04,1.014
2026/01/08 10:05:40.138,-0.033,0.045,1.013
2026/01/08 10:05:40.158,-0.032,0.041,1.016
2026/01/08 10:05:40.178,-0.034,0.039,1.016
2026/01/08 10:05:40.198,-0.032,0.04,1.014
2026/01/08 10:05:40.218,-0.033,0.036,1.014
2026/01/08 10:05:40.238,-0.033,0.041,1.013
2026/01/08 10:05:40.258,-0.033,0.039,1.017
2026/01/08 10:05:40.278,-0.035,0.041,1.016
2026/01/08 10:05:40.298,-0.03,0.04,1.015
2026/01/08 10:05:40.319,-0.035,0.038,1.016
2026/01/08 10:05:40.339,-0.031,0.04,1.014
