Timestamp,ACC X,ACC Y,ACC Z
2026/01/08 10:04:34.210,-0.026,0.027,0.993
2026/01/08 10:04:34.230,-0.026,0.027,0.992
2026/01/08 10:04:34.249,-0.03,0.026,0.994
2026/01/08 10:04:34.268,-0.028,0.025,0.992
2026/01/08 10:04:34.287,-0.028,0.027,0.991
2026/01/08 10:04:34.306,-0.03,0.025,0.99
2026/01/08 10:04:34.326,-0.029,0.023,0.988
2026/01/08 10:04:34.345,-0.03,0.028,0.992
2026/01/08 10:04:34.364,-0.029,0.029,0.992
2026/01/08 10:04:34.383,-0.03,0.026,0.991
2026/01/08 10:04:34.403,-0.028,0.026,0.991
2026/01/08 10:04:34.422,-0.028,0.025,0.991
2026/01/08 10:04:34.441,-0.028,0.025,0.992
2026/01/08 10:04:34.460,-0.024,0.029,0.995
2026/01/08 10:04:34.480,-0.026,0.025,0.99
2026/01/08 10:04:34.499,-0.023,0.028,0.995
2026/01/08 10:04:34.518,-0.029,0.026,0.991
2026/01/08 10:04:34.537,-0.026,0.027,0.991
2026/01/08 10:04:34.556,-0.024,0.023,0.994
2026/01/08 10:04:34.576,-0.028,0.028,0.993
2026/01/08 10:04:34.595,-0.027,0.023,0.992
2026/01/08 10:04:34.614,-0.029,0.022,0.993
2026/01/08 10:04:34.633,-0.027,0.024,0.994
2026/01/08 10:04:34.653,-0.028,0.027,0.993
2026/01/08 10:04:34.672,-0.026,0.025,0.993
2026/01/08 10:04:34.691,-0.03,0.024,0.996
2026/01/08 10:04:34.710,-0.033,0.026,0.992
2026/01/08 10:04:34.730,-0.03,0.027,0.993
2026/01/08 10:04:34.749,-0.026,0.026,0.993
2026/01/08 10:04:34.768,-0.031,0.023,0.994
2026/01/08 10:04:34.787,-0.029,0.026,0.99
2026/01/08 10:04:34.806,-0.025,0.026,0.992
2026/01/08 10:04:34.826,-0.024,0.024,0.989
2026/01/08 10:04:34.845,-0.028,0.024,0.993
2026/01/08 10:04:34.864,-0.026,0.029,0.991
2026/01/08 10:04:34.883,-0.027,0.025,0.993
2026/01/08 10:04:34.903,-0.026,0.022,0.991
2026/01/08 10:04:34.922,-0.027,0.024,0.992
2026/01/08 10:04:34.941,-0.028,0.028,0.989
2026/01/08 10:04:34.960,-0.03,0.026,0.991
2026/01/08 10:04:34.980,-0.027,0.025,0.991
2026/01/08 10:04:34.999,-0.026,0.026,0.994
2026/01/08 10:04:35.018,-0.027,0.025,0.994
2026/01/08 10:04:35.037,-0.029,0.028,0.992
2026/01/08 10:04:35.056,-0.028,0.026,0.993
2026/01/08 10:04:35.076,-0.028,0.025,0.992
2026/01/08 10:04:35.095,-0.027,0.028,0.995
2026/01/08 10:04:35.114,-0.028,0.024,0.99
2026/01/08 10:04:35.133,-0.027,0.025,0.994
2026/01/08 10:04:35.153,-0.03,0.028,0.993
2026/01/08 10:04:35.172,-0.03,0.023,0.995
2026/01/08 10:04:35.191,-0.03,0.026,0.993
2026/01/08 10:04:35.210,-0.028,0.026,0.991
2026/01/08 10:04:35.230,-0.028,0.025,0.992
2026/01/08 10:04:35.249,-0.026,0.026,0.994
2026/01/08 10:04:35.268,-0.026,0.028,0.991
2026/01/08 10:04:35.287,-0.028,0.024,0.991
2026/01/08 10:04:35.306,-0.026,0.026,0.989
2026/01/08 10:04:35.326,-0.029,0.026,0.992
2026/01/08 10:04:35.345,-0.026,0.022,0.99
2026/01/08 10:04:35.364,-0.023,0.021,0.99
2026/01/08 10:04:35.383,-0.028,0.026,0.992
2026/01/08 10:04:35.403,-0.028,0.026,0.992
2026/01/08 10:04:35.422,-0.028,0.027,0.991
2026/01/08 10:04:35.441,-0.031,0.022,0.993
2026/01/08 10:04:35.460,-0.026,0.027,0.991
2026/01/08 10:04:35.480,-0.028,0.026,0.994
2026/01/08 10:04:35.499,-0.028,0.023,0.991
2026/01/08 10:04:35.518,-0.025,0.026,0.992
2026/01/08 10:04:35.537,-0.025,0.021,0.989
2026/01/08 10:04:35.556,-0.03,0.03,0.994
2026/01/08 10:04:35.576,-0.027,0.026,0.991
2026/01/08 10:04:35.595,-0.027,0.026,0.992
2026/01/08 10:04:35.614,-0.027,0.024,0.996
2026/01/08 10:04:35.633,-0.024,0.023,0.99
2026/01/08 10:04:35.653,-0.026,0.028,0.992
2026/01/08 10:04:35.672,-0.029,0.029,0.993
2026/01/08 10:04:35.691,-0.031,0.024,0.991
2026/01/08 10:04:35.710,-0.029,0.023,0.991
2026/01/08 10:04:35.730,-0.029,0.025,0.993
2026/01/08 10:04:35.749,-0.027,0.027,0.991
2026/01/08 10:04:35.768,-0.027,0.025,0.993
2026/01/08 10:04:35.787,-0.026,0.027,0.993
2026/01/08 10:04:35.806,-0.027,0.025,0.994
2026/01/08 10:04:35.826,-0.026,0.024,0.99
2026/01/08 10:04:35.845,-0.027,0.024,0.991
2026/01/08 10:04:35.864,-0.026,0.025,0.994
2026/01/08 10:04:35.883,-0.026,0.024,0.993
2026/01/08 10:04:35.903,-0.029,0.028,0.992
2026/01/08 10:04:35.922,-0.027,0.032,0.992
2026/01/08 10:04:35.941,-0.027,0.027,0.994
2026/01/08 10:04:35.960,-0.024,0.022,0.99
2026/01/08 10:04:35.980,-0.028,0.025,0.993
2026/01/08 10:04:35.999,-0.028,0.026,0.994
2026/01/08 10:04:36.018,-0.029,0.025,0.991
2026/01/08 10:04:36.037,-0.03,0.022,0.992
2026/01/08 10:04:36.056,-0.021,0.028,0.99
2026/01/08 10:04:36.076,-0.03,0.024,0.989
2026/01/08 10:04:36.095,-0.028,0.024,0.993
2026/01/08 10:04:36.114,-0.028,0.029,0.993
2026/01/08 10:04:36.133,-0.029,0.025,0.993
2026/01/08 10:04:36.153,-0.03,0.025,0.993
2026/01/08 10:04:36.172,-0.03,0.025,0.993
2026/01/08 10:04:36.191,-0.027,0.028,0.992
2026/01/08 10:04:36.210,-0.029,0.025,0.992
2026/01/08 10:04:36.230,-0.031,0.024,0.992
2026/01/08 10:04:36.249,-0.028,0.023,0.992
2026/01/08 10:04:36.268,-0.027,0.021,0.993
2026/01/08 10:04:36.287,-0.031,0.023,0.993
2026/01/08 10:04:36.306,-0.028,0.025,0.992
2026/01/08 10:04:36.326,-0.027,0.024,0.993
2026/01/08 10:04:36.345,-0.029,0.028,0.992
2026/01/08 10:04:36.364,-0.029,0.028,0.991
2026/01/08 10:04:36.383,-0.03,0.024,0.99
2026/01/08 10:04:36.403,-0.027,0.024,0.993
2026/01/08 10:04:36.422,-0.028,0.024,0.993
2026/01/08 10:04:36.441,-0.03,0.021,0.99
2026/01/08 10:04:36.460,-0.025,0.024,0.991
2026/01/08 10:04:36.480,-0.028,0.025,0.99
2026/01/08 10:04:36.499,-0.031,0.025,0.992
2026/01/08 10:04:36.518,-0.029,0.024,0.992
2026/01/08 10:04:36.537,-0.028,0.025,0.993
2026/01/08 10:04:36.556,-0.026,0.027,0.991
2026/01/08 10:04:36.576,-0.029,0.022,0.991
2026/01/08 10:04:36.595,-0.029,0.027,0.992
2026/01/08 10:04:36.614,-0.03,0.024,0.993
2026/01/08 10:04:36.633,-0.027,0.028,0.993
2026/01/08 10:04:36.653,-0.025,0.025,0.992
2026/01/08 10:04:36.672,-0.028,0.023,0.995
2026/01/08 10:04:36.691,-0.028,0.028,0.993
2026/01/08 10:04:36.710,-0.027,0.027,0.99
2026/01/08 10:04:36.730,-0.029,0.027,0.991
2026/01/08 10:04:36.749,-0.028,0.025,0.99
2026/01/08 10:04:36.768,-0.026,0.028,0.993
2026/01/08 10:04:36.787,-0.026,0.027,0.994
2026/01/08 10:04:36.806,-0.028,0.022,0.993
2026/01/08 10:04:36.826,-0.028,0.029,0.992
2026/01/08 10:04:36.845,-0.028,0.024,0.989
2026/01/08 10:04:36.864,-0.026,0.022,0.991
2026/01/08 10:04:36.883,-0.028,0.024,0.989
2026/01/08 10:04:36.903,-0.026,0.029,0.993
2026/01/08 10:04:36.922,-0.027,0.023,0.994
2026/01/08 10:04:36.941,-0.028,0.026,0.991
2026/01/08 10:04:36.960,-0.029,0.025,0.992
2026/01/08 10:04:36.980,-0.028,0.026,0.991
2026/01/08 10:04:36.999,-0.028,0.026,0.993
2026/01/08 10:04:37.018,-0.031,0.028,0.991
2026/01/08 10:04:37.037,-0.031,0.027,0.996
2026/01/08 10:04:37.056,-0.026,0.026,0.993
2026/01/08 10:04:37.076,-0.026,0.027,0.994
2026/01/08 10:04:37.095,-0.027,0.025,0.991
2026/01/08 10:04:37.114,-0.027,0.025,0.992
2026/01/08 10:04:37.133,-0.027,0.021,0.99
2026/01/08 10:04:37.153,-0.025,0.025,0.989
2026/01/08 10:04:37.172,-0.029,0.024,0.992
2026/01/08 10:04:37.191,-0.03,0.02,0.993
2026/01/08 10:04:37.210,-0.031,0.026,0.994
2026/01/08 10:04:37.230,-0.029,0.024,0.994
2026/01/08 10:04:37.249,-0.027,0.021,0.992
2026/01/08 10:04:37.269,-0.027,0.027,0.99
2026/01/08 10:04:37.289,-0.031,0.027,0.99
2026/01/08 10:04:37.309,-0.029,0.024,0.993
2026/01/08 10:04:37.328,-0.026,0.026,0.992
2026/01/08 10:04:37.348,-0.029,0.026,0.994
2026/01/08 10:04:37.368,-0.027,0.024,0.995
2026/01/08 10:04:37.388,-0.025,0.027,0.992
2026/01/08 10:04:37.408,-0.026,0.024,0.994
2026/01/08 10:04:37.427,-0.028,0.021,0.992
2026/01/08 10:04:37.447,-0.031,0.027,0.991
2026/01/08 10:04:37.467,-0.027,0.026,0.992
2026/01/08 10:04:37.487,-0.028,0.022,0.993
2026/01/08 10:04:37.507,-0.028,0.025,0.994
2026/01/08 10:04:37.526,-0.029,0.026,0.992
2026/01/08 10:04:37.546,-0.028,0.023,0.992
2026/01/08 10:04:37.566,-0.029,0.025,0.994
2026/01/08 10:04:37.586,-0.026,0.026,0.99
2026/01/08 10:04:37.606,-0.029,0.026,0.991
2026/01/08 10:04:37.625,-0.026,0.026,0.992
2026/01/08 10:04:37.645,-0.029,0.024,0.987
2026/01/08 10:04:37.665,-0.027,0.024,0.991
2026/01/08 10:04:37.685,-0.026,0.019,0.994
2026/01/08 10:04:37.705,-0.029,0.026,0.993
2026/01/08 10:04:37.724,-0.028,0.027,0.993
2026/01/08 10:04:37.744,-0.029,0.024,0.99
2026/01/08 10:04:37.764,-0.028,0.03,0.991
2026/01/08 10:04:37.784,-0.029,0.025,0.994
2026/01/08 10:04:37.804,-0.026,0.026,0.992
2026/01/08 10:04:37.823,-0.028,0.022,0.993
2026/01/08 10:04:37.843,-0.029,0.027,0.994
2026/01/08 10:04:37.863,-0.026,0.02,0.99
2026/01/08 10:04:37.883,-0.03,0.024,0.992
2026/01/08 10:04:37.903,-0.03,0.025,0.995
2026/01/08 10:04:37.922,-0.024,0.022,0.997
2026/01/08 10:04:37.942,-0.029,0.027,0.994
2026/01/08 10:04:37.962,-0.029,0.027,0.991
2026/01/08 10:04:37.982,-0.032,0.023,0.991
2026/01/08 10:04:38.002,-0.026,0.024,0.99
2026/01/08 10:04:38.021,-0.027,0.024,0.991
2026/01/08 10:04:38.041,-0.031,0.025,0.994
2026/01/08 10:04:38.061,-0.031,0.029,0.992
2026/01/08 10:04:38.081,-0.026,0.025,0.991
2026/01/08 10:04:38.101,-0.033,0.023,0.99
2026/01/08 10:04:38.120,-0.028,0.029,0.995
2026/01/08 10:04:38.140,-0.028,0.022,0.993
2026/01/08 10:04:38.160,-0.027,0.024,0.994
2026/01/08 10:04:38.180,-0.03,0.026,0.99
2026/01/08 10:04:38.200,-0.028,0.026,0.99
2026/01/08 10:04:38.219,-0.027,0.025,0.991
2026/01/08 10:04:38.239,-0.027,0.024,0.992
2026/01/08 10:04:38.259,-0.028,0.028,0.99
2026/01/08 10:04:38.279,-0.033,0.028,0.989
2026/01/08 10:04:38.299,-0.032,0.027,0.991
2026/01/08 10:04:38.318,-0.028,0.027,0.994
2026/01/08 10:04:38.338,-0.028,0.024,0.995
2026/01/08 10:04:38.358,-0.023,0.026,0.99
2026/01/08 10:04:38.378,-0.028,0.026,0.988
2026/01/08 10:04:38.397,-0.029,0.026,0.991
2026/01/08 10:04:38.417,-0.028,0.025,0.99
2026/01/08 10:04:38.437,-0.027,0.023,0.99
2026/01/08 10:04:38.457,-0.03,0.023,0.99
2026/01/08 10:04:38.477,-0.024,0.023,0.992
2026/01/08 10:04:38.496,-0.031,0.027,0.991
2026/01/08 10:04:38.516,-0.028,0.029,0.994
2026/01/08 10:04:38.536,-0.025,0.023,0.993
2026/01/08 10:04:38.556,-0.025,0.024,0.99
2026/01/08 10:04:38.576,-0.029,0.022,0.991
2026/01/08 10:04:38.595,-0.027,0.027,0.992
2026/01/08 10:04:38.615,-0.029,0.029,0.99
2026/01/08 10:04:38.635,-0.028,0.022,0.993
2026/01/08 10:04:38.655,-0.033,0.025,0.994
2026/01/08 10:04:38.675,-0.016,0.033,0.993
2026/01/08 10:04:38.694,-0.039,0.016,0.991
2026/01/08 10:04:38.714,-0.021,0.028,0.994
2026/01/08 10:04:38.734,-0.031,0.019,0.995
2026/01/08 10:04:38.754,-0.03,0.027,0.987
2026/01/08 10:04:38.774,-0.024,0.025,0.993
2026/01/08 10:04:38.793,-0.023,0.03,0.989
2026/01/08 10:04:38.813,-0.03,0.029,0.995
2026/01/08 10:04:38.833,-0.032,0.029,0.989
2026/01/08 10:04:38.853,-0.029,0.022,0.993
2026/01/08 10:04:38.873,-0.027,0.025,0.987
2026/01/08 10:04:38.892,-0.024,0.025,0.986
2026/01/08 10:04:38.912,-0.029,0.028,0.996
2026/01/08 10:04:38.932,-0.033,0.027,0.989
2026/01/08 10:04:38.952,-0.031,0.029,0.995
2026/01/08 10:04:38.972,-0.027,0.024,0.987
2026/01/08 10:04:38.991,-0.035,0.024,0.997
2026/01/08 10:04:39.011,-0.023,0.026,0.994
2026/01/08 10:04:39.031,-0.033,0.029,0.989
2026/01/08 10:04:39.051,-0.029,0.027,0.99
2026/01/08 10:04:39.071,-0.027,0.025,0.988
2026/01/08 10:04:39.090,-0.025,0.025,0.994
2026/01/08 10:04:39.110,-0.031,0.022,0.99
2026/01/08 10:04:39.130,-0.029,0.027,0.993
2026/01/08 10:04:39.150,-0.03,0.021,0.992
2026/01/08 10:04:39.170,-0.026,0.023,0.993
2026/01/08 10:04:39.189,-0.026,0.022,0.992
2026/01/08 10:04:39.209,-0.027,0.025,0.99
2026/01/08 10:04:39.229,-0.029,0.026,0.988
2026/01/08 10:04:39.249,-0.029,0.025,0.99
2026/01/08 10:04:39.269,-0.025,0.024,0.992
2026/01/08 10:04:39.288,-0.029,0.023,0.995
2026/01/08 10:04:39.308,-0.027,0.023,0.991
2026/01/08 10:04:39.328,-0.032,0.024,0.993
2026/01/08 10:04:39.348,-0.025,0.027,0.993
2026/01/08 10:04:39.367,-0.027,0.024,0.993
2026/01/08 10:04:39.387,-0.028,0.023,0.988
2026/01/08 10:04:39.407,-0.028,0.024,0.993
2026/01/08 10:04:39.427,-0.03,0.024,0.991
2026/01/08 10:04:39.447,-0.029,0.028,0.991
2026/01/08 10:04:39.466,-0.029,0.023,0.993
2026/01/08 10:04:39.486,-0.027,0.025,0.994
2026/01/08 10:04:39.506,-0.03,0.025,0.992
2026/01/08 10:04:39.526,-0.027,0.027,0.992
2026/01/08 10:04:39.546,-0.026,0.029,0.993
2026/01/08 10:04:39.565,-0.029,0.026,0.993
2026/01/08 10:04:39.585,-0.029,0.028,0.993
2026/01/08 10:04:39.605,-0.03,0.026,0.99
2026/01/08 10:04:39.625,-0.025,0.023,0.989
2026/01/08 10:04:39.645,-0.028,0.024,0.991
2026/01/08 10:04:39.664,-0.029,0.024,0.993
2026/01/08 10:04:39.684,-0.027,0.021,0.991
2026/01/08 10:04:39.704,-0.027,0.023,0.992
2026/01/08 10:04:39.724,-0.029,0.023,0.993
2026/01/08 10:04:39.744,-0.028,0.025,0.993
2026/01/08 10:04:39.763,-0.028,0.025,0.99
2026/01/08 10:04:39.783,-0.029,0.026,0.994
2026/01/08 10:04:39.803,-0.028,0.021,0.994
2026/01/08 10:04:39.823,-0.028,0.027,0.992
2026/01/08 10:04:39.843,-0.03,0.024,0.989
2026/01/08 10:04:39.862,-0.027,0.027,0.991
2026/01/08 10:04:39.882,-0.029,0.025,0.989
2026/01/08 10:04:39.902,-0.029,0.024,0.992
2026/01/08 10:04:39.922,-0.026,0.024,0.992
2026/01/08 10:04:39.942,-0.025,0.024,0.993
2026/01/08 10:04:39.961,-0.028,0.025,0.993
2026/01/08 10:04:39.981,-0.032,0.027,0.993
2026/01/08 10:04:40.001,-0.026,0.024,0.991
2026/01/08 10:04:40.021,-0.028,0.027,0.991
2026/01/08 10:04:40.041,-0.03,0.027,0.992
2026/01/08 10:04:40.060,-0.024,0.028,0.992
2026/01/08 10:04:40.080,-0.029,0.023,0.988
2026/01/08 10:04:40.100,-0.028,0.026,0.992
2026/01/08 10:04:40.120,-0.029,0.023,0.992
2026/01/08 10:04:40.140,-0.027,0.026,0.993
2026/01/08 10:04:40.159,-0.029,0.023,0.993
2026/01/08 10:04:40.179,-0.028,0.021,0.99
2026/01/08 10:04:40.199,-0.026,0.024,0.988
2026/01/08 10:04:40.219,-0.027,0.022,0.989
2026/01/08 10:04:40.239,-0.028,0.029,0.991
2026/01/08 10:04:40.258,-0.026,0.025,0.99
2026/01/08 10:04:40.278,-0.029,0.027,0.994
2026/01/08 10:04:40.298,-0.028,0.027,0.992
2026/01/08 10:04:40.318,-0.029,0.025,0.988
2026/01/08 10:04:40.338,-0.03,0.027,0.992
2026/01/08 10:04:40.357,-0.027,0.023,0.991
2026/01/08 10:04:40.377,-0.027,0.024,0.991
2026/01/08 10:04:40.397,-0.03,0.024,0.995
2026/01/08 10:04:40.417,-0.027,0.027,0.989
2026/01/08 10:04:40.436,-0.028,0.026,0.992
2026/01/08 10:04:40.456,-0.029,0.024,0.991
2026/01/08 10:04:40.476,-0.027,0.027,0.993
2026/01/08 10:04:40.496,-0.029,0.025,0.99
2026/01/08 10:04:40.516,-0.026,0.023,0.994
2026/01/08 10:04:40.535,-0.027,0.024,0.993
2026/01/08 10:04:40.555,-0.03,0.022,0.99
2026/01/08 10:04:40.575,-0.029,0.023,0.988
2026/01/08 10:04:40.595,-0.024,0.025,0.991
2026/01/08 10:04:40.615,-0.025,0.027,0.987
2026/01/08 10:04:40.634,-0.028,0.026,0.991
2026/01/08 10:04:40.654,-0.027,0.025,0.992
2026/01/08 10:04:40.674,-0.027,0.028,0.993
2026/01/08 10:04:40.694,-0.024,0.023,0.989
2026/01/08 10:04:40.714,-0.029,0.028,0.989
2026/01/08 10:04:40.733,-0.026,0.028,0.994
2026/01/08 10:04:40.753,-0.029,0.025,0.993
2026/01/08 10:04:40.773,-0.028,0.022,0.992
2026/01/08 10:04:40.793,-0.025,0.023,0.992
2026/01/08 10:04:40.813,-0.026,0.026,0.99
2026/01/08 10:04:40.832,-0.029,0.023,0.99
2026/01/08 10:04:40.852,-0.03,0.022,0.994
2026/01/08 10:04:40.872,-0.027,0.023,0.99
2026/01/08 10:04:40.892,-0.027,0.027,0.989
2026/01/08 10:04:40.912,-0.031,0.023,0.989
2026/01/08 10:04:40.931,-0.022,0.024,0.992
2026/01/08 10:04:40.951,-0.03,0.024,0.991
2026/01/08 10:04:40.971,-0.03,0.026,0.993
2026/01/08 10:04:40.991,-0.028,0.025,0.991
2026/01/08 10:04:41.011,-0.029,0.023,0.991
2026/01/08 10:04:41.030,-0.031,0.022,0.991
2026/01/08 10:04:41.050,-0.026,0.025,0.991
2026/01/08 10:04:41.070,-0.023,0.024,0.99
2026/01/08 10:04:41.090,-0.025,0.024,0.995
2026/01/08 10:04:41.110,-0.027,0.028,0.989
2026/01/08 10:04:41.129,-0.03,0.025,0.993
2026/01/08 10:04:41.149,-0.029,0.023,0.991
2026/01/08 10:04:41.169,-0.027,0.024,0.995
2026/01/08 10:04:41.189,-0.031,0.024,0.993
2026/01/08 10:04:41.209,-0.03,0.024,0.99
2026/01/08 10:04:41.228,-0.026,0.026,0.993
2026/01/08 10:04:41.248,-0.026,0.025,0.995
2026/01/08 10:04:41.268,-0.029,0.023,0.991
2026/01/08 10:04:41.288,-0.027,0.024,0.992
2026/01/08 10:04:41.308,-0.028,0.023,0.989
2026/01/08 10:04:41.327,-0.028,0.026,0.989
2026/01/08 10:04:41.347,-0.03,0.023,0.991
2026/01/08 10:04:41.367,-0.027,0.02,0.989
2026/01/08 10:04:41.387,-0.027,0.025,0.993
2026/01/08 10:04:41.407,-0.026,0.024,0.99
2026/01/08 10:04:41.426,-0.029,0.026,0.989
2026/01/08 10:04:41.446,-0.027,0.024,0.991
2026/01/08 10:04:41.466,-0.03,0.023,0.991
2026/01/08 10:04:41.486,-0.028,0.027,0.99
2026/01/08 10:04:41.505,-0.025,0.025,0.991
2026/01/08 10:04:41.525,-0.029,0.024,0.991
2026/01/08 10:04:41.545,-0.027,0.021,0.992
2026/01/08 10:04:41.565,-0.027,0.025,0.992
2026/01/08 10:04:41.585,-0.029,0.022,0.989
2026/01/08 10:04:41.604,-0.031,0.022,0.994
2026/01/08 10:04:41.624,-0.029,0.024,0.991
2026/01/08 10:04:41.644,-0.027,0.025,0.99
2026/01/08 10:04:41.664,-0.029,0.028,0.992
2026/01/08 10:04:41.684,-0.027,0.025,0.991
2026/01/08 10:04:41.703,-0.024,0.022,0.987
2026/01/08 10:04:41.723,-0.026,0.023,0.993
2026/01/08 10:04:41.743,-0.026,0.023,0.988
2026/01/08 10:04:41.763,-0.026,0.022,0.992
2026/01/08 10:04:41.783,-0.032,0.025,0.992
2026/01/08 10:04:41.802,-0.023,0.024,0.994
2026/01/08 10:04:41.822,-0.028,0.028,0.989
2026/01/08 10:04:41.842,-0.027,0.028,0.995
2026/01/08 10:04:41.862,-0.029,0.022,0.992
2026/01/08 10:04:41.882,-0.028,0.023,0.993
2026/01/08 10:04:41.901,-0.026,0.022,0.99
2026/01/08 10:04:41.921,-0.031,0.027,0.99
2026/01/08 10:04:41.941,-0.029,0.025,0.993
2026/01/08 10:04:41.961,-0.028,0.022,0.993
2026/01/08 10:04:41.981,-0.028,0.027,0.993
2026/01/08 10:04:42.000,-0.028,0.023,0.991
2026/01/08 10:04:42.020,-0.025,0.024,0.99
2026/01/08 10:04:42.040,-0.026,0.026,0.992
2026/01/08 10:04:42.060,-0.03,0.025,0.993
2026/01/08 10:04:42.080,-0.027,0.023,0.991
2026/01/08 10:04:42.099,-0.027,0.025,0.993
2026/01/08 10:04:42.119,-0.028,0.025,0.991
2026/01/08 10:04:42.139,-0.031,0.028,0.991
2026/01/08 10:04:42.159,-0.031,0.025,0.994
2026/01/08 10:04:42.179,-0.024,0.026,0.993
2026/01/08 10:04:42.198,-0.025,0.025,0.993
2026/01/08 10:04:42.218,-0.03,0.026,0.992
2026/01/08 10:04:42.238,-0.024,0.028,0.991
2026/01/08 10:04:42.258,-0.028,0.024,0.989
2026/01/08 10:04:42.278,-0.028,0.023,0.997
2026/01/08 10:04:42.297,-0.027,0.027,0.994
2026/01/08 10:04:42.317,-0.031,0.024,0.992
2026/01/08 10:04:42.337,-0.027,0.022,0.991
2026/01/08 10:04:42.357,-0.029,0.024,0.991
2026/01/08 10:04:42.377,-0.029,0.027,0.992
2026/01/08 10:04:42.396,-0.024,0.024,0.994
2026/01/08 10:04:42.416,-0.024,0.023,0.99
2026/01/08 10:04:42.436,-0.027,0.027,0.99
2026/01/08 10:04:42.456,-0.028,0.024,0.991
2026/01/08 10:04:42.476,-0.028,0.024,0.994
2026/01/08 10:04:42.495,-0.028,0.023,0.99
2026/01/08 10:04:42.515,-0.028,0.023,0.989
2026/01/08 10:04:42.535,-0.026,0.023,0.993
2026/01/08 10:04:42.555,-0.029,0.025,0.993
2026/01/08 10:04:42.574,-0.03,0.025,0.992
2026/01/08 10:04:42.594,-0.03,0.025,0.993
2026/01/08 10:04:42.614,-0.03,0.029,0.989
2026/01/08 10:04:42.634,-0.03,0.027,0.993
2026/01/08 10:04:42.654,-0.032,0.029,0.991
2026/01/08 10:04:42.673,-0.03,0.022,0.99
2026/01/08 10:04:42.693,-0.029,0.021,0.992
2026/01/08 10:04:42.713,-0.028,0.024,0.989
2026/01/08 10:04:42.733,-0.029,0.025,0.993
2026/01/08 10:04:42.753,-0.033,0.022,0.99
2026/01/08 10:04:42.772,-0.026,0.025,0.993
2026/01/08 10:04:42.792,-0.03,0.023,0.992
2026/01/08 10:04:42.812,-0.029,0.024,0.99
2026/01/08 10:04:42.832,-0.029,0.025,0.991
2026/01/08 10:04:42.852,-0.027,0.026,0.99
2026/01/08 10:04:42.871,-0.03,0.025,0.993
2026/01/08 10:04:42.891,-0.027,0.024,0.991
2026/01/08 10:04:42.911,-0.024,0.027,0.994
2026/01/08 10:04:42.931,-0.028,0.026,0.991
2026/01/08 10:04:42.951,-0.028,0.027,0.99
2026/01/08 10:04:42.970,-0.03,0.027,0.991
2026/01/08 10:04:42.990,-0.025,0.029,0.99
2026/01/08 10:04:43.010,-0.026,0.026,0.991
2026/01/08 10:04:43.030,-0.031,0.026,0.993
2026/01/08 10:04:43.050,-0.028,0.027,0.993
2026/01/08 10:04:43.069,-0.027,0.024,0.993
2026/01/08 10:04:43.089,-0.031,0.026,0.995
2026/01/08 10:04:43.109,-0.029,0.023,0.991
2026/01/08 10:04:43.129,-0.024,0.022,0.994
2026/01/08 10:04:43.149,-0.029,0.021,0.992
2026/01/08 10:04:43.168,-0.025,0.025,0.992
2026/01/08 10:04:43.188,-0.027,0.028,0.991
2026/01/08 10:04:43.208,-0.028,0.025,0.99
2026/01/08 10:04:43.228,-0.024,0.024,0.992
2026/01/08 10:04:43.248,-0.028,0.024,0.994
2026/01/08 10:04:43.267,-0.029,0.026,0.993
2026/01/08 10:04:43.287,-0.026,0.026,0.99
2026/01/08 10:04:43.307,-0.031,0.028,0.991
2026/01/08 10:04:43.327,-0.027,0.025,0.99
2026/01/08 10:04:43.347,-0.03,0.024,0.993
2026/01/08 10:04:43.366,-0.028,0.018,0.994
2026/01/08 10:04:43.386,-0.029,0.026,0.99
2026/01/08 10:04:43.406,-0.028,0.027,0.992
2026/01/08 10:04:43.426,-0.024,0.02,0.989
2026/01/08 10:04:43.446,-0.029,0.022,0.991
2026/01/08 10:04:43.465,-0.027,0.025,0.989
2026/01/08 10:04:43.485,-0.024,0.024,0.989
2026/01/08 10:04:43.505,-0.029,0.024,0.99
2026/01/08 10:04:43.525,-0.032,0.025,0.991
2026/01/08 10:04:43.545,-0.031,0.025,0.992
2026/01/08 10:04:43.564,-0.024,0.02,0.989
2026/01/08 10:04:43.584,-0.03,0.022,0.996
2026/01/08 10:04:43.604,-0.028,0.027,0.99
2026/01/08 10:04:43.624,-0.027,0.025,0.988
2026/01/08 10:04:43.643,-0.028,0.026,0.996
2026/01/08 10:04:43.663,-0.026,0.023,0.993
2026/01/08 10:04:43.683,-0.029,0.027,0.993
2026/01/08 10:04:43.703,-0.031,0.031,0.989
2026/01/08 10:04:43.723,-0.029,0.026,0.992
2026/01/08 10:04:43.742,-0.029,0.025,0.989
2026/01/08 10:04:43.762,-0.027,0.026,0.99
2026/01/08 10:04:43.782,-0.029,0.025,0.993
2026/01/08 10:04:43.802,-0.028,0.023,0.994
2026/01/08 10:04:43.822,-0.028,0.024,0.99
2026/01/08 10:04:43.841,-0.028,0.025,0.993
2026/01/08 10:04:43.861,-0.028,0.026,0.994
2026/01/08 10:04:43.881,-0.029,0.027,0.991
2026/01/08 10:04:43.901,-0.026,0.024,0.989
2026/01/08 10:04:43.921,-0.027,0.024,0.995
2026/01/08 10:04:43.940,-0.029,0.027,0.992
2026/01/08 10:04:43.960,-0.027,0.027,0.991
2026/01/08 10:04:43.980,-0.029,0.025,0.994
2026/01/08 10:04:44.000,-0.027,0.025,0.991
2026/01/08 10:04:44.020,-0.029,0.023,0.991
2026/01/08 10:04:44.039,-0.026,0.021,0.989
2026/01/08 10:04:44.059,-0.029,0.021,0.988
2026/01/08 10:04:44.079,-0.028,0.025,0.993
2026/01/08 10:04:44.099,-0.029,0.025,0.992
2026/01/08 10:04:44.119,-0.027,0.022,0.992
2026/01/08 10:04:44.138,-0.024,0.027,0.99
2026/01/08 10:04:44.158,-0.032,0.026,0.993
2026/01/08 10:04:44.178,-0.026,0.026,0.992
2026/01/08 10:04:44.198,-0.024,0.026,0.99
2026/01/08 10:04:44.218,-0.025,0.032,0.99
2026/01/08 10:04:44.237,-0.028,0.022,0.989
2026/01/08 10:04:44.257,-0.032,0.023,0.992
2026/01/08 10:04:44.277,-0.028,0.024,0.993
2026/01/08 10:04:44.297,-0.024,0.026,0.992
2026/01/08 10:04:44.317,-0.026,0.023,0.994
2026/01/08 10:04:44.336,-0.03,0.023,0.993
2026/01/08 10:04:44.356,-0.028,0.022,0.991
2026/01/08 10:04:44.376,-0.029,0.023,0.993
2026/01/08 10:04:44.396,-0.029,0.024,0.992
2026/01/08 10:04:44.416,-0.026,0.025,0.992
2026/01/08 10:04:44.435,-0.028,0.025,0.991
2026/01/08 10:04:44.455,-0.021,0.026,0.992
2026/01/08 10:04:44.475,-0.03,0.025,0.992
2026/01/08 10:04:44.495,-0.027,0.026,0.989
2026/01/08 10:04:44.515,-0.026,0.03,0.994
2026/01/08 10:04:44.534,-0.033,0.027,0.991
2026/01/08 10:04:44.554,-0.027,0.027,0.991
2026/01/08 10:04:44.574,-0.03,0.026,0.992
2026/01/08 10:04:44.594,-0.03,0.027,0.991
2026/01/08 10:04:44.614,-0.028,0.025,0.989
2026/01/08 10:04:44.633,-0.03,0.024,0.992
2026/01/08 10:04:44.653,-0.026,0.024,0.993
2026/01/08 10:04:44.673,-0.028,0.025,0.991
2026/01/08 10:04:44.693,-0.027,0.021,0.992
2026/01/08 10:04:44.712,-0.027,0.024,0.99
2026/01/08 10:04:44.732,-0.027,0.022,0.993
2026/01/08 10:04:44.752,-0.025,0.023,0.993
2026/01/08 10:04:44.772,-0.028,0.025,0.989
2026/01/08 10:04:44.792,-0.023,0.025,0.991
2026/01/08 10:04:44.811,-0.026,0.024,0.989
2026/01/08 10:04:44.831,-0.026,0.03,0.987
2026/01/08 10:04:44.851,-0.026,0.022,0.994
2026/01/08 10:04:44.871,-0.027,0.029,0.996
2026/01/08 10:04:44.891,-0.027,0.026,0.992
2026/01/08 10:04:44.910,-0.03,0.024,0.994
2026/01/08 10:04:44.930,-0.026,0.028,0.989
2026/01/08 10:04:44.950,-0.03,0.024,0.993
2026/01/08 10:04:44.970,-0.03,0.025,0.991
2026/01/08 10:04:44.990,-0.028,0.028,0.99
2026/01/08 10:04:45.009,-0.028,0.022,0.993
2026/01/08 10:04:45.029,-0.026,0.022,0.992
2026/01/08 10:04:45.049,-0.028,0.024,0.988
2026/01/08 10:04:45.069,-0.028,0.026,0.991
2026/01/08 10:04:45.089,-0.028,0.02,0.992
2026/01/08 10:04:45.108,-0.03,0.028,0.992
2026/01/08 10:04:45.128,-0.029,0.024,0.993
2026/01/08 10:04:45.148,-0.027,0.027,0.993
2026/01/08 10:04:45.168,-0.031,0.023,0.99
2026/01/08 10:04:45.188,-0.029,0.029,0.988
2026/01/08 10:04:45.207,-0.03,0.022,0.991
2026/01/08 10:04:45.227,-0.029,0.024,0.995
2026/01/08 10:04:45.247,-0.027,0.024,0.995
2026/01/08 10:04:45.267,-0.029,0.022,0.992
2026/01/08 10:04:45.287,-0.03,0.026,0.992
2026/01/08 10:04:45.306,-0.026,0.024,0.99
2026/01/08 10:04:45.326,-0.025,0.027,0.992
2026/01/08 10:04:45.346,-0.028,0.022,0.991
2026/01/08 10:04:45.366,-0.026,0.027,0.993
2026/01/08 10:04:45.386,-0.027,0.024,0.992
2026/01/08 10:04:45.405,-0.029,0.029,0.992
2026/01/08 10:04:45.425,-0.026,0.027,0.993
2026/01/08 10:04:45.445,-0.028,0.028,0.991
2026/01/08 10:04:45.465,-0.026,0.023,0.992
2026/01/08 10:04:45.485,-0.029,0.023,0.995
2026/01/08 10:04:45.504,-0.024,0.025,0.989
2026/01/08 10:04:45.524,-0.028,0.027,0.993
2026/01/08 10:04:45.544,-0.028,0.023,0.996
2026/01/08 10:04:45.564,-0.026,0.028,0.991
2026/01/08 10:04:45.584,-0.03,0.026,0.99
2026/01/08 10:04:45.603,-0.03,0.026,0.995
2026/01/08 10:04:45.623,-0.029,0.023,0.992
2026/01/08 10:04:45.643,-0.025,0.022,0.991
2026/01/08 10:04:45.663,-0.03,0.026,0.99
2026/01/08 10:04:45.683,-0.027,0.023,0.988
2026/01/08 10:04:45.702,-0.028,0.022,0.991
2026/01/08 10:04:45.722,-0.028,0.024,0.993
2026/01/08 10:04:45.742,-0.03,0.03,0.992
2026/01/08 10:04:45.762,-0.027,0.023,0.992
2026/01/08 10:04:45.781,-0.027,0.027,0.991
2026/01/08 10:04:45.801,-0.026,0.027,0.996
2026/01/08 10:04:45.821,-0.03,0.023,0.99
2026/01/08 10:04:45.841,-0.028,0.024,0.99
2026/01/08 10:04:45.861,-0.031,0.024,0.992
2026/01/08 10:04:45.880,-0.024,0.025,0.99
2026/01/08 10:04:45.900,-0.026,0.024,0.99
2026/01/08 10:04:45.920,-0.029,0.025,0.991
2026/01/08 10:04:45.940,-0.029,0.023,0.993
2026/01/08 10:04:45.960,-0.033,0.025,0.989
2026/01/08 10:04:45.979,-0.028,0.026,0.989
2026/01/08 10:04:45.999,-0.029,0.024,0.991
2026/01/08 10:04:46.019,-0.026,0.026,0.99
2026/01/08 10:04:46.039,-0.024,0.023,0.997
2026/01/08 10:04:46.059,-0.029,0.026,0.995
2026/01/08 10:04:46.078,-0.028,0.024,0.986
2026/01/08 10:04:46.098,-0.028,0.025,0.992
2026/01/08 10:04:46.118,-0.026,0.024,0.991
2026/01/08 10:04:46.138,-0.027,0.023,0.992
2026/01/08 10:04:46.158,-0.027,0.025,0.99
2026/01/08 10:04:46.177,-0.028,0.024,0.989
2026/01/08 10:04:46.197,-0.028,0.024,0.991
2026/01/08 10:04:46.217,-0.028,0.026,0.993
2026/01/08 10:04:46.237,-0.027,0.027,0.992
2026/01/08 10:04:46.257,-0.029,0.027,0.989
2026/01/08 10:04:46.276,-0.027,0.024,0.994
2026/01/08 10:04:46.296,-0.028,0.022,0.993
2026/01/08 10:04:46.316,-0.027,0.022,0.996
2026/01/08 10:04:46.336,-0.026,0.026,0.989
2026/01/08 10:04:46.356,-0.028,0.026,0.993
2026/01/08 10:04:46.375,-0.03,0.026,0.99
2026/01/08 10:04:46.395,-0.028,0.027,0.991
2026/01/08 10:04:46.415,-0.029,0.027,0.993
2026/01/08 10:04:46.435,-0.029,0.025,0.989
2026/01/08 10:04:46.455,-0.032,0.023,0.993
2026/01/08 10:04:46.474,-0.027,0.027,0.99
2026/01/08 10:04:46.494,-0.028,0.024,0.992
2026/01/08 10:04:46.514,-0.028,0.027,0.988
2026/01/08 10:04:46.534,-0.027,0.024,0.99
2026/01/08 10:04:46.554,-0.027,0.026,0.989
2026/01/08 10:04:46.573,-0.029,0.026,0.992
2026/01/08 10:04:46.593,-0.025,0.023,0.988
2026/01/08 10:04:46.613,-0.026,0.025,0.992
2026/01/08 10:04:46.633,-0.027,0.022,0.992
2026/01/08 10:04:46.652,-0.026,0.024,0.992
2026/01/08 10:04:46.672,-0.029,0.025,0.993
2026/01/08 10:04:46.692,-0.026,0.025,0.991
2026/01/08 10:04:46.712,-0.026,0.025,0.991
2026/01/08 10:04:46.732,-0.027,0.025,0.993
2026/01/08 10:04:46.751,-0.027,0.026,0.989
2026/01/08 10:04:46.771,-0.027,0.026,0.992
2026/01/08 10:04:46.791,-0.028,0.026,0.994
2026/01/08 10:04:46.811,-0.029,0.025,0.99
2026/01/08 10:04:46.831,-0.029,0.027,0.994
2026/01/08 10:04:46.850,-0.028,0.024,0.99
2026/01/08 10:04:46.870,-0.025,0.026,0.992
2026/01/08 10:04:46.890,-0.025,0.024,0.989
2026/01/08 10:04:46.910,-0.027,0.023,0.989
2026/01/08 10:04:46.930,-0.03,0.027,0.99
2026/01/08 10:04:46.949,-0.029,0.025,0.994
2026/01/08 10:04:46.969,-0.029,0.028,0.992
2026/01/08 10:04:46.989,-0.028,0.027,0.992
2026/01/08 10:04:47.009,-0.024,0.026,0.99
2026/01/08 10:04:47.029,-0.032,0.025,0.994
2026/01/08 10:04:47.048,-0.03,0.03,0.993
2026/01/08 10:04:47.068,-0.029,0.025,0.99
2026/01/08 10:04:47.088,-0.029,0.024,0.991
2026/01/08 10:04:47.108,-0.024,0.025,0.992
2026/01/08 10:04:47.128,-0.027,0.027,0.995
2026/01/08 10:04:47.147,-0.027,0.023,0.994
2026/01/08 10:04:47.167,-0.028,0.025,0.993
2026/01/08 10:04:47.187,-0.031,0.023,0.992
2026/01/08 10:04:47.207,-0.027,0.024,0.987
2026/01/08 10:04:47.227,-0.026,0.027,0.992
2026/01/08 10:04:47.246,-0.025,0.026,0.993
2026/01/08 10:04:47.266,-0.027,0.028,0.992
2026/01/08 10:04:47.286,-0.027,0.025,0.988
2026/01/08 10:04:47.306,-0.026,0.024,0.992
2026/01/08 10:04:47.326,-0.028,0.027,0.992
2026/01/08 10:04:47.345,-0.03,0.025,0.991
2026/01/08 10:04:47.365,-0.03,0.022,0.993
2026/01/08 10:04:47.385,-0.028,0.022,0.992
2026/01/08 10:04:47.405,-0.026,0.03,0.991
2026/01/08 10:04:47.424,-0.026,0.023,0.991
2026/01/08 10:04:47.444,-0.027,0.025,0.995
2026/01/08 10:04:47.464,-0.032,0.025,0.992
2026/01/08 10:04:47.484,-0.028,0.023,0.991
2026/01/08 10:04:47.504,-0.029,0.023,0.991
2026/01/08 10:04:47.523,-0.029,0.023,0.99
2026/01/08 10:04:47.543,-0.026,0.025,0.99
2026/01/08 10:04:47.563,-0.025,0.026,0.989
2026/01/08 10:04:47.583,-0.026,0.03,0.99
2026/01/08 10:04:47.603,-0.029,0.024,0.992
2026/01/08 10:04:47.622,-0.03,0.027,0.991
2026/01/08 10:04:47.642,-0.028,0.023,0.992
2026/01/08 10:04:47.662,-0.027,0.023,0.994
2026/01/08 10:04:47.682,-0.024,0.022,0.994
2026/01/08 10:04:47.702,-0.028,0.026,0.991
2026/01/08 10:04:47.721,-0.024,0.024,0.989
2026/01/08 10:04:47.741,-0.028,0.025,0.993
2026/01/08 10:04:47.761,-0.027,0.024,0.993
2026/01/08 10:04:47.781,-0.026,0.025,0.991
2026/01/08 10:04:47.801,-0.026,0.021,0.992
2026/01/08 10:04:47.820,-0.027,0.023,0.99
2026/01/08 10:04:47.840,-0.03,0.023,0.992
2026/01/08 10:04:47.860,-0.024,0.025,0.995
2026/01/08 10:04:47.880,-0.025,0.023,0.987
2026/01/08 10:04:47.900,-0.033,0.025,0.993
2026/01/08 10:04:47.919,-0.025,0.026,0.99
2026/01/08 10:04:47.939,-0.028,0.029,0.994
2026/01/08 10:04:47.959,-0.028,0.023,0.988
2026/01/08 10:04:47.979,-0.027,0.026,0.991
2026/01/08 10:04:47.999,-0.027,0.026,0.99
2026/01/08 10:04:48.018,-0.029,0.025,0.995
2026/01/08 10:04:48.038,-0.028,0.026,0.994
2026/01/08 10:04:48.058,-0.028,0.023,0.992
2026/01/08 10:04:48.078,-0.028,0.027,0.992
2026/01/08 10:04:48.098,-0.025,0.024,0.99
2026/01/08 10:04:48.117,-0.029,0.026,0.991
2026/01/08 10:04:48.137,-0.028,0.022,0.995
2026/01/08 10:04:48.157,-0.028,0.024,0.993
2026/01/08 10:04:48.177,-0.029,0.024,0.99
2026/01/08 10:04:48.197,-0.031,0.026,0.993
2026/01/08 10:04:48.216,-0.029,0.025,0.993
2026/01/08 10:04:48.236,-0.029,0.024,0.992
2026/01/08 10:04:48.256,-0.031,0.026,0.992
2026/01/08 10:04:48.276,-0.032,0.022,0.99
2026/01/08 10:04:48.295,-0.028,0.027,0.99
2026/01/08 10:04:48.315,-0.026,0.027,0.989
2026/01/08 10:04:48.335,-0.028,0.023,0.991
2026/01/08 10:04:48.355,-0.028,0.029,0.989
2026/01/08 10:04:48.375,-0.028,0.025,0.988
2026/01/08 10:04:48.394,-0.027,0.026,0.988
2026/01/08 10:04:48.414,-0.031,0.026,0.993
2026/01/08 10:04:48.434,-0.026,0.025,0.99
2026/01/08 10:04:48.454,-0.031,0.023,0.99
2026/01/08 10:04:48.474,-0.03,0.027,0.989
2026/01/08 10:04:48.493,-0.029,0.023,0.993
2026/01/08 10:04:48.513,-0.028,0.03,0.992
2026/01/08 10:04:48.533,-0.026,0.026,0.991
2026/01/08 10:04:48.553,-0.026,0.022,0.991
2026/01/08 10:04:48.573,-0.027,0.028,0.99
2026/01/08 10:04:48.592,-0.027,0.027,0.991
2026/01/08 10:04:48.612,-0.028,0.023,0.99
2026/01/08 10:04:48.632,-0.027,0.025,0.992
2026/01/08 10:04:48.652,-0.027,0.027,0.993
2026/01/08 10:04:48.672,-0.033,0.027,0.993
2026/01/08 10:04:48.691,-0.027,0.028,0.993
2026/01/08 10:04:48.711,-0.029,0.025,0.991
2026/01/08 10:04:48.731,-0.029,0.021,0.991
2026/01/08 10:04:48.751,-0.028,0.024,0.996
2026/01/08 10:04:48.771,-0.029,0.025,0.988
2026/01/08 10:04:48.790,-0.023,0.026,0.994
2026/01/08 10:04:48.810,-0.028,0.027,0.989
2026/01/08 10:04:48.830,-0.027,0.023,0.993
2026/01/08 10:04:48.850,-0.028,0.022,0.989
2026/01/08 10:04:48.870,-0.027,0.024,0.992
2026/01/08 10:04:48.889,-0.031,0.023,0.991
2026/01/08 10:04:48.909,-0.027,0.024,0.992
2026/01/08 10:04:48.929,-0.025,0.025,0.992
2026/01/08 10:04:48.949,-0.029,0.024,0.989
2026/01/08 10:04:48.969,-0.026,0.023,0.991
2026/01/08 10:04:48.988,-0.027,0.022,0.99
2026/01/08 10:04:49.008,-0.025,0.024,0.992
2026/01/08 10:04:49.028,-0.028,0.027,0.988
2026/01/08 10:04:49.048,-0.03,0.026,0.99
2026/01/08 10:04:49.068,-0.027,0.025,0.992
2026/01/08 10:04:49.087,-0.025,0.024,0.992
2026/01/08 10:04:49.107,-0.028,0.025,0.989
2026/01/08 10:04:49.127,-0.026,0.023,0.989
2026/01/08 10:04:49.147,-0.025,0.023,0.993
2026/01/08 10:04:49.167,-0.027,0.025,0.992
2026/01/08 10:04:49.186,-0.029,0.026,0.991
2026/01/08 10:04:49.206,-0.027,0.028,0.989
2026/01/08 10:04:49.226,-0.027,0.026,0.993
2026/01/08 10:04:49.246,-0.028,0.022,0.989
2026/01/08 10:04:49.265,-0.029,0.023,0.99
2026/01/08 10:04:49.285,-0.03,0.026,0.99
2026/01/08 10:04:49.305,-0.028,0.022,0.992
2026/01/08 10:04:49.325,-0.028,0.026,0.993
2026/01/08 10:04:49.345,-0.029,0.023,0.989
2026/01/08 10:04:49.364,-0.028,0.024,0.995
2026/01/08 10:04:49.384,-0.028,0.024,0.991
2026/01/08 10:04:49.404,-0.027,0.027,0.986
2026/01/08 10:04:49.424,-0.029,0.023,0.991
2026/01/08 10:04:49.444,-0.028,0.024,0.991
2026/01/08 10:04:49.463,-0.027,0.026,0.992
2026/01/08 10:04:49.483,-0.028,0.029,0.993
2026/01/08 10:04:49.503,-0.027,0.024,0.99
2026/01/08 10:04:49.523,-0.025,0.028,0.99
2026/01/08 10:04:49.543,-0.028,0.026,0.992
2026/01/08 10:04:49.562,-0.031,0.024,0.99
2026/01/08 10:04:49.582,-0.027,0.024,0.99
2026/01/08 10:04:49.602,-0.03,0.022,0.993
2026/01/08 10:04:49.622,-0.027,0.024,0.994
2026/01/08 10:04:49.642,-0.028,0.023,0.991
2026/01/08 10:04:49.661,-0.029,0.025,0.993
2026/01/08 10:04:49.681,-0.029,0.024,0.988
2026/01/08 10:04:49.701,-0.028,0.026,0.99
2026/01/08 10:04:49.721,-0.026,0.03,0.99
2026/01/08 10:04:49.741,-0.026,0.028,0.991
2026/01/08 10:04:49.760,-0.024,0.025,0.991
2026/01/08 10:04:49.780,-0.027,0.024,0.993
2026/01/08 10:04:49.800,-0.029,0.025,0.989
2026/01/08 10:04:49.820,-0.027,0.026,0.99
2026/01/08 10:04:49.840,-0.028,0.024,0.993
2026/01/08 10:04:49.859,-0.024,0.026,0.99
2026/01/08 10:04:49.879,-0.026,0.026,0.989
2026/01/08 10:04:49.899,-0.029,0.024,0.989
2026/01/08 10:04:49.919,-0.028,0.025,0.993
2026/01/08 10:04:49.939,-0.027,0.028,0.99
2026/01/08 10:04:49.958,-0.027,0.025,0.99
2026/01/08 10:04:49.978,-0.032,0.027,0.99
2026/01/08 10:04:49.998,-0.03,0.026,0.99
2026/01/08 10:04:50.018,-0.025,0.022,0.987
2026/01/08 10:04:50.038,-0.028,0.022,0.989
2026/01/08 10:04:50.057,-0.026,0.026,0.993
2026/01/08 10:04:50.077,-0.026,0.024,0.991
2026/01/08 10:04:50.097,-0.028,0.027,0.994
2026/01/08 10:04:50.117,-0.033,0.027,0.99
2026/01/08 10:04:50.137,-0.029,0.026,0.993
2026/01/08 10:04:50.156,-0.024,0.025,0.993
2026/01/08 10:04:50.176,-0.031,0.025,0.99
2026/01/08 10:04:50.196,-0.028,0.021,0.992
2026/01/08 10:04:50.216,-0.026,0.025,0.99
2026/01/08 10:04:50.235,-0.032,0.024,0.99
2026/01/08 10:04:50.255,-0.026,0.025,0.992
2026/01/08 10:04:50.275,-0.031,0.028,0.991
2026/01/08 10:04:50.295,-0.028,0.028,0.99
2026/01/08 10:04:50.315,-0.028,0.021,0.991
2026/01/08 10:04:50.334,-0.028,0.028,0.996
2026/01/08 10:04:50.354,-0.028,0.023,0.992
2026/01/08 10:04:50.374,-0.029,0.024,0.993
2026/01/08 10:04:50.394,-0.028,0.026,0.99
2026/01/08 10:04:50.414,-0.027,0.026,0.989
2026/01/08 10:04:50.433,-0.031,0.024,0.989
2026/01/08 10:04:50.453,-0.026,0.023,0.99
2026/01/08 10:04:50.473,-0.028,0.025,0.989
2026/01/08 10:04:50.493,-0.028,0.022,0.99
2026/01/08 10:04:50.513,-0.027,0.025,0.99
2026/01/08 10:04:50.532,-0.031,0.024,0.989
2026/01/08 10:04:50.552,-0.025,0.026,0.99
2026/01/08 10:04:50.572,-0.027,0.024,0.99
2026/01/08 10:04:50.592,-0.026,0.029,0.993
2026/01/08 10:04:50.612,-0.024,0.024,0.99
2026/01/08 10:04:50.631,-0.03,0.027,0.993
2026/01/08 10:04:50.651,-0.029,0.026,0.991
2026/01/08 10:04:50.671,-0.029,0.022,0.99
2026/01/08 10:04:50.691,-0.025,0.026,0.993
2026/01/08 10:04:50.711,-0.028,0.024,0.992
2026/01/08 10:04:50.730,-0.024,0.029,0.989
2026/01/08 10:04:50.750,-0.027,0.024,0.994
2026/01/08 10:04:50.770,-0.03,0.025,0.991
2026/01/08 10:04:50.790,-0.028,0.027,0.992
2026/01/08 10:04:50.810,-0.03,0.027,0.987
2026/01/08 10:04:50.829,-0.027,0.028,0.993
2026/01/08 10:04:50.849,-0.025,0.026,0.993
2026/01/08 10:04:50.869,-0.027,0.03,0.991
2026/01/08 10:04:50.889,-0.028,0.026,0.993
2026/01/08 10:04:50.909,-0.03,0.023,0.993
2026/01/08 10:04:50.928,-0.028,0.028,0.997
2026/01/08 10:04:50.948,-0.028,0.022,0.992
2026/01/08 10:04:50.968,-0.028,0.023,0.991
2026/01/08 10:04:50.988,-0.028,0.025,0.992
2026/01/08 10:04:51.008,-0.027,0.025,0.994
2026/01/08 10:04:51.027,-0.027,0.021,0.992
2026/01/08 10:04:51.047,-0.026,0.024,0.993
2026/01/08 10:04:51.067,-0.024,0.025,0.99
2026/01/08 10:04:51.087,-0.027,0.026,0.992
2026/01/08 10:04:51.106,-0.028,0.022,0.993
2026/01/08 10:04:51.126,-0.027,0.026,0.992
2026/01/08 10:04:51.146,-0.028,0.025,0.99
2026/01/08 10:04:51.166,-0.028,0.028,0.991
2026/01/08 10:04:51.186,-0.028,0.022,0.99
2026/01/08 10:04:51.205,-0.029,0.023,0.99
2026/01/08 10:04:51.225,-0.026,0.027,0.988
2026/01/08 10:04:51.245,-0.027,0.026,0.994
2026/01/08 10:04:51.265,-0.03,0.029,0.99
2026/01/08 10:04:51.285,-0.032,0.025,0.991
2026/01/08 10:04:51.304,-0.029,0.027,0.988
2026/01/08 10:04:51.324,-0.029,0.027,0.987
2026/01/08 10:04:51.344,-0.029,0.025,0.992
2026/01/08 10:04:51.364,-0.028,0.025,0.991
2026/01/08 10:04:51.384,-0.029,0.025,0.992
2026/01/08 10:04:51.403,-0.026,0.024,0.992
2026/01/08 10:04:51.423,-0.028,0.023,0.99
2026/01/08 10:04:51.443,-0.028,0.025,0.994
2026/01/08 10:04:51.463,-0.027,0.025,0.991
2026/01/08 10:04:51.483,-0.027,0.026,0.99
2026/01/08 10:04:51.502,-0.028,0.025,0.991
2026/01/08 10:04:51.522,-0.028,0.024,0.993
2026/01/08 10:04:51.542,-0.03,0.025,0.99
2026/01/08 10:04:51.562,-0.031,0.027,0.989
2026/01/08 10:04:51.582,-0.029,0.026,0.991
2026/01/08 10:04:51.601,-0.03,0.027,0.992
2026/01/08 10:04:51.621,-0.028,0.024,0.991
2026/01/08 10:04:51.641,-0.026,0.027,0.99
2026/01/08 10:04:51.661,-0.027,0.027,0.99
2026/01/08 10:04:51.681,-0.027,0.027,0.99
2026/01/08 10:04:51.700,-0.027,0.028,0.99
2026/01/08 10:04:51.720,-0.031,0.022,0.99
2026/01/08 10:04:51.740,-0.028,0.026,0.995
2026/01/08 10:04:51.760,-0.03,0.023,0.991
2026/01/08 10:04:51.780,-0.029,0.03,0.991
2026/01/08 10:04:51.799,-0.027,0.028,0.988
2026/01/08 10:04:51.819,-0.025,0.026,0.992
2026/01/08 10:04:51.839,-0.029,0.029,0.991
2026/01/08 10:04:51.859,-0.028,0.023,0.992
2026/01/08 10:04:51.879,-0.026,0.03,0.991
2026/01/08 10:04:51.898,-0.028,0.026,0.99
2026/01/08 10:04:51.918,-0.028,0.023,0.992
2026/01/08 10:04:51.938,-0.023,0.023,0.989
2026/01/08 10:04:51.958,-0.026,0.024,0.992
2026/01/08 10:04:51.977,-0.025,0.023,0.992
2026/01/08 10:04:51.997,-0.031,0.028,0.993
2026/01/08 10:04:52.017,-0.029,0.025,0.991
2026/01/08 10:04:52.037,-0.032,0.025,0.99
2026/01/08 10:04:52.057,-0.028,0.026,0.99
2026/01/08 10:04:52.076,-0.024,0.023,0.992
2026/01/08 10:04:52.096,-0.03,0.025,0.99
2026/01/08 10:04:52.116,-0.028,0.026,0.991
2026/01/08 10:04:52.136,-0.028,0.024,0.988
2026/01/08 10:04:52.156,-0.028,0.026,0.993
2026/01/08 10:04:52.175,-0.025,0.024,0.989
2026/01/08 10:04:52.195,-0.027,0.027,0.994
2026/01/08 10:04:52.215,-0.025,0.024,0.988
2026/01/08 10:04:52.235,-0.028,0.024,0.992
2026/01/08 10:04:52.255,-0.029,0.026,0.993
2026/01/08 10:04:52.274,-0.03,0.025,0.992
2026/01/08 10:04:52.294,-0.027,0.025,0.991
2026/01/08 10:04:52.314,-0.026,0.026,0.993
2026/01/08 10:04:52.334,-0.027,0.029,0.994
2026/01/08 10:04:52.354,-0.027,0.021,0.992
2026/01/08 10:04:52.373,-0.03,0.022,0.993
2026/01/08 10:04:52.393,-0.029,0.026,0.989
2026/01/08 10:04:52.413,-0.029,0.022,0.992
2026/01/08 10:04:52.433,-0.03,0.024,0.992
2026/01/08 10:04:52.453,-0.027,0.025,0.99
2026/01/08 10:04:52.472,-0.028,0.026,0.99
2026/01/08 10:04:52.492,-0.026,0.027,0.992
2026/01/08 10:04:52.512,-0.028,0.022,0.992
2026/01/08 10:04:52.532,-0.031,0.028,0.992
2026/01/08 10:04:52.552,-0.03,0.025,0.991
2026/01/08 10:04:52.571,-0.03,0.026,0.993
2026/01/08 10:04:52.591,-0.027,0.022,0.993
2026/01/08 10:04:52.611,-0.026,0.025,0.992
2026/01/08 10:04:52.631,-0.03,0.025,0.992
2026/01/08 10:04:52.651,-0.032,0.026,0.991
2026/01/08 10:04:52.670,-0.027,0.024,0.989
2026/01/08 10:04:52.690,-0.029,0.022,0.992
2026/01/08 10:04:52.710,-0.027,0.025,0.99
2026/01/08 10:04:52.730,-0.03,0.026,0.991
2026/01/08 10:04:52.749,-0.028,0.024,0.993
2026/01/08 10:04:52.769,-0.028,0.024,0.993
2026/01/08 10:04:52.789,-0.029,0.021,0.987
2026/01/08 10:04:52.809,-0.028,0.024,0.991
2026/01/08 10:04:52.829,-0.026,0.023,0.993
2026/01/08 10:04:52.848,-0.025,0.026,0.99
2026/01/08 10:04:52.868,-0.028,0.028,0.99
2026/01/08 10:04:52.888,-0.03,0.024,0.989
2026/01/08 10:04:52.908,-0.028,0.024,0.989
2026/01/08 10:04:52.928,-0.031,0.026,0.991
2026/01/08 10:04:52.947,-0.028,0.023,0.992
2026/01/08 10:04:52.967,-0.027,0.025,0.993
2026/01/08 10:04:52.987,-0.031,0.023,0.994
2026/01/08 10:04:53.007,-0.029,0.023,0.993
2026/01/08 10:04:53.027,-0.027,0.026,0.99
2026/01/08 10:04:53.046,-0.029,0.021,0.993
2026/01/08 10:04:53.066,-0.029,0.025,0.992
2026/01/08 10:04:53.086,-0.03,0.029,0.991
2026/01/08 10:04:53.106,-0.027,0.022,0.991
2026/01/08 10:04:53.126,-0.022,0.028,0.993
2026/01/08 10:04:53.145,-0.028,0.024,0.995
2026/01/08 10:04:53.165,-0.023,0.028,0.991
2026/01/08 10:04:53.185,-0.029,0.025,0.991
2026/01/08 10:04:53.205,-0.029,0.027,0.987
2026/01/08 10:04:53.225,-0.03,0.025,0.989
2026/01/08 10:04:53.244,-0.027,0.024,0.992
2026/01/08 10:04:53.264,-0.028,0.024,0.993
2026/01/08 10:04:53.284,-0.027,0.028,0.991
2026/01/08 10:04:53.304,-0.029,0.023,0.993
2026/01/08 10:04:53.324,-0.027,0.024,0.99
2026/01/08 10:04:53.343,-0.026,0.023,0.989
2026/01/08 10:04:53.363,-0.028,0.026,0.992
2026/01/08 10:04:53.383,-0.026,0.025,0.989
2026/01/08 10:04:53.403,-0.029,0.023,0.988
2026/01/08 10:04:53.423,-0.026,0.026,0.989
2026/01/08 10:04:53.442,-0.029,0.026,0.993
2026/01/08 10:04:53.462,-0.028,0.024,0.993
2026/01/08 10:04:53.482,-0.031,0.024,0.989
2026/01/08 10:04:53.502,-0.028,0.024,0.99
2026/01/08 10:04:53.522,-0.025,0.025,0.99
2026/01/08 10:04:53.541,-0.025,0.024,0.99
2026/01/08 10:04:53.561,-0.027,0.023,0.99
2026/01/08 10:04:53.581,-0.028,0.025,0.993
2026/01/08 10:04:53.601,-0.026,0.022,0.987
2026/01/08 10:04:53.620,-0.029,0.026,0.994
2026/01/08 10:04:53.640,-0.026,0.026,0.991
2026/01/08 10:04:53.660,-0.03,0.024,0.989
2026/01/08 10:04:53.680,-0.03,0.027,0.988
2026/01/08 10:04:53.700,-0.027,0.023,0.993
2026/01/08 10:04:53.719,-0.028,0.029,0.989
2026/01/08 10:04:53.739,-0.03,0.025,0.992
2026/01/08 10:04:53.759,-0.026,0.023,0.99
2026/01/08 10:04:53.779,-0.03,0.022,0.992
2026/01/08 10:04:53.799,-0.028,0.023,0.994
2026/01/08 10:04:53.818,-0.03,0.024,0.99
2026/01/08 10:04:53.838,-0.028,0.022,0.99
2026/01/08 10:04:53.858,-0.03,0.023,0.99
2026/01/08 10:04:53.878,-0.026,0.025,0.988
2026/01/08 10:04:53.898,-0.03,0.023,0.989
2026/01/08 10:04:53.917,-0.024,0.025,0.989
2026/01/08 10:04:53.937,-0.025,0.022,0.993
2026/01/08 10:04:53.957,-0.026,0.024,0.989
2026/01/08 10:04:53.977,-0.027,0.025,0.991
2026/01/08 10:04:53.997,-0.03,0.027,0.989
2026/01/08 10:04:54.016,-0.026,0.022,0.994
2026/01/08 10:04:54.036,-0.028,0.028,0.993
2026/01/08 10:04:54.056,-0.029,0.027,0.995
2026/01/08 10:04:54.076,-0.027,0.024,0.992
2026/01/08 10:04:54.096,-0.027,0.021,0.994
2026/01/08 10:04:54.115,-0.03,0.022,0.99
2026/01/08 10:04:54.135,-0.03,0.025,0.989
2026/01/08 10:04:54.155,-0.028,0.026,0.99
2026/01/08 10:04:54.175,-0.028,0.022,0.992
2026/01/08 10:04:54.195,-0.026,0.026,0.989
2026/01/08 10:04:54.214,-0.028,0.024,0.992
2026/01/08 10:04:54.234,-0.03,0.023,0.991
2026/01/08 10:04:54.254,-0.03,0.022,0.989
2026/01/08 10:04:54.274,-0.029,0.024,0.991
2026/01/08 10:04:54.294,-0.027,0.025,0.993
2026/01/08 10:04:54.313,-0.028,0.025,0.987
2026/01/08 10:04:54.333,-0.029,0.022,0.993
2026/01/08 10:04:54.353,-0.025,0.026,0.993
2026/01/08 10:04:54.373,-0.029,0.022,0.994
2026/01/08 10:04:54.392,-0.028,0.026,0.988
2026/01/08 10:04:54.412,-0.027,0.024,0.992
2026/01/08 10:04:54.432,-0.025,0.023,0.988
2026/01/08 10:04:54.452,-0.029,0.027,0.992
2026/01/08 10:04:54.472,-0.03,0.022,0.993
2026/01/08 10:04:54.491,-0.029,0.024,0.992
2026/01/08 10:04:54.511,-0.028,0.029,0.989
2026/01/08 10:04:54.531,-0.028,0.025,0.993
2026/01/08 10:04:54.551,-0.03,0.024,0.991
2026/01/08 10:04:54.571,-0.027,0.022,0.989
2026/01/08 10:04:54.590,-0.027,0.023,0.987
2026/01/08 10:04:54.610,-0.027,0.026,0.989
2026/01/08 10:04:54.630,-0.027,0.029,0.992
2026/01/08 10:04:54.650,-0.028,0.022,0.99
2026/01/08 10:04:54.670,-0.026,0.026,0.99
2026/01/08 10:04:54.689,-0.026,0.023,0.993
2026/01/08 10:04:54.709,-0.023,0.026,0.99
2026/01/08 10:04:54.729,-0.031,0.026,0.989
2026/01/08 10:04:54.749,-0.028,0.027,0.993
2026/01/08 10:04:54.769,-0.027,0.026,0.993
2026/01/08 10:04:54.788,-0.026,0.025,0.991
2026/01/08 10:04:54.808,-0.029,0.028,0.99
2026/01/08 10:04:54.828,-0.029,0.024,0.991
2026/01/08 10:04:54.848,-0.027,0.029,0.995
2026/01/08 10:04:54.868,-0.03,0.024,0.991
2026/01/08 10:04:54.887,-0.031,0.025,0.995
2026/01/08 10:04:54.907,-0.032,0.023,0.987
2026/01/08 10:04:54.927,-0.03,0.025,0.989
2026/01/08 10:04:54.947,-0.027,0.025,0.993
2026/01/08 10:04:54.967,-0.029,0.024,0.991
2026/01/08 10:04:54.986,-0.029,0.024,0.992
2026/01/08 10:04:55.006,-0.031,0.025,0.99
2026/01/08 10:04:55.026,-0.025,0.024,0.989
2026/01/08 10:04:55.046,-0.027,0.02,0.991
2026/01/08 10:04:55.066,-0.031,0.022,0.989
2026/01/08 10:04:55.085,-0.028,0.025,0.988
2026/01/08 10:04:55.105,-0.026,0.024,0.99
2026/01/08 10:04:55.125,-0.029,0.028,0.988
2026/01/08 10:04:55.145,-0.027,0.026,0.989
2026/01/08 10:04:55.164,-0.028,0.02,0.992
2026/01/08 10:04:55.184,-0.028,0.026,0.989
2026/01/08 10:04:55.204,-0.026,0.025,0.99
2026/01/08 10:04:55.224,-0.026,0.024,0.987
2026/01/08 10:04:55.244,-0.028,0.023,0.99
2026/01/08 10:04:55.263,-0.028,0.018,0.993
2026/01/08 10:04:55.283,-0.028,0.028,0.991
2026/01/08 10:04:55.303,-0.029,0.026,0.995
2026/01/08 10:04:55.323,-0.026,0.02,0.989
2026/01/08 10:04:55.343,-0.029,0.023,0.994
2026/01/08 10:04:55.362,-0.032,0.024,0.994
2026/01/08 10:04:55.382,-0.026,0.023,0.995
2026/01/08 10:04:55.402,-0.03,0.027,0.992
2026/01/08 10:04:55.422,-0.029,0.023,0.992
2026/01/08 10:04:55.442,-0.028,0.025,0.992
2026/01/08 10:04:55.461,-0.029,0.023,0.988
2026/01/08 10:04:55.481,-0.022,0.023,0.99
2026/01/08 10:04:55.501,-0.028,0.024,0.994
2026/01/08 10:04:55.521,-0.025,0.025,0.988
2026/01/08 10:04:55.541,-0.028,0.024,0.993
2026/01/08 10:04:55.560,-0.026,0.023,0.992
2026/01/08 10:04:55.580,-0.025,0.027,0.995
2026/01/08 10:04:55.600,-0.027,0.027,0.989
2026/01/08 10:04:55.620,-0.028,0.026,0.993
2026/01/08 10:04:55.640,-0.03,0.024,0.994
2026/01/08 10:04:55.659,-0.028,0.026,0.993
2026/01/08 10:04:55.679,-0.029,0.022,0.987
2026/01/08 10:04:55.699,-0.024,0.026,0.996
2026/01/08 10:04:55.719,-0.029,0.023,0.99
2026/01/08 10:04:55.739,-0.029,0.025,0.992
2026/01/08 10:04:55.758,-0.029,0.025,0.992
2026/01/08 10:04:55.778,-0.024,0.022,0.986
2026/01/08 10:04:55.798,-0.029,0.025,0.996
2026/01/08 10:04:55.818,-0.028,0.024,0.989
2026/01/08 10:04:55.838,-0.031,0.027,0.992
2026/01/08 10:04:55.857,-0.027,0.022,0.991
2026/01/08 10:04:55.877,-0.029,0.021,0.992
2026/01/08 10:04:55.897,-0.028,0.023,0.993
2026/01/08 10:04:55.917,-0.026,0.025,0.991
2026/01/08 10:04:55.936,-0.029,0.025,0.995
2026/01/08 10:04:55.956,-0.025,0.022,0.993
2026/01/08 10:04:55.976,-0.027,0.025,0.994
2026/01/08 10:04:55.996,-0.027,0.031,0.993
2026/01/08 10:04:56.016,-0.027,0.025,0.99
2026/01/08 10:04:56.035,-0.026,0.022,0.991
2026/01/08 10:04:56.055,-0.03,0.025,0.99
2026/01/08 10:04:56.075,-0.027,0.029,0.993
2026/01/08 10:04:56.095,-0.024,0.023,0.992
2026/01/08 10:04:56.115,-0.028,0.024,0.995
2026/01/08 10:04:56.134,-0.025,0.028,0.991
2026/01/08 10:04:56.154,-0.029,0.025,0.993
2026/01/08 10:04:56.174,-0.024,0.025,0.991
2026/01/08 10:04:56.194,-0.028,0.023,0.99
2026/01/08 10:04:56.214,-0.028,0.023,0.99
2026/01/08 10:04:56.233,-0.03,0.023,0.988
2026/01/08 10:04:56.253,-0.024,0.027,0.994
2026/01/08 10:04:56.273,-0.027,0.027,0.992
2026/01/08 10:04:56.293,-0.028,0.026,0.995
2026/01/08 10:04:56.313,-0.029,0.026,0.99
2026/01/08 10:04:56.332,-0.024,0.027,0.991
2026/01/08 10:04:56.352,-0.03,0.024,0.992
2026/01/08 10:04:56.372,-0.027,0.026,0.993
2026/01/08 10:04:56.392,-0.029,0.028,0.988
2026/01/08 10:04:56.412,-0.03,0.024,0.991
2026/01/08 10:04:56.431,-0.027,0.024,0.992
2026/01/08 10:04:56.451,-0.03,0.023,0.996
2026/01/08 10:04:56.471,-0.029,0.024,0.994
2026/01/08 10:04:56.491,-0.026,0.026,0.991
2026/01/08 10:04:56.511,-0.025,0.027,0.988
2026/01/08 10:04:56.530,-0.028,0.023,0.99
2026/01/08 10:04:56.550,-0.029,0.023,0.991
2026/01/08 10:04:56.570,-0.027,0.018,0.993
2026/01/08 10:04:56.590,-0.029,0.024,0.992
2026/01/08 10:04:56.610,-0.027,0.025,0.994
2026/01/08 10:04:56.629,-0.029,0.02,0.989
2026/01/08 10:04:56.649,-0.028,0.027,0.991
2026/01/08 10:04:56.669,-0.028,0.024,0.993
2026/01/08 10:04:56.689,-0.031,0.027,0.988
2026/01/08 10:04:56.708,-0.027,0.026,0.99
2026/01/08 10:04:56.728,-0.031,0.023,0.994
2026/01/08 10:04:56.748,-0.025,0.024,0.991
2026/01/08 10:04:56.768,-0.03,0.023,0.99
2026/01/08 10:04:56.788,-0.027,0.024,0.993
2026/01/08 10:04:56.807,-0.027,0.024,0.988
2026/01/08 10:04:56.827,-0.025,0.029,0.99
2026/01/08 10:04:56.847,-0.03,0.024,0.993
2026/01/08 10:04:56.867,-0.029,0.022,0.991
2026/01/08 10:04:56.887,-0.028,0.026,0.994
2026/01/08 10:04:56.906,-0.027,0.027,0.993
2026/01/08 10:04:56.926,-0.027,0.024,0.989
2026/01/08 10:04:56.946,-0.031,0.024,0.995
2026/01/08 10:04:56.966,-0.027,0.025,0.991
2026/01/08 10:04:56.986,-0.031,0.026,0.991
2026/01/08 10:04:57.005,-0.026,0.025,0.993
2026/01/08 10:04:57.025,-0.027,0.028,0.988
2026/01/08 10:04:57.045,-0.033,0.023,0.99
2026/01/08 10:04:57.065,-0.026,0.027,0.992
2026/01/08 10:04:57.085,-0.028,0.023,0.99
2026/01/08 10:04:57.104,-0.026,0.025,0.99
2026/01/08 10:04:57.124,-0.029,0.024,0.991
2026/01/08 10:04:57.144,-0.03,0.025,0.989
2026/01/08 10:04:57.164,-0.028,0.029,0.994
2026/01/08 10:04:57.184,-0.028,0.022,0.993
2026/01/08 10:04:57.203,-0.026,0.026,0.991
2026/01/08 10:04:57.223,-0.028,0.025,0.989
2026/01/08 10:04:57.243,-0.026,0.026,0.99
2026/01/08 10:04:57.263,-0.029,0.024,0.989
2026/01/08 10:04:57.283,-0.028,0.024,0.99
2026/01/08 10:04:57.302,-0.03,0.027,0.993
2026/01/08 10:04:57.322,-0.029,0.026,0.993
2026/01/08 10:04:57.342,-0.028,0.027,0.991
2026/01/08 10:04:57.362,-0.026,0.023,0.988
2026/01/08 10:04:57.381,-0.031,0.022,0.992
2026/01/08 10:04:57.401,-0.026,0.024,0.988
2026/01/08 10:04:57.421,-0.027,0.023,0.989
2026/01/08 10:04:57.441,-0.029,0.027,0.989
2026/01/08 10:04:57.461,-0.025,0.026,0.991
2026/01/08 10:04:57.480,-0.028,0.023,0.993
2026/01/08 10:04:57.500,-0.032,0.024,0.988
2026/01/08 10:04:57.520,-0.027,0.024,0.996
2026/01/08 10:04:57.540,-0.029,0.027,0.993
2026/01/08 10:04:57.560,-0.031,0.021,0.987
2026/01/08 10:04:57.579,-0.024,0.022,0.992
2026/01/08 10:04:57.599,-0.028,0.024,0.992
2026/01/08 10:04:57.619,-0.026,0.021,0.993
2026/01/08 10:04:57.639,-0.028,0.024,0.99
2026/01/08 10:04:57.659,-0.03,0.028,0.992
2026/01/08 10:04:57.678,-0.029,0.027,0.994
2026/01/08 10:04:57.698,-0.026,0.022,0.991
2026/01/08 10:04:57.718,-0.032,0.025,0.993
2026/01/08 10:04:57.738,-0.026,0.023,0.988
2026/01/08 10:04:57.758,-0.027,0.025,0.991
2026/01/08 10:04:57.777,-0.031,0.028,0.991
2026/01/08 10:04:57.797,-0.027,0.017,0.99
2026/01/08 10:04:57.817,-0.029,0.024,0.99
2026/01/08 10:04:57.837,-0.027,0.023,0.992
2026/01/08 10:04:57.857,-0.03,0.021,0.993
2026/01/08 10:04:57.876,-0.029,0.026,0.987
2026/01/08 10:04:57.896,-0.027,0.024,0.991
2026/01/08 10:04:57.916,-0.025,0.02,0.989
2026/01/08 10:04:57.936,-0.029,0.027,0.99
2026/01/08 10:04:57.956,-0.028,0.023,0.991
2026/01/08 10:04:57.975,-0.025,0.022,0.996
2026/01/08 10:04:57.995,-0.028,0.027,0.993
2026/01/08 10:04:58.015,-0.027,0.026,0.991
2026/01/08 10:04:58.035,-0.03,0.024,0.991
2026/01/08 10:04:58.055,-0.027,0.024,0.99
2026/01/08 10:04:58.074,-0.028,0.02,0.992
2026/01/08 10:04:58.094,-0.03,0.024,0.988
2026/01/08 10:04:58.114,-0.025,0.025,0.991
2026/01/08 10:04:58.134,-0.033,0.024,0.994
2026/01/08 10:04:58.154,-0.028,0.025,0.993
2026/01/08 10:04:58.173,-0.027,0.029,0.993
2026/01/08 10:04:58.193,-0.029,0.025,0.991
2026/01/08 10:04:58.213,-0.027,0.027,0.991
2026/01/08 10:04:58.233,-0.029,0.025,0.992
2026/01/08 10:04:58.252,-0.023,0.029,0.993
2026/01/08 10:04:58.272,-0.028,0.026,0.992
2026/01/08 10:04:58.292,-0.027,0.024,0.992
2026/01/08 10:04:58.312,-0.028,0.022,0.99
2026/01/08 10:04:58.332,-0.028,0.023,0.992
2026/01/08 10:04:58.351,-0.027,0.025,0.995
2026/01/08 10:04:58.371,-0.026,0.024,0.994
2026/01/08 10:04:58.391,-0.025,0.02,0.993
2026/01/08 10:04:58.411,-0.029,0.025,0.994
2026/01/08 10:04:58.431,-0.028,0.022,0.991
2026/01/08 10:04:58.450,-0.024,0.026,0.992
2026/01/08 10:04:58.470,-0.027,0.025,0.992
2026/01/08 10:04:58.490,-0.027,0.026,0.99
2026/01/08 10:04:58.510,-0.025,0.024,0.993
2026/01/08 10:04:58.530,-0.027,0.021,0.986
2026/01/08 10:04:58.549,-0.027,0.026,0.997
2026/01/08 10:04:58.569,-0.029,0.026,0.99
2026/01/08 10:04:58.589,-0.029,0.024,0.99
2026/01/08 10:04:58.609,-0.027,0.028,0.996
2026/01/08 10:04:58.629,-0.028,0.025,0.992
2026/01/08 10:04:58.648,-0.027,0.025,0.994
2026/01/08 10:04:58.668,-0.029,0.023,0.994
2026/01/08 10:04:58.688,-0.028,0.026,0.992
2026/01/08 10:04:58.708,-0.028,0.025,0.993
2026/01/08 10:04:58.728,-0.026,0.024,0.995
2026/01/08 10:04:58.747,-0.029,0.025,0.994
2026/01/08 10:04:58.767,-0.024,0.024,0.995
2026/01/08 10:04:58.787,-0.029,0.025,0.991
2026/01/08 10:04:58.807,-0.026,0.027,0.991
2026/01/08 10:04:58.827,-0.028,0.022,0.99
2026/01/08 10:04:58.846,-0.031,0.025,0.986
2026/01/08 10:04:58.866,-0.031,0.021,0.992
2026/01/08 10:04:58.886,-0.026,0.026,0.988
2026/01/08 10:04:58.906,-0.026,0.024,0.988
2026/01/08 10:04:58.926,-0.03,0.021,0.995
2026/01/08 10:04:58.945,-0.026,0.027,0.989
2026/01/08 10:04:58.965,-0.03,0.023,0.993
2026/01/08 10:04:58.985,-0.029,0.025,0.994
2026/01/08 10:04:59.005,-0.027,0.026,0.99
2026/01/08 10:04:59.024,-0.033,0.021,0.994
2026/01/08 10:04:59.044,-0.028,0.025,0.992
2026/01/08 10:04:59.064,-0.03,0.024,0.993
2026/01/08 10:04:59.084,-0.027,0.024,0.993
2026/01/08 10:04:59.104,-0.025,0.026,0.996
2026/01/08 10:04:59.123,-0.028,0.026,0.992
2026/01/08 10:04:59.143,-0.03,0.02,0.988
2026/01/08 10:04:59.163,-0.031,0.028,0.99
2026/01/08 10:04:59.183,-0.028,0.02,0.992
2026/01/08 10:04:59.203,-0.026,0.027,0.991
2026/01/08 10:04:59.222,-0.025,0.028,0.987
2026/01/08 10:04:59.242,-0.029,0.024,0.99
2026/01/08 10:04:59.262,-0.027,0.021,0.988
2026/01/08 10:04:59.282,-0.026,0.027,0.996
2026/01/08 10:04:59.302,-0.03,0.026,0.99
2026/01/08 10:04:59.321,-0.027,0.025,0.988
2026/01/08 10:04:59.341,-0.028,0.023,0.991
2026/01/08 10:04:59.361,-0.028,0.025,0.993
2026/01/08 10:04:59.381,-0.029,0.023,0.99
2026/01/08 10:04:59.401,-0.029,0.024,0.992
2026/01/08 10:04:59.420,-0.032,0.024,0.99
2026/01/08 10:04:59.440,-0.026,0.024,0.994
2026/01/08 10:04:59.460,-0.026,0.023,0.992
2026/01/08 10:04:59.480,-0.023,0.023,0.991
2026/01/08 10:04:59.500,-0.029,0.022,0.989
2026/01/08 10:04:59.519,-0.03,0.025,0.992
2026/01/08 10:04:59.539,-0.03,0.023,0.989
2026/01/08 10:04:59.559,-0.028,0.024,0.991
2026/01/08 10:04:59.579,-0.028,0.024,0.993
2026/01/08 10:04:59.599,-0.029,0.021,0.992
2026/01/08 10:04:59.618,-0.029,0.022,0.99
2026/01/08 10:04:59.638,-0.029,0.025,0.994
2026/01/08 10:04:59.658,-0.028,0.025,0.992
2026/01/08 10:04:59.678,-0.028,0.023,0.99
2026/01/08 10:04:59.698,-0.024,0.024,0.993
2026/01/08 10:04:59.717,-0.027,0.024,0.993
2026/01/08 10:04:59.737,-0.029,0.023,0.993
2026/01/08 10:04:59.757,-0.024,0.025,0.988
2026/01/08 10:04:59.777,-0.03,0.026,0.989
2026/01/08 10:04:59.796,-0.028,0.022,0.99
2026/01/08 10:04:59.816,-0.028,0.024,0.988
2026/01/08 10:04:59.836,-0.024,0.026,0.992
2026/01/08 10:04:59.856,-0.031,0.023,0.992
2026/01/08 10:04:59.876,-0.026,0.021,0.991
2026/01/08 10:04:59.895,-0.025,0.025,0.989
2026/01/08 10:04:59.915,-0.028,0.023,0.992
2026/01/08 10:04:59.935,-0.029,0.025,0.988
2026/01/08 10:04:59.955,-0.028,0.028,0.991
2026/01/08 10:04:59.975,-0.026,0.027,0.993
2026/01/08 10:04:59.994,-0.024,0.027,0.992
2026/01/08 10:05:00.014,-0.031,0.026,0.991
2026/01/08 10:05:00.034,-0.029,0.029,0.993
2026/01/08 10:05:00.054,-0.028,0.022,0.995
2026/01/08 10:05:00.074,-0.03,0.025,0.99
2026/01/08 10:05:00.093,-0.027,0.024,0.99
2026/01/08 10:05:00.113,-0.029,0.025,0.993
2026/01/08 10:05:00.133,-0.028,0.024,0.993
2026/01/08 10:05:00.153,-0.027,0.022,0.989
2026/01/08 10:05:00.173,-0.028,0.025,0.993
2026/01/08 10:05:00.192,-0.025,0.025,0.993
2026/01/08 10:05:00.212,-0.033,0.024,0.991
2026/01/08 10:05:00.232,-0.026,0.023,0.993
2026/01/08 10:05:00.252,-0.026,0.022,0.994
2026/01/08 10:05:00.272,-0.026,0.022,0.99
2026/01/08 10:05:00.291,-0.031,0.027,0.992
2026/01/08 10:05:00.311,-0.026,0.025,0.993
2026/01/08 10:05:00.331,-0.031,0.026,0.991
2026/01/08 10:05:00.351,-0.027,0.027,0.993
2026/01/08 10:05:00.371,-0.027,0.025,0.991
2026/01/08 10:05:00.390,-0.028,0.025,0.99
2026/01/08 10:05:00.410,-0.029,0.023,0.991
2026/01/08 10:05:00.430,-0.026,0.023,0.988
2026/01/08 10:05:00.450,-0.03,0.028,0.991
2026/01/08 10:05:00.470,-0.028,0.023,0.99
2026/01/08 10:05:00.489,-0.03,0.02,0.993
2026/01/08 10:05:00.509,-0.028,0.026,0.992
2026/01/08 10:05:00.529,-0.031,0.022,0.995
2026/01/08 10:05:00.549,-0.028,0.024,0.991
2026/01/08 10:05:00.568,-0.028,0.023,0.99
2026/01/08 10:05:00.588,-0.029,0.021,0.99
2026/01/08 10:05:00.608,-0.031,0.025,0.996
2026/01/08 10:05:00.628,-0.026,0.025,0.994
2026/01/08 10:05:00.648,-0.032,0.027,0.992
2026/01/08 10:05:00.667,-0.027,0.023,0.991
2026/01/08 10:05:00.687,-0.029,0.027,0.99
2026/01/08 10:05:00.707,-0.031,0.028,0.991
2026/01/08 10:05:00.727,-0.03,0.026,0.992
2026/01/08 10:05:00.747,-0.027,0.023,0.992
2026/01/08 10:05:00.766,-0.029,0.026,0.995
2026/01/08 10:05:00.786,-0.026,0.023,0.992
2026/01/08 10:05:00.806,-0.029,0.024,0.991
2026/01/08 10:05:00.826,-0.026,0.025,0.988
2026/01/08 10:05:00.846,-0.028,0.025,0.993
2026/01/08 10:05:00.865,-0.026,0.024,0.991
2026/01/08 10:05:00.885,-0.025,0.027,0.993
2026/01/08 10:05:00.905,-0.031,0.022,0.99
2026/01/08 10:05:00.925,-0.026,0.031,0.989
2026/01/08 10:05:00.945,-0.026,0.026,0.991
2026/01/08 10:05:00.964,-0.03,0.027,0.993
2026/01/08 10:05:00.984,-0.027,0.024,0.992
2026/01/08 10:05:01.004,-0.029,0.028,0.99
2026/01/08 10:05:01.024,-0.027,0.027,0.993
2026/01/08 10:05:01.044,-0.028,0.027,0.994
2026/01/08 10:05:01.063,-0.026,0.023,0.991
2026/01/08 10:05:01.083,-0.03,0.023,0.99
2026/01/08 10:05:01.103,-0.028,0.023,0.992
2026/01/08 10:05:01.123,-0.026,0.028,0.995
2026/01/08 10:05:01.143,-0.025,0.027,0.989
2026/01/08 10:05:01.162,-0.027,0.024,0.988
2026/01/08 10:05:01.182,-0.025,0.027,0.988
2026/01/08 10:05:01.202,-0.026,0.026,0.991
2026/01/08 10:05:01.222,-0.026,0.026,0.993
2026/01/08 10:05:01.241,-0.026,0.024,0.991
2026/01/08 10:05:01.261,-0.025,0.028,0.993
2026/01/08 10:05:01.281,-0.028,0.026,0.992
2026/01/08 10:05:01.301,-0.027,0.023,0.988
2026/01/08 10:05:01.321,-0.028,0.024,0.991
2026/01/08 10:05:01.340,-0.028,0.027,0.991
2026/01/08 10:05:01.360,-0.026,0.025,0.993
2026/01/08 10:05:01.380,-0.026,0.024,0.993
2026/01/08 10:05:01.400,-0.028,0.025,0.992
2026/01/08 10:05:01.420,-0.024,0.023,0.99
2026/01/08 10:05:01.439,-0.027,0.025,0.989
2026/01/08 10:05:01.459,-0.028,0.023,0.992
2026/01/08 10:05:01.479,-0.03,0.025,0.988
2026/01/08 10:05:01.499,-0.029,0.026,0.99
2026/01/08 10:05:01.519,-0.029,0.027,0.99
2026/01/08 10:05:01.538,-0.022,0.027,0.993
2026/01/08 10:05:01.558,-0.03,0.025,0.994
2026/01/08 10:05:01.578,-0.029,0.025,0.989
2026/01/08 10:05:01.598,-0.029,0.024,0.993
2026/01/08 10:05:01.618,-0.027,0.022,0.992
2026/01/08 10:05:01.637,-0.033,0.028,0.992
2026/01/08 10:05:01.657,-0.027,0.022,0.991
2026/01/08 10:05:01.677,-0.024,0.025,0.99
2026/01/08 10:05:01.697,-0.027,0.024,0.993
2026/01/08 10:05:01.717,-0.029,0.021,0.989
2026/01/08 10:05:01.736,-0.029,0.024,0.993
2026/01/08 10:05:01.756,-0.028,0.027,0.992
2026/01/08 10:05:01.776,-0.027,0.028,0.99
2026/01/08 10:05:01.796,-0.027,0.02,0.992
2026/01/08 10:05:01.816,-0.028,0.022,0.991
2026/01/08 10:05:01.835,-0.027,0.023,0.995
2026/01/08 10:05:01.855,-0.026,0.023,0.99
2026/01/08 10:05:01.875,-0.028,0.025,0.989
2026/01/08 10:05:01.895,-0.028,0.026,0.992
2026/01/08 10:05:01.915,-0.027,0.024,0.994
2026/01/08 10:05:01.934,-0.026,0.027,0.993
2026/01/08 10:05:01.954,-0.027,0.026,0.991
2026/01/08 10:05:01.974,-0.029,0.027,0.991
2026/01/08 10:05:01.994,-0.028,0.022,0.99
2026/01/08 10:05:02.013,-0.027,0.027,0.989
2026/01/08 10:05:02.033,-0.028,0.023,0.992
2026/01/08 10:05:02.053,-0.026,0.027,0.991
2026/01/08 10:05:02.073,-0.026,0.025,0.991
2026/01/08 10:05:02.093,-0.029,0.027,0.99
2026/01/08 10:05:02.112,-0.028,0.027,0.99
2026/01/08 10:05:02.132,-0.03,0.023,0.99
2026/01/08 10:05:02.152,-0.026,0.022,0.993
2026/01/08 10:05:02.172,-0.028,0.024,0.99
2026/01/08 10:05:02.192,-0.026,0.022,0.99
2026/01/08 10:05:02.211,-0.027,0.023,0.989
2026/01/08 10:05:02.231,-0.021,0.023,0.987
2026/01/08 10:05:02.251,-0.029,0.024,0.989
2026/01/08 10:05:02.271,-0.029,0.028,0.986
2026/01/08 10:05:02.291,-0.028,0.024,0.991
2026/01/08 10:05:02.310,-0.028,0.023,0.99
2026/01/08 10:05:02.330,-0.028,0.028,0.991
2026/01/08 10:05:02.350,-0.03,0.023,0.99
2026/01/08 10:05:02.370,-0.025,0.023,0.991
2026/01/08 10:05:02.390,-0.031,0.023,0.992
2026/01/08 10:05:02.409,-0.027,0.023,0.995
2026/01/08 10:05:02.429,-0.027,0.02,0.991
2026/01/08 10:05:02.449,-0.031,0.022,0.991
2026/01/08 10:05:02.469,-0.031,0.024,0.99
2026/01/08 10:05:02.489,-0.028,0.023,0.992
2026/01/08 10:05:02.508,-0.029,0.028,0.992
2026/01/08 10:05:02.528,-0.029,0.023,0.992
2026/01/08 10:05:02.548,-0.03,0.023,0.993
2026/01/08 10:05:02.568,-0.029,0.029,0.988
2026/01/08 10:05:02.588,-0.03,0.02,0.99
2026/01/08 10:05:02.607,-0.032,0.027,0.992
2026/01/08 10:05:02.627,-0.029,0.022,0.991
2026/01/08 10:05:02.647,-0.024,0.023,0.993
2026/01/08 10:05:02.667,-0.024,0.027,0.991
2026/01/08 10:05:02.686,-0.025,0.024,0.992
2026/01/08 10:05:02.706,-0.029,0.025,0.993
2026/01/08 10:05:02.726,-0.026,0.026,0.991
2026/01/08 10:05:02.746,-0.028,0.026,0.99
2026/01/08 10:05:02.766,-0.029,0.027,0.993
2026/01/08 10:05:02.785,-0.026,0.027,0.991
2026/01/08 10:05:02.805,-0.026,0.027,0.996
2026/01/08 10:05:02.825,-0.028,0.025,0.988
2026/01/08 10:05:02.845,-0.025,0.027,0.993
2026/01/08 10:05:02.865,-0.03,0.026,0.989
2026/01/08 10:05:02.884,-0.028,0.024,0.995
2026/01/08 10:05:02.904,-0.029,0.022,0.99
2026/01/08 10:05:02.924,-0.029,0.023,0.993
2026/01/08 10:05:02.944,-0.03,0.025,0.989
2026/01/08 10:05:02.964,-0.022,0.027,0.992
2026/01/08 10:05:02.983,-0.024,0.023,0.992
2026/01/08 10:05:03.003,-0.025,0.025,0.991
2026/01/08 10:05:03.023,-0.026,0.025,0.991
2026/01/08 10:05:03.043,-0.028,0.023,0.99
2026/01/08 10:05:03.063,-0.031,0.021,0.99
2026/01/08 10:05:03.082,-0.03,0.024,0.993
2026/01/08 10:05:03.102,-0.028,0.027,0.99
2026/01/08 10:05:03.122,-0.03,0.024,0.991
2026/01/08 10:05:03.142,-0.031,0.024,0.986
2026/01/08 10:05:03.162,-0.028,0.024,0.991
2026/01/08 10:05:03.181,-0.027,0.025,0.991
2026/01/08 10:05:03.201,-0.029,0.021,0.989
2026/01/08 10:05:03.221,-0.028,0.022,0.993
2026/01/08 10:05:03.241,-0.027,0.031,0.993
2026/01/08 10:05:03.261,-0.029,0.025,0.993
2026/01/08 10:05:03.280,-0.03,0.02,0.99
2026/01/08 10:05:03.300,-0.03,0.025,0.991
2026/01/08 10:05:03.320,-0.028,0.026,0.99
2026/01/08 10:05:03.340,-0.025,0.024,0.991
2026/01/08 10:05:03.360,-0.027,0.025,0.991
2026/01/08 10:05:03.379,-0.028,0.022,0.991
2026/01/08 10:05:03.399,-0.028,0.025,0.991
2026/01/08 10:05:03.419,-0.028,0.029,0.99
2026/01/08 10:05:03.439,-0.027,0.028,0.991
2026/01/08 10:05:03.458,-0.028,0.025,0.99
2026/01/08 10:05:03.478,-0.031,0.024,0.992
2026/01/08 10:05:03.498,-0.032,0.027,0.99
2026/01/08 10:05:03.518,-0.028,0.022,0.991
2026/01/08 10:05:03.538,-0.026,0.025,0.987
2026/01/08 10:05:03.557,-0.027,0.022,0.99
2026/01/08 10:05:03.577,-0.029,0.027,0.99
2026/01/08 10:05:03.597,-0.029,0.026,0.989
2026/01/08 10:05:03.617,-0.026,0.028,0.994
2026/01/08 10:05:03.637,-0.028,0.027,0.99
2026/01/08 10:05:03.656,-0.03,0.029,0.992
2026/01/08 10:05:03.676,-0.027,0.022,0.993
2026/01/08 10:05:03.696,-0.027,0.023,0.991
2026/01/08 10:05:03.716,-0.027,0.027,0.991
2026/01/08 10:05:03.736,-0.027,0.026,0.991
2026/01/08 10:05:03.755,-0.028,0.023,0.993
2026/01/08 10:05:03.775,-0.029,0.021,0.993
2026/01/08 10:05:03.795,-0.031,0.027,0.99
2026/01/08 10:05:03.815,-0.028,0.024,0.993
2026/01/08 10:05:03.835,-0.027,0.025,0.99
2026/01/08 10:05:03.854,-0.028,0.025,0.985
2026/01/08 10:05:03.874,-0.028,0.024,0.99
2026/01/08 10:05:03.894,-0.03,0.025,0.991
2026/01/08 10:05:03.914,-0.028,0.027,0.993
2026/01/08 10:05:03.934,-0.029,0.023,0.989
2026/01/08 10:05:03.953,-0.023,0.023,0.99
2026/01/08 10:05:03.973,-0.03,0.026,0.988
2026/01/08 10:05:03.993,-0.03,0.026,0.993
2026/01/08 10:05:04.013,-0.027,0.026,0.99
2026/01/08 10:05:04.033,-0.027,0.021,0.992
2026/01/08 10:05:04.052,-0.025,0.026,0.992
2026/01/08 10:05:04.072,-0.025,0.025,0.99
2026/01/08 10:05:04.092,-0.028,0.024,0.991
2026/01/08 10:05:04.112,-0.03,0.029,0.99
2026/01/08 10:05:04.131,-0.028,0.027,0.988
2026/01/08 10:05:04.151,-0.024,0.025,0.989
2026/01/08 10:05:04.171,-0.03,0.024,0.992
2026/01/08 10:05:04.191,-0.026,0.027,0.989
2026/01/08 10:05:04.211,-0.028,0.023,0.992
2026/01/08 10:05:04.230,-0.031,0.025,0.994
2026/01/08 10:05:04.250,-0.03,0.026,0.995
2026/01/08 10:05:04.270,-0.028,0.027,0.988
2026/01/08 10:05:04.290,-0.028,0.026,0.989
2026/01/08 10:05:04.310,-0.03,0.027,0.992
2026/01/08 10:05:04.329,-0.028,0.023,0.989
2026/01/08 10:05:04.349,-0.026,0.028,0.991
2026/01/08 10:05:04.369,-0.026,0.027,0.995
2026/01/08 10:05:04.389,-0.025,0.024,0.988
2026/01/08 10:05:04.409,-0.03,0.026,0.992
2026/01/08 10:05:04.428,-0.031,0.024,0.991
2026/01/08 10:05:04.448,-0.03,0.029,0.99
2026/01/08 10:05:04.468,-0.029,0.022,0.987
2026/01/08 10:05:04.488,-0.027,0.028,0.991
2026/01/08 10:05:04.508,-0.027,0.023,0.992
2026/01/08 10:05:04.527,-0.027,0.022,0.994
2026/01/08 10:05:04.547,-0.025,0.028,0.992
2026/01/08 10:05:04.567,-0.028,0.025,0.992
2026/01/08 10:05:04.587,-0.028,0.023,0.99
2026/01/08 10:05:04.607,-0.03,0.021,0.994
2026/01/08 10:05:04.626,-0.026,0.027,0.989
2026/01/08 10:05:04.646,-0.03,0.023,0.991
2026/01/08 10:05:04.666,-0.027,0.027,0.991
2026/01/08 10:05:04.686,-0.026,0.024,0.989
2026/01/08 10:05:04.706,-0.027,0.026,0.995
2026/01/08 10:05:04.725,-0.031,0.026,0.993
2026/01/08 10:05:04.745,-0.026,0.023,0.99
2026/01/08 10:05:04.765,-0.028,0.025,0.99
2026/01/08 10:05:04.785,-0.025,0.022,0.991
2026/01/08 10:05:04.805,-0.026,0.026,0.988
2026/01/08 10:05:04.824,-0.027,0.026,0.99
2026/01/08 10:05:04.844,-0.026,0.024,0.993
2026/01/08 10:05:04.864,-0.027,0.027,0.993
2026/01/08 10:05:04.884,-0.028,0.022,0.991
2026/01/08 10:05:04.903,-0.029,0.026,0.991
2026/01/08 10:05:04.923,-0.025,0.023,0.994
2026/01/08 10:05:04.943,-0.028,0.025,0.991
2026/01/08 10:05:04.963,-0.029,0.028,0.991
2026/01/08 10:05:04.983,-0.028,0.024,0.992
2026/01/08 10:05:05.002,-0.027,0.025,0.992
2026/01/08 10:05:05.022,-0.027,0.024,0.993
2026/01/08 10:05:05.042,-0.027,0.025,0.989
2026/01/08 10:05:05.062,-0.03,0.024,0.994
2026/01/08 10:05:05.082,-0.027,0.031,0.993
2026/01/08 10:05:05.101,-0.028,0.022,0.989
2026/01/08 10:05:05.121,-0.026,0.025,0.992
2026/01/08 10:05:05.141,-0.029,0.026,0.99
2026/01/08 10:05:05.161,-0.029,0.023,0.991
2026/01/08 10:05:05.181,-0.027,0.025,0.996
2026/01/08 10:05:05.200,-0.031,0.024,0.994
2026/01/08 10:05:05.220,-0.032,0.023,0.992
2026/01/08 10:05:05.240,-0.026,0.023,0.991
2026/01/08 10:05:05.260,-0.029,0.025,0.992
2026/01/08 10:05:05.280,-0.028,0.026,0.992
2026/01/08 10:05:05.299,-0.027,0.023,0.99
2026/01/08 10:05:05.319,-0.028,0.023,0.991
2026/01/08 10:05:05.339,-0.03,0.024,0.991
2026/01/08 10:05:05.359,-0.027,0.028,0.991
2026/01/08 10:05:05.379,-0.026,0.024,0.992
2026/01/08 10:05:05.398,-0.027,0.025,0.989
2026/01/08 10:05:05.418,-0.027,0.023,0.992
2026/01/08 10:05:05.438,-0.029,0.024,0.99
2026/01/08 10:05:05.458,-0.031,0.026,0.991
2026/01/08 10:05:05.478,-0.033,0.027,0.992
2026/01/08 10:05:05.497,-0.028,0.024,0.995
2026/01/08 10:05:05.517,-0.028,0.022,0.988
2026/01/08 10:05:05.537,-0.027,0.027,0.991
2026/01/08 10:05:05.557,-0.027,0.027,0.995
2026/01/08 10:05:05.577,-0.03,0.025,0.993
2026/01/08 10:05:05.596,-0.03,0.029,0.993
2026/01/08 10:05:05.616,-0.028,0.024,0.993
2026/01/08 10:05:05.636,-0.029,0.024,0.993
2026/01/08 10:05:05.656,-0.03,0.024,0.992
2026/01/08 10:05:05.675,-0.028,0.024,0.987
2026/01/08 10:05:05.695,-0.03,0.026,0.988
2026/01/08 10:05:05.715,-0.026,0.026,0.994
2026/01/08 10:05:05.735,-0.027,0.024,0.991
2026/01/08 10:05:05.755,-0.029,0.025,0.99
2026/01/08 10:05:05.774,-0.028,0.026,0.99
2026/01/08 10:05:05.794,-0.03,0.023,0.994
2026/01/08 10:05:05.814,-0.028,0.029,0.993
2026/01/08 10:05:05.834,-0.029,0.024,0.992
2026/01/08 10:05:05.854,-0.028,0.029,0.992
2026/01/08 10:05:05.873,-0.026,0.024,0.991
2026/01/08 10:05:05.893,-0.029,0.027,0.991
2026/01/08 10:05:05.913,-0.028,0.026,0.99
2026/01/08 10:05:05.933,-0.024,0.022,0.985
2026/01/08 10:05:05.953,-0.03,0.023,0.989
2026/01/08 10:05:05.972,-0.026,0.03,0.993
2026/01/08 10:05:05.992,-0.029,0.027,0.995
2026/01/08 10:05:06.012,-0.028,0.027,0.99
2026/01/08 10:05:06.032,-0.029,0.025,0.993
2026/01/08 10:05:06.052,-0.026,0.026,0.989
2026/01/08 10:05:06.071,-0.027,0.023,0.994
2026/01/08 10:05:06.091,-0.029,0.026,0.989
2026/01/08 10:05:06.111,-0.024,0.025,0.988
2026/01/08 10:05:06.131,-0.03,0.024,0.991
2026/01/08 10:05:06.151,-0.026,0.024,0.991
2026/01/08 10:05:06.170,-0.026,0.024,0.99
2026/01/08 10:05:06.190,-0.027,0.024,0.99
2026/01/08 10:05:06.210,-0.027,0.023,0.989
2026/01/08 10:05:06.230,-0.029,0.029,0.996
2026/01/08 10:05:06.250,-0.03,0.027,0.99
2026/01/08 10:05:06.269,-0.026,0.026,0.993
2026/01/08 10:05:06.289,-0.03,0.023,0.991
2026/01/08 10:05:06.309,-0.029,0.026,0.988
2026/01/08 10:05:06.329,-0.031,0.026,0.99
2026/01/08 10:05:06.349,-0.026,0.024,0.994
2026/01/08 10:05:06.368,-0.027,0.021,0.99
2026/01/08 10:05:06.388,-0.029,0.023,0.99
2026/01/08 10:05:06.408,-0.029,0.022,0.989
2026/01/08 10:05:06.428,-0.028,0.027,0.992
2026/01/08 10:05:06.448,-0.026,0.025,0.993
2026/01/08 10:05:06.467,-0.03,0.026,0.991
2026/01/08 10:05:06.487,-0.029,0.023,0.99
2026/01/08 10:05:06.507,-0.029,0.026,0.99
2026/01/08 10:05:06.527,-0.025,0.026,0.995
2026/01/08 10:05:06.547,-0.026,0.021,0.994
2026/01/08 10:05:06.566,-0.03,0.025,0.99
2026/01/08 10:05:06.586,-0.027,0.027,0.993
2026/01/08 10:05:06.606,-0.03,0.025,0.994
2026/01/08 10:05:06.626,-0.026,0.026,0.992
2026/01/08 10:05:06.645,-0.028,0.025,0.994
2026/01/08 10:05:06.665,-0.027,0.024,0.995
2026/01/08 10:05:06.685,-0.026,0.024,0.989
2026/01/08 10:05:06.705,-0.028,0.031,0.988
2026/01/08 10:05:06.725,-0.028,0.023,0.99
2026/01/08 10:05:06.744,-0.03,0.026,0.99
2026/01/08 10:05:06.764,-0.026,0.025,0.991
2026/01/08 10:05:06.784,-0.023,0.025,0.991
2026/01/08 10:05:06.804,-0.028,0.026,0.988
2026/01/08 10:05:06.824,-0.029,0.022,0.994
2026/01/08 10:05:06.843,-0.026,0.024,0.992
2026/01/08 10:05:06.863,-0.025,0.024,0.988
2026/01/08 10:05:06.883,-0.025,0.023,0.989
2026/01/08 10:05:06.903,-0.027,0.026,0.991
2026/01/08 10:05:06.923,-0.026,0.022,0.989
2026/01/08 10:05:06.942,-0.026,0.028,0.991
2026/01/08 10:05:06.962,-0.026,0.028,0.992
2026/01/08 10:05:06.982,-0.026,0.027,0.991
2026/01/08 10:05:07.002,-0.028,0.026,0.989
2026/01/08 10:05:07.022,-0.028,0.023,0.991
2026/01/08 10:05:07.041,-0.028,0.027,0.992
2026/01/08 10:05:07.061,-0.027,0.028,0.992
2026/01/08 10:05:07.081,-0.025,0.023,0.991
2026/01/08 10:05:07.101,-0.027,0.024,0.992
2026/01/08 10:05:07.121,-0.029,0.026,0.988
2026/01/08 10:05:07.140,-0.024,0.026,0.99
2026/01/08 10:05:07.160,-0.027,0.024,0.991
2026/01/08 10:05:07.180,-0.028,0.023,0.99
2026/01/08 10:05:07.200,-0.029,0.021,0.991
2026/01/08 10:05:07.220,-0.027,0.027,0.988
2026/01/08 10:05:07.239,-0.031,0.025,0.988
2026/01/08 10:05:07.259,-0.027,0.025,0.991
2026/01/08 10:05:07.279,-0.028,0.025,0.993
2026/01/08 10:05:07.299,-0.027,0.027,0.989
2026/01/08 10:05:07.319,-0.028,0.028,0.99
2026/01/08 10:05:07.338,-0.026,0.025,0.99
2026/01/08 10:05:07.358,-0.028,0.026,0.99
2026/01/08 10:05:07.378,-0.028,0.024,0.991
2026/01/08 10:05:07.398,-0.025,0.028,0.992
2026/01/08 10:05:07.418,-0.028,0.029,0.993
2026/01/08 10:05:07.437,-0.027,0.024,0.989
2026/01/08 10:05:07.457,-0.026,0.025,0.991
2026/01/08 10:05:07.477,-0.028,0.023,0.991
2026/01/08 10:05:07.497,-0.026,0.025,0.991
2026/01/08 10:05:07.517,-0.029,0.019,0.988
2026/01/08 10:05:07.536,-0.029,0.025,0.99
2026/01/08 10:05:07.556,-0.029,0.025,0.992
2026/01/08 10:05:07.576,-0.027,0.023,0.988
2026/01/08 10:05:07.596,-0.028,0.025,0.993
2026/01/08 10:05:07.615,-0.028,0.024,0.992
2026/01/08 10:05:07.635,-0.027,0.024,0.992
2026/01/08 10:05:07.655,-0.027,0.026,0.993
2026/01/08 10:05:07.675,-0.028,0.023,0.99
2026/01/08 10:05:07.695,-0.026,0.024,0.991
2026/01/08 10:05:07.714,-0.027,0.021,0.991
2026/01/08 10:05:07.734,-0.027,0.027,0.991
2026/01/08 10:05:07.754,-0.026,0.025,0.994
2026/01/08 10:05:07.774,-0.026,0.027,0.992
2026/01/08 10:05:07.794,-0.031,0.03,0.99
2026/01/08 10:05:07.813,-0.025,0.024,0.989
2026/01/08 10:05:07.833,-0.027,0.027,0.992
2026/01/08 10:05:07.853,-0.027,0.025,0.991
2026/01/08 10:05:07.873,-0.031,0.026,0.993
2026/01/08 10:05:07.893,-0.027,0.024,0.99
2026/01/08 10:05:07.912,-0.026,0.028,0.994
2026/01/08 10:05:07.932,-0.027,0.024,0.992
2026/01/08 10:05:07.952,-0.028,0.028,0.99
2026/01/08 10:05:07.972,-0.027,0.024,0.989
2026/01/08 10:05:07.992,-0.026,0.023,0.993
2026/01/08 10:05:08.011,-0.027,0.024,0.991
2026/01/08 10:05:08.031,-0.029,0.024,0.992
2026/01/08 10:05:08.051,-0.027,0.022,0.988
2026/01/08 10:05:08.071,-0.027,0.019,0.99
2026/01/08 10:05:08.091,-0.027,0.024,0.988
2026/01/08 10:05:08.110,-0.028,0.026,0.993
2026/01/08 10:05:08.130,-0.028,0.021,0.994
2026/01/08 10:05:08.150,-0.026,0.024,0.99
2026/01/08 10:05:08.170,-0.029,0.023,0.993
2026/01/08 10:05:08.190,-0.025,0.024,0.99
2026/01/08 10:05:08.209,-0.03,0.026,0.995
2026/01/08 10:05:08.229,-0.024,0.026,0.991
2026/01/08 10:05:08.249,-0.028,0.025,0.992
2026/01/08 10:05:08.269,-0.029,0.026,0.993
2026/01/08 10:05:08.289,-0.028,0.031,0.994
2026/01/08 10:05:08.308,-0.027,0.026,0.992
2026/01/08 10:05:08.328,-0.029,0.028,0.994
2026/01/08 10:05:08.348,-0.03,0.026,0.991
2026/01/08 10:05:08.368,-0.026,0.026,0.995
2026/01/08 10:05:08.388,-0.028,0.024,0.993
2026/01/08 10:05:08.407,-0.028,0.025,0.992
2026/01/08 10:05:08.427,-0.029,0.023,0.992
2026/01/08 10:05:08.447,-0.028,0.028,0.987
2026/01/08 10:05:08.467,-0.028,0.022,0.996
2026/01/08 10:05:08.487,-0.03,0.026,0.994
2026/01/08 10:05:08.506,-0.026,0.026,0.992
2026/01/08 10:05:08.526,-0.028,0.028,0.992
2026/01/08 10:05:08.546,-0.031,0.022,0.992
2026/01/08 10:05:08.566,-0.029,0.026,0.991
2026/01/08 10:05:08.585,-0.031,0.024,0.99
2026/01/08 10:05:08.605,-0.028,0.026,0.993
2026/01/08 10:05:08.625,-0.026,0.027,0.992
2026/01/08 10:05:08.645,-0.027,0.024,0.992
2026/01/08 10:05:08.665,-0.024,0.028,0.992
2026/01/08 10:05:08.684,-0.031,0.024,0.99
2026/01/08 10:05:08.704,-0.026,0.026,0.991
2026/01/08 10:05:08.724,-0.03,0.023,0.995
2026/01/08 10:05:08.744,-0.027,0.025,0.995
2026/01/08 10:05:08.764,-0.027,0.028,0.988
2026/01/08 10:05:08.783,-0.029,0.02,0.995
2026/01/08 10:05:08.803,-0.029,0.023,0.991
2026/01/08 10:05:08.823,-0.028,0.022,0.994
2026/01/08 10:05:08.843,-0.027,0.027,0.991
2026/01/08 10:05:08.863,-0.025,0.025,0.989
2026/01/08 10:05:08.882,-0.029,0.022,0.991
2026/01/08 10:05:08.902,-0.027,0.028,0.99
2026/01/08 10:05:08.922,-0.03,0.029,0.99
2026/01/08 10:05:08.942,-0.026,0.025,0.992
2026/01/08 10:05:08.962,-0.026,0.024,0.991
2026/01/08 10:05:08.981,-0.031,0.025,0.992
2026/01/08 10:05:09.001,-0.027,0.025,0.993
2026/01/08 10:05:09.021,-0.028,0.022,0.99
2026/01/08 10:05:09.041,-0.032,0.024,0.992
2026/01/08 10:05:09.061,-0.027,0.025,0.991
2026/01/08 10:05:09.080,-0.028,0.024,0.992
2026/01/08 10:05:09.100,-0.027,0.025,0.99
2026/01/08 10:05:09.120,-0.026,0.022,0.99
2026/01/08 10:05:09.140,-0.028,0.028,0.987
2026/01/08 10:05:09.160,-0.029,0.025,0.993
2026/01/08 10:05:09.179,-0.027,0.025,0.996
2026/01/08 10:05:09.199,-0.024,0.025,0.993
2026/01/08 10:05:09.219,-0.03,0.023,0.989
2026/01/08 10:05:09.239,-0.027,0.029,0.994
2026/01/08 10:05:09.259,-0.03,0.022,0.99
2026/01/08 10:05:09.278,-0.027,0.026,0.992
2026/01/08 10:05:09.298,-0.028,0.024,0.994
2026/01/08 10:05:09.318,-0.028,0.022,0.993
2026/01/08 10:05:09.338,-0.028,0.022,0.99
2026/01/08 10:05:09.357,-0.028,0.026,0.991
2026/01/08 10:05:09.377,-0.024,0.026,0.99
2026/01/08 10:05:09.397,-0.028,0.022,0.991
2026/01/08 10:05:09.417,-0.028,0.025,0.994
2026/01/08 10:05:09.437,-0.028,0.023,0.995
2026/01/08 10:05:09.456,-0.029,0.029,0.994
2026/01/08 10:05:09.476,-0.029,0.024,0.993
2026/01/08 10:05:09.496,-0.028,0.024,0.989
2026/01/08 10:05:09.516,-0.031,0.025,0.994
2026/01/08 10:05:09.536,-0.028,0.024,0.993
2026/01/08 10:05:09.555,-0.03,0.027,0.991
2026/01/08 10:05:09.575,-0.029,0.026,0.988
2026/01/08 10:05:09.595,-0.028,0.023,0.992
2026/01/08 10:05:09.615,-0.027,0.025,0.989
2026/01/08 10:05:09.635,-0.029,0.023,0.992
2026/01/08 10:05:09.654,-0.026,0.027,0.993
2026/01/08 10:05:09.674,-0.029,0.024,0.992
2026/01/08 10:05:09.694,-0.025,0.026,0.993
2026/01/08 10:05:09.714,-0.028,0.024,0.992
2026/01/08 10:05:09.734,-0.028,0.023,0.991
2026/01/08 10:05:09.753,-0.028,0.024,0.991
2026/01/08 10:05:09.773,-0.028,0.028,0.991
2026/01/08 10:05:09.793,-0.026,0.023,0.991
2026/01/08 10:05:09.813,-0.025,0.024,0.989
2026/01/08 10:05:09.833,-0.025,0.026,0.988
2026/01/08 10:05:09.852,-0.028,0.023,0.993
2026/01/08 10:05:09.872,-0.031,0.03,0.991
2026/01/08 10:05:09.892,-0.03,0.026,0.991
2026/01/08 10:05:09.912,-0.027,0.025,0.993
2026/01/08 10:05:09.932,-0.027,0.024,0.988
2026/01/08 10:05:09.951,-0.03,0.025,0.993
2026/01/08 10:05:09.971,-0.027,0.028,0.99
2026/01/08 10:05:09.991,-0.028,0.024,0.99
2026/01/08 10:05:10.011,-0.027,0.025,0.99
2026/01/08 10:05:10.030,-0.028,0.026,0.992
2026/01/08 10:05:10.050,-0.027,0.026,0.992
2026/01/08 10:05:10.070,-0.026,0.026,0.99
2026/01/08 10:05:10.090,-0.029,0.024,0.991
2026/01/08 10:05:10.110,-0.025,0.024,0.993
2026/01/08 10:05:10.129,-0.026,0.021,0.991
2026/01/08 10:05:10.149,-0.03,0.022,0.991
2026/01/08 10:05:10.169,-0.027,0.021,0.992
2026/01/08 10:05:10.189,-0.025,0.027,0.991
2026/01/08 10:05:10.209,-0.03,0.026,0.991
2026/01/08 10:05:10.228,-0.029,0.023,0.989
2026/01/08 10:05:10.248,-0.03,0.024,0.993
2026/01/08 10:05:10.268,-0.028,0.024,0.99
2026/01/08 10:05:10.288,-0.027,0.022,0.989
2026/01/08 10:05:10.308,-0.03,0.022,0.991
2026/01/08 10:05:10.327,-0.027,0.02,0.99
2026/01/08 10:05:10.347,-0.029,0.022,0.993
2026/01/08 10:05:10.367,-0.031,0.025,0.988
2026/01/08 10:05:10.387,-0.024,0.026,0.993
2026/01/08 10:05:10.407,-0.026,0.024,0.996
2026/01/08 10:05:10.426,-0.025,0.024,0.993
2026/01/08 10:05:10.446,-0.029,0.026,0.992
2026/01/08 10:05:10.466,-0.029,0.022,0.991
2026/01/08 10:05:10.486,-0.027,0.031,0.99
2026/01/08 10:05:10.506,-0.028,0.026,0.994
2026/01/08 10:05:10.525,-0.025,0.026,0.992
2026/01/08 10:05:10.545,-0.027,0.022,0.99
2026/01/08 10:05:10.565,-0.029,0.027,0.989
2026/01/08 10:05:10.585,-0.029,0.026,0.992
2026/01/08 10:05:10.605,-0.026,0.027,0.992
2026/01/08 10:05:10.624,-0.025,0.028,0.992
2026/01/08 10:05:10.644,-0.022,0.023,0.988
2026/01/08 10:05:10.664,-0.025,0.024,0.988
2026/01/08 10:05:10.684,-0.029,0.025,0.991
2026/01/08 10:05:10.704,-0.028,0.024,0.993
2026/01/08 10:05:10.723,-0.028,0.027,0.994
2026/01/08 10:05:10.743,-0.029,0.028,0.991
2026/01/08 10:05:10.763,-0.028,0.022,0.99
2026/01/08 10:05:10.783,-0.028,0.024,0.993
2026/01/08 10:05:10.802,-0.025,0.022,0.994
2026/01/08 10:05:10.822,-0.024,0.025,0.991
2026/01/08 10:05:10.842,-0.026,0.023,0.986
2026/01/08 10:05:10.862,-0.029,0.023,0.988
2026/01/08 10:05:10.882,-0.03,0.025,0.992
2026/01/08 10:05:10.901,-0.03,0.022,0.991
2026/01/08 10:05:10.921,-0.029,0.029,0.992
2026/01/08 10:05:10.941,-0.027,0.026,0.99
2026/01/08 10:05:10.961,-0.03,0.026,0.988
2026/01/08 10:05:10.981,-0.028,0.022,0.992
2026/01/08 10:05:11.000,-0.03,0.023,0.992
2026/01/08 10:05:11.020,-0.027,0.025,0.992
2026/01/08 10:05:11.040,-0.028,0.026,0.991
2026/01/08 10:05:11.060,-0.027,0.026,0.992
2026/01/08 10:05:11.080,-0.031,0.021,0.994
2026/01/08 10:05:11.099,-0.028,0.025,0.992
2026/01/08 10:05:11.119,-0.024,0.026,0.993
2026/01/08 10:05:11.139,-0.029,0.028,0.986
2026/01/08 10:05:11.159,-0.027,0.028,0.99
2026/01/08 10:05:11.179,-0.029,0.024,0.994
2026/01/08 10:05:11.198,-0.026,0.026,0.989
2026/01/08 10:05:11.218,-0.026,0.027,0.992
2026/01/08 10:05:11.238,-0.025,0.027,0.994
2026/01/08 10:05:11.258,-0.03,0.027,0.994
2026/01/08 10:05:11.278,-0.028,0.023,0.986
2026/01/08 10:05:11.297,-0.029,0.024,0.993
2026/01/08 10:05:11.317,-0.031,0.027,0.99
2026/01/08 10:05:11.337,-0.028,0.024,0.995
2026/01/08 10:05:11.357,-0.025,0.027,0.992
2026/01/08 10:05:11.377,-0.03,0.027,0.991
2026/01/08 10:05:11.396,-0.03,0.025,0.99
2026/01/08 10:05:11.416,-0.029,0.025,0.989
2026/01/08 10:05:11.436,-0.028,0.028,0.988
2026/01/08 10:05:11.456,-0.027,0.02,0.993
2026/01/08 10:05:11.476,-0.029,0.026,0.993
2026/01/08 10:05:11.495,-0.029,0.024,0.989
2026/01/08 10:05:11.515,-0.028,0.023,0.993
2026/01/08 10:05:11.535,-0.029,0.022,0.992
2026/01/08 10:05:11.555,-0.028,0.022,0.988
2026/01/08 10:05:11.574,-0.029,0.022,0.993
2026/01/08 10:05:11.594,-0.03,0.027,0.994
2026/01/08 10:05:11.614,-0.027,0.03,0.991
2026/01/08 10:05:11.634,-0.024,0.025,0.991
2026/01/08 10:05:11.654,-0.029,0.024,0.991
2026/01/08 10:05:11.673,-0.027,0.024,0.993
2026/01/08 10:05:11.693,-0.025,0.025,0.991
2026/01/08 10:05:11.713,-0.024,0.025,0.988
2026/01/08 10:05:11.733,-0.029,0.021,0.991
2026/01/08 10:05:11.753,-0.024,0.026,0.993
2026/01/08 10:05:11.772,-0.029,0.029,0.994
2026/01/08 10:05:11.792,-0.028,0.032,0.99
2026/01/08 10:05:11.812,-0.03,0.025,0.991
2026/01/08 10:05:11.832,-0.028,0.026,0.991
2026/01/08 10:05:11.852,-0.027,0.022,0.991
2026/01/08 10:05:11.871,-0.028,0.026,0.992
2026/01/08 10:05:11.891,-0.029,0.029,0.987
2026/01/08 10:05:11.911,-0.028,0.027,0.991
2026/01/08 10:05:11.931,-0.029,0.027,0.988
2026/01/08 10:05:11.951,-0.028,0.025,0.993
2026/01/08 10:05:11.970,-0.028,0.026,0.987
2026/01/08 10:05:11.990,-0.026,0.021,0.991
2026/01/08 10:05:12.010,-0.026,0.025,0.992
2026/01/08 10:05:12.030,-0.026,0.026,0.993
2026/01/08 10:05:12.050,-0.027,0.023,0.994
2026/01/08 10:05:12.069,-0.032,0.023,0.99
2026/01/08 10:05:12.089,-0.029,0.025,0.992
2026/01/08 10:05:12.109,-0.03,0.022,0.992
2026/01/08 10:05:12.129,-0.03,0.023,0.992
2026/01/08 10:05:12.148,-0.024,0.026,0.992
2026/01/08 10:05:12.168,-0.028,0.025,0.991
2026/01/08 10:05:12.188,-0.028,0.025,0.993
2026/01/08 10:05:12.208,-0.027,0.022,0.993
2026/01/08 10:05:12.228,-0.028,0.025,0.995
2026/01/08 10:05:12.247,-0.029,0.026,0.991
2026/01/08 10:05:12.267,-0.029,0.025,0.993
2026/01/08 10:05:12.287,-0.029,0.025,0.991
2026/01/08 10:05:12.307,-0.027,0.028,0.988
2026/01/08 10:05:12.327,-0.029,0.027,0.995
2026/01/08 10:05:12.346,-0.03,0.025,0.993
2026/01/08 10:05:12.366,-0.026,0.026,0.991
2026/01/08 10:05:12.386,-0.03,0.024,0.99
2026/01/08 10:05:12.406,-0.026,0.03,0.993
2026/01/08 10:05:12.426,-0.03,0.026,0.992
2026/01/08 10:05:12.445,-0.025,0.026,0.988
2026/01/08 10:05:12.465,-0.027,0.023,0.994
2026/01/08 10:05:12.485,-0.026,0.025,0.99
2026/01/08 10:05:12.505,-0.029,0.025,0.989
2026/01/08 10:05:12.525,-0.028,0.026,0.991
2026/01/08 10:05:12.544,-0.028,0.024,0.992
2026/01/08 10:05:12.564,-0.03,0.022,0.991
2026/01/08 10:05:12.584,-0.03,0.026,0.989
2026/01/08 10:05:12.604,-0.027,0.027,0.992
2026/01/08 10:05:12.624,-0.026,0.024,0.992
2026/01/08 10:05:12.643,-0.028,0.025,0.993
2026/01/08 10:05:12.663,-0.028,0.024,0.991
2026/01/08 10:05:12.683,-0.027,0.027,0.991
2026/01/08 10:05:12.703,-0.028,0.028,0.993
2026/01/08 10:05:12.723,-0.028,0.026,0.992
2026/01/08 10:05:12.742,-0.028,0.028,0.99
2026/01/08 10:05:12.762,-0.029,0.024,0.992
2026/01/08 10:05:12.782,-0.03,0.025,0.992
2026/01/08 10:05:12.802,-0.028,0.022,0.992
2026/01/08 10:05:12.821,-0.03,0.024,0.994
2026/01/08 10:05:12.841,-0.026,0.024,0.987
2026/01/08 10:05:12.861,-0.028,0.025,0.991
2026/01/08 10:05:12.881,-0.028,0.026,0.992
2026/01/08 10:05:12.901,-0.028,0.026,0.991
2026/01/08 10:05:12.920,-0.024,0.026,0.99
2026/01/08 10:05:12.940,-0.031,0.024,0.991
2026/01/08 10:05:12.960,-0.028,0.027,0.994
2026/01/08 10:05:12.980,-0.03,0.024,0.988
2026/01/08 10:05:13.000,-0.028,0.025,0.993
2026/01/08 10:05:13.019,-0.028,0.024,0.992
2026/01/08 10:05:13.039,-0.029,0.022,0.99
2026/01/08 10:05:13.059,-0.03,0.023,0.996
2026/01/08 10:05:13.079,-0.031,0.023,0.994
2026/01/08 10:05:13.099,-0.025,0.024,0.991
2026/01/08 10:05:13.118,-0.024,0.024,0.99
2026/01/08 10:05:13.138,-0.028,0.025,0.993
2026/01/08 10:05:13.158,-0.026,0.025,0.995
2026/01/08 10:05:13.178,-0.027,0.026,0.995
2026/01/08 10:05:13.198,-0.027,0.024,0.991
2026/01/08 10:05:13.217,-0.03,0.026,0.992
2026/01/08 10:05:13.237,-0.025,0.026,0.988
2026/01/08 10:05:13.257,-0.03,0.028,0.993
2026/01/08 10:05:13.277,-0.032,0.023,0.99
2026/01/08 10:05:13.297,-0.027,0.026,0.99
2026/01/08 10:05:13.316,-0.028,0.027,0.992
2026/01/08 10:05:13.336,-0.028,0.028,0.991
2026/01/08 10:05:13.356,-0.027,0.027,0.991
2026/01/08 10:05:13.376,-0.028,0.024,0.991
2026/01/08 10:05:13.396,-0.028,0.026,0.993
2026/01/08 10:05:13.415,-0.029,0.023,0.995
2026/01/08 10:05:13.435,-0.029,0.026,0.992
2026/01/08 10:05:13.455,-0.029,0.027,0.993
2026/01/08 10:05:13.475,-0.026,0.024,0.99
2026/01/08 10:05:13.494,-0.026,0.024,0.991
2026/01/08 10:05:13.514,-0.023,0.026,0.99
2026/01/08 10:05:13.534,-0.029,0.027,0.99
2026/01/08 10:05:13.554,-0.026,0.027,0.99
2026/01/08 10:05:13.574,-0.026,0.022,0.988
2026/01/08 10:05:13.593,-0.029,0.026,0.989
2026/01/08 10:05:13.613,-0.03,0.023,0.992
2026/01/08 10:05:13.633,-0.029,0.029,0.993
2026/01/08 10:05:13.653,-0.026,0.024,0.993
2026/01/08 10:05:13.673,-0.024,0.025,0.994
2026/01/08 10:05:13.692,-0.031,0.027,0.99
2026/01/08 10:05:13.712,-0.027,0.024,0.991
2026/01/08 10:05:13.732,-0.026,0.022,0.991
2026/01/08 10:05:13.752,-0.028,0.026,0.988
2026/01/08 10:05:13.772,-0.027,0.028,0.988
2026/01/08 10:05:13.791,-0.03,0.026,0.99
2026/01/08 10:05:13.811,-0.026,0.025,0.987
2026/01/08 10:05:13.831,-0.024,0.022,0.992
2026/01/08 10:05:13.851,-0.027,0.027,0.993
2026/01/08 10:05:13.871,-0.028,0.026,0.992
2026/01/08 10:05:13.890,-0.025,0.025,0.989
2026/01/08 10:05:13.910,-0.026,0.027,0.991
2026/01/08 10:05:13.930,-0.029,0.024,0.992
2026/01/08 10:05:13.950,-0.032,0.023,0.99
2026/01/08 10:05:13.970,-0.027,0.024,0.994
2026/01/08 10:05:13.989,-0.027,0.023,0.989
2026/01/08 10:05:14.009,-0.034,0.02,0.99
2026/01/08 10:05:14.029,-0.028,0.023,0.989
2026/01/08 10:05:14.049,-0.028,0.028,0.991
2026/01/08 10:05:14.068,-0.028,0.023,0.989
2026/01/08 10:05:14.088,-0.028,0.023,0.992
2026/01/08 10:05:14.108,-0.026,0.022,0.991
2026/01/08 10:05:14.128,-0.026,0.023,0.993
2026/01/08 10:05:14.148,-0.024,0.025,0.991
2026/01/08 10:05:14.167,-0.028,0.024,0.994
2026/01/08 10:05:14.187,-0.028,0.027,0.991
2026/01/08 10:05:14.207,-0.025,0.025,0.994
2026/01/08 10:05:14.227,-0.028,0.031,0.992
2026/01/08 10:05:14.247,-0.028,0.027,0.991
2026/01/08 10:05:14.266,-0.03,0.027,0.994
2026/01/08 10:05:14.286,-0.032,0.028,0.993
2026/01/08 10:05:14.306,-0.026,0.024,0.99
2026/01/08 10:05:14.326,-0.025,0.025,0.994
2026/01/08 10:05:14.346,-0.027,0.029,0.993
2026/01/08 10:05:14.365,-0.029,0.023,0.99
2026/01/08 10:05:14.385,-0.032,0.026,0.994
2026/01/08 10:05:14.405,-0.029,0.025,0.992
2026/01/08 10:05:14.425,-0.025,0.025,0.99
2026/01/08 10:05:14.445,-0.026,0.023,0.994
2026/01/08 10:05:14.464,-0.028,0.025,0.992
2026/01/08 10:05:14.484,-0.028,0.026,0.994
2026/01/08 10:05:14.504,-0.029,0.024,0.991
2026/01/08 10:05:14.524,-0.026,0.024,0.996
2026/01/08 10:05:14.544,-0.028,0.023,0.989
2026/01/08 10:05:14.563,-0.025,0.019,0.995
2026/01/08 10:05:14.583,-0.028,0.021,0.995
2026/01/08 10:05:14.603,-0.025,0.027,0.988
2026/01/08 10:05:14.623,-0.03,0.023,0.991
2026/01/08 10:05:14.643,-0.029,0.026,0.994
2026/01/08 10:05:14.662,-0.029,0.028,0.994
2026/01/08 10:05:14.682,-0.026,0.026,0.991
2026/01/08 10:05:14.702,-0.027,0.025,0.992
2026/01/08 10:05:14.722,-0.028,0.026,0.992
2026/01/08 10:05:14.741,-0.026,0.027,0.992
2026/01/08 10:05:14.761,-0.028,0.024,0.989
2026/01/08 10:05:14.781,-0.03,0.028,0.991
2026/01/08 10:05:14.801,-0.03,0.026,0.991
2026/01/08 10:05:14.821,-0.027,0.025,0.991
2026/01/08 10:05:14.840,-0.026,0.025,0.99
2026/01/08 10:05:14.860,-0.028,0.026,0.992
2026/01/08 10:05:14.880,-0.028,0.026,0.99
2026/01/08 10:05:14.900,-0.028,0.027,0.989
2026/01/08 10:05:14.920,-0.028,0.023,0.993
2026/01/08 10:05:14.939,-0.028,0.026,0.993
2026/01/08 10:05:14.959,-0.03,0.025,0.995
2026/01/08 10:05:14.979,-0.032,0.023,0.991
2026/01/08 10:05:14.999,-0.029,0.029,0.993
2026/01/08 10:05:15.019,-0.024,0.021,0.993
2026/01/08 10:05:15.038,-0.028,0.026,0.99
2026/01/08 10:05:15.058,-0.03,0.026,0.99
2026/01/08 10:05:15.078,-0.025,0.025,0.992
2026/01/08 10:05:15.098,-0.028,0.024,0.992
2026/01/08 10:05:15.118,-0.028,0.025,0.99
2026/01/08 10:05:15.137,-0.026,0.026,0.989
2026/01/08 10:05:15.157,-0.027,0.028,0.989
2026/01/08 10:05:15.177,-0.027,0.027,0.991
2026/01/08 10:05:15.197,-0.026,0.023,0.991
2026/01/08 10:05:15.217,-0.025,0.029,0.99
2026/01/08 10:05:15.236,-0.028,0.025,0.991
2026/01/08 10:05:15.256,-0.03,0.022,0.992
2026/01/08 10:05:15.276,-0.029,0.026,0.989
2026/01/08 10:05:15.296,-0.025,0.024,0.991
2026/01/08 10:05:15.315,-0.028,0.03,0.993
2026/01/08 10:05:15.335,-0.028,0.024,0.989
2026/01/08 10:05:15.355,-0.026,0.026,0.99
2026/01/08 10:05:15.375,-0.028,0.025,0.99
2026/01/08 10:05:15.395,-0.027,0.024,0.993
2026/01/08 10:05:15.414,-0.028,0.022,0.988
2026/01/08 10:05:15.434,-0.031,0.024,0.99
2026/01/08 10:05:15.454,-0.029,0.025,0.989
2026/01/08 10:05:15.474,-0.03,0.025,0.991
2026/01/08 10:05:15.494,-0.028,0.02,0.992
2026/01/08 10:05:15.513,-0.029,0.024,0.992
2026/01/08 10:05:15.533,-0.028,0.025,0.992
2026/01/08 10:05:15.553,-0.03,0.026,0.992
2026/01/08 10:05:15.573,-0.029,0.027,0.989
2026/01/08 10:05:15.593,-0.028,0.02,0.993
2026/01/08 10:05:15.612,-0.024,0.023,0.995
2026/01/08 10:05:15.632,-0.028,0.025,0.993
2026/01/08 10:05:15.652,-0.027,0.026,0.992
2026/01/08 10:05:15.672,-0.029,0.022,0.992
2026/01/08 10:05:15.692,-0.029,0.026,0.993
2026/01/08 10:05:15.711,-0.028,0.025,0.991
2026/01/08 10:05:15.731,-0.028,0.024,0.992
2026/01/08 10:05:15.751,-0.027,0.026,0.992
2026/01/08 10:05:15.771,-0.028,0.027,0.99
2026/01/08 10:05:15.791,-0.03,0.026,0.993
2026/01/08 10:05:15.810,-0.028,0.023,0.994
2026/01/08 10:05:15.830,-0.027,0.024,0.99
2026/01/08 10:05:15.850,-0.031,0.024,0.989
2026/01/08 10:05:15.870,-0.025,0.027,0.991
2026/01/08 10:05:15.890,-0.027,0.028,0.991
2026/01/08 10:05:15.909,-0.027,0.022,0.993
2026/01/08 10:05:15.929,-0.027,0.023,0.992
2026/01/08 10:05:15.949,-0.026,0.022,0.989
2026/01/08 10:05:15.969,-0.028,0.025,0.988
2026/01/08 10:05:15.988,-0.028,0.025,0.989
2026/01/08 10:05:16.008,-0.028,0.022,0.993
2026/01/08 10:05:16.028,-0.029,0.027,0.992
2026/01/08 10:05:16.048,-0.029,0.026,0.99
2026/01/08 10:05:16.068,-0.028,0.027,0.989
2026/01/08 10:05:16.087,-0.029,0.026,0.987
2026/01/08 10:05:16.107,-0.028,0.024,0.989
2026/01/08 10:05:16.127,-0.027,0.026,0.993
2026/01/08 10:05:16.147,-0.027,0.025,0.996
2026/01/08 10:05:16.167,-0.029,0.023,0.992
2026/01/08 10:05:16.186,-0.028,0.025,0.994
2026/01/08 10:05:16.206,-0.024,0.026,0.992
2026/01/08 10:05:16.226,-0.025,0.025,0.992
2026/01/08 10:05:16.246,-0.028,0.026,0.993
2026/01/08 10:05:16.266,-0.029,0.024,0.99
2026/01/08 10:05:16.285,-0.028,0.024,0.99
2026/01/08 10:05:16.305,-0.029,0.025,0.988
2026/01/08 10:05:16.325,-0.03,0.026,0.991
2026/01/08 10:05:16.345,-0.029,0.028,0.99
2026/01/08 10:05:16.365,-0.029,0.027,0.991
2026/01/08 10:05:16.384,-0.028,0.027,0.993
2026/01/08 10:05:16.404,-0.024,0.021,0.992
2026/01/08 10:05:16.424,-0.03,0.024,0.992
2026/01/08 10:05:16.444,-0.031,0.028,0.991
2026/01/08 10:05:16.464,-0.027,0.026,0.991
2026/01/08 10:05:16.483,-0.027,0.023,0.992
2026/01/08 10:05:16.503,-0.027,0.024,0.991
2026/01/08 10:05:16.523,-0.026,0.026,0.99
2026/01/08 10:05:16.543,-0.024,0.026,0.993
2026/01/08 10:05:16.562,-0.026,0.022,0.992
2026/01/08 10:05:16.582,-0.025,0.025,0.99
2026/01/08 10:05:16.602,-0.027,0.025,0.989
2026/01/08 10:05:16.622,-0.026,0.022,0.992
2026/01/08 10:05:16.642,-0.028,0.024,0.989
2026/01/08 10:05:16.661,-0.025,0.025,0.989
2026/01/08 10:05:16.681,-0.028,0.025,0.991
2026/01/08 10:05:16.701,-0.026,0.021,0.99
2026/01/08 10:05:16.721,-0.028,0.026,0.994
2026/01/08 10:05:16.741,-0.027,0.025,0.993
2026/01/08 10:05:16.760,-0.024,0.028,0.99
2026/01/08 10:05:16.780,-0.032,0.023,0.992
2026/01/08 10:05:16.800,-0.029,0.024,0.992
2026/01/08 10:05:16.820,-0.028,0.023,0.991
2026/01/08 10:05:16.840,-0.028,0.023,0.991
2026/01/08 10:05:16.859,-0.029,0.025,0.991
2026/01/08 10:05:16.879,-0.027,0.026,0.993
2026/01/08 10:05:16.899,-0.03,0.024,0.994
2026/01/08 10:05:16.919,-0.025,0.021,0.99
2026/01/08 10:05:16.939,-0.03,0.026,0.987
2026/01/08 10:05:16.958,-0.028,0.025,0.993
2026/01/08 10:05:16.978,-0.027,0.022,0.991
2026/01/08 10:05:16.998,-0.029,0.022,0.991
2026/01/08 10:05:17.018,-0.028,0.025,0.992
2026/01/08 10:05:17.038,-0.027,0.028,0.99
2026/01/08 10:05:17.057,-0.029,0.023,0.988
2026/01/08 10:05:17.077,-0.029,0.019,0.991
2026/01/08 10:05:17.097,-0.027,0.024,0.99
2026/01/08 10:05:17.117,-0.026,0.026,0.991
2026/01/08 10:05:17.136,-0.027,0.022,0.989
2026/01/08 10:05:17.156,-0.03,0.025,0.991
2026/01/08 10:05:17.176,-0.028,0.026,0.992
2026/01/08 10:05:17.196,-0.026,0.023,0.992
2026/01/08 10:05:17.216,-0.027,0.025,0.99
2026/01/08 10:05:17.235,-0.035,0.027,0.993
2026/01/08 10:05:17.255,-0.026,0.023,0.992
2026/01/08 10:05:17.275,-0.028,0.027,0.989
2026/01/08 10:05:17.295,-0.028,0.025,0.991
2026/01/08 10:05:17.315,-0.025,0.022,0.991
2026/01/08 10:05:17.334,-0.026,0.021,0.988
2026/01/08 10:05:17.354,-0.031,0.026,0.993
2026/01/08 10:05:17.374,-0.029,0.026,0.991
2026/01/08 10:05:17.394,-0.031,0.022,0.996
2026/01/08 10:05:17.414,-0.028,0.024,0.994
2026/01/08 10:05:17.433,-0.029,0.027,0.99
2026/01/08 10:05:17.453,-0.031,0.021,0.991
2026/01/08 10:05:17.473,-0.032,0.022,0.99
2026/01/08 10:05:17.493,-0.029,0.024,0.993
2026/01/08 10:05:17.513,-0.028,0.028,0.99
2026/01/08 10:05:17.532,-0.025,0.025,0.99
2026/01/08 10:05:17.552,-0.03,0.024,0.989
2026/01/08 10:05:17.572,-0.028,0.022,0.991
2026/01/08 10:05:17.592,-0.029,0.022,0.991
2026/01/08 10:05:17.612,-0.028,0.021,0.991
2026/01/08 10:05:17.631,-0.03,0.025,0.992
2026/01/08 10:05:17.651,-0.028,0.028,0.988
2026/01/08 10:05:17.671,-0.031,0.028,0.988
2026/01/08 10:05:17.691,-0.03,0.024,0.991
2026/01/08 10:05:17.711,-0.026,0.026,0.988
2026/01/08 10:05:17.730,-0.029,0.025,0.993
2026/01/08 10:05:17.750,-0.029,0.027,0.991
2026/01/08 10:05:17.770,-0.032,0.023,0.99
2026/01/08 10:05:17.790,-0.031,0.026,0.992
2026/01/08 10:05:17.809,-0.027,0.023,0.988
2026/01/08 10:05:17.829,-0.026,0.028,0.99
2026/01/08 10:05:17.849,-0.029,0.021,0.99
2026/01/08 10:05:17.869,-0.026,0.025,0.99
2026/01/08 10:05:17.889,-0.025,0.027,0.991
2026/01/08 10:05:17.908,-0.029,0.023,0.991
2026/01/08 10:05:17.928,-0.03,0.022,0.994
2026/01/08 10:05:17.948,-0.027,0.027,0.994
2026/01/08 10:05:17.968,-0.025,0.025,0.992
2026/01/08 10:05:17.988,-0.026,0.024,0.991
2026/01/08 10:05:18.007,-0.027,0.027,0.993
2026/01/08 10:05:18.027,-0.029,0.026,0.991
2026/01/08 10:05:18.047,-0.028,0.027,0.989
2026/01/08 10:05:18.067,-0.03,0.027,0.995
2026/01/08 10:05:18.087,-0.028,0.025,0.99
2026/01/08 10:05:18.106,-0.029,0.024,0.993
2026/01/08 10:05:18.126,-0.025,0.029,0.992
2026/01/08 10:05:18.146,-0.028,0.026,0.991
2026/01/08 10:05:18.166,-0.027,0.024,0.993
2026/01/08 10:05:18.186,-0.027,0.026,0.992
2026/01/08 10:05:18.205,-0.031,0.024,0.99
2026/01/08 10:05:18.225,-0.026,0.028,0.99
2026/01/08 10:05:18.245,-0.029,0.025,0.99
2026/01/08 10:05:18.265,-0.028,0.025,0.992
2026/01/08 10:05:18.285,-0.028,0.023,0.991
2026/01/08 10:05:18.304,-0.027,0.022,0.992
2026/01/08 10:05:18.324,-0.029,0.021,0.989
2026/01/08 10:05:18.344,-0.029,0.027,0.992
2026/01/08 10:05:18.364,-0.03,0.025,0.992
2026/01/08 10:05:18.383,-0.027,0.026,0.992
2026/01/08 10:05:18.403,-0.027,0.028,0.992
2026/01/08 10:05:18.423,-0.028,0.028,0.992
2026/01/08 10:05:18.443,-0.028,0.026,0.989
2026/01/08 10:05:18.463,-0.023,0.025,0.991
2026/01/08 10:05:18.482,-0.029,0.025,0.993
2026/01/08 10:05:18.502,-0.028,0.023,0.992
2026/01/08 10:05:18.522,-0.027,0.022,0.99
2026/01/08 10:05:18.542,-0.029,0.027,0.989
2026/01/08 10:05:18.562,-0.031,0.027,0.989
2026/01/08 10:05:18.581,-0.029,0.025,0.99
2026/01/08 10:05:18.601,-0.03,0.024,0.992
2026/01/08 10:05:18.621,-0.027,0.024,0.99
2026/01/08 10:05:18.641,-0.029,0.023,0.99
2026/01/08 10:05:18.661,-0.027,0.026,0.988
2026/01/08 10:05:18.680,-0.028,0.024,0.99
2026/01/08 10:05:18.700,-0.032,0.025,0.992
2026/01/08 10:05:18.720,-0.026,0.024,0.993
2026/01/08 10:05:18.740,-0.025,0.026,0.991
2026/01/08 10:05:18.760,-0.027,0.024,0.992
2026/01/08 10:05:18.779,-0.028,0.024,0.988
2026/01/08 10:05:18.799,-0.029,0.025,0.994
2026/01/08 10:05:18.819,-0.027,0.025,0.991
2026/01/08 10:05:18.839,-0.026,0.024,0.992
2026/01/08 10:05:18.859,-0.029,0.028,0.993
2026/01/08 10:05:18.878,-0.029,0.026,0.995
2026/01/08 10:05:18.898,-0.03,0.026,0.991
2026/01/08 10:05:18.918,-0.025,0.027,0.991
2026/01/08 10:05:18.938,-0.029,0.026,0.992
2026/01/08 10:05:18.958,-0.025,0.021,0.992
2026/01/08 10:05:18.977,-0.025,0.023,0.989
2026/01/08 10:05:18.997,-0.029,0.03,0.992
2026/01/08 10:05:19.017,-0.027,0.025,0.99
2026/01/08 10:05:19.037,-0.03,0.026,0.991
2026/01/08 10:05:19.056,-0.025,0.024,0.988
2026/01/08 10:05:19.076,-0.028,0.024,0.989
2026/01/08 10:05:19.096,-0.027,0.024,0.989
2026/01/08 10:05:19.116,-0.025,0.023,0.992
2026/01/08 10:05:19.136,-0.03,0.026,0.992
2026/01/08 10:05:19.155,-0.026,0.03,0.993
2026/01/08 10:05:19.175,-0.026,0.022,0.991
2026/01/08 10:05:19.195,-0.027,0.024,0.992
2026/01/08 10:05:19.215,-0.027,0.03,0.994
2026/01/08 10:05:19.235,-0.024,0.025,0.99
2026/01/08 10:05:19.254,-0.028,0.027,0.993
2026/01/08 10:05:19.274,-0.029,0.024,0.994
2026/01/08 10:05:19.294,-0.029,0.022,0.993
2026/01/08 10:05:19.314,-0.028,0.023,0.988
2026/01/08 10:05:19.334,-0.029,0.031,0.99
2026/01/08 10:05:19.353,-0.028,0.026,0.991
2026/01/08 10:05:19.373,-0.024,0.025,0.992
2026/01/08 10:05:19.393,-0.026,0.023,0.99
2026/01/08 10:05:19.413,-0.028,0.024,0.993
2026/01/08 10:05:19.433,-0.028,0.026,0.991
2026/01/08 10:05:19.452,-0.028,0.023,0.993
2026/01/08 10:05:19.472,-0.028,0.024,0.988
2026/01/08 10:05:19.492,-0.031,0.029,0.991
2026/01/08 10:05:19.512,-0.026,0.025,0.989
2026/01/08 10:05:19.532,-0.032,0.023,0.995
2026/01/08 10:05:19.551,-0.022,0.026,0.99
2026/01/08 10:05:19.571,-0.03,0.024,0.993
2026/01/08 10:05:19.591,-0.027,0.026,0.99
2026/01/08 10:05:19.611,-0.027,0.025,0.99
2026/01/08 10:05:19.631,-0.026,0.025,0.993
2026/01/08 10:05:19.650,-0.023,0.025,0.993
2026/01/08 10:05:19.670,-0.03,0.03,0.995
2026/01/08 10:05:19.690,-0.021,0.029,0.978
2026/01/08 10:05:19.710,-0.028,0.021,0.996
2026/01/08 10:05:19.729,-0.025,0.024,1.013
2026/01/08 10:05:19.749,-0.032,0.027,0.979
2026/01/08 10:05:19.769,-0.025,0.02,0.991
2026/01/08 10:05:19.789,-0.022,0.03,0.995
2026/01/08 10:05:19.809,-0.019,0.016,1.002
2026/01/08 10:05:19.828,-0.03,0.03,0.971
2026/01/08 10:05:19.848,-0.027,0.027,0.978
2026/01/08 10:05:19.868,-0.027,0.022,0.992
2026/01/08 10:05:19.888,-0.017,0.042,0.949
2026/01/08 10:05:19.908,-0.036,0.038,0.998
2026/01/08 10:05:19.927,-0.023,0.03,0.971
2026/01/08 10:05:19.947,-0.028,0.025,0.984
2026/01/08 10:05:19.967,-0.016,0.022,0.946
2026/01/08 10:05:19.987,-0.037,0.035,1.014
2026/01/08 10:05:20.007,-0.023,0.027,0.982
2026/01/08 10:05:20.026,-0.011,0.007,0.981
2026/01/08 10:05:20.046,-0.013,0.069,0.941
2026/01/08 10:05:20.066,-0.048,0.014,1.001
2026/01/08 10:05:20.086,-0.014,0.02,0.984
2026/01/08 10:05:20.106,-0.025,0.033,0.981
2026/01/08 10:05:20.125,-0.033,0.03,1.012
2026/01/08 10:05:20.145,-0.025,0.026,1.03
2026/01/08 10:05:20.165,-0.009,0.019,0.973
2026/01/08 10:05:20.185,-0.019,0.022,0.999
2026/01/08 10:05:20.205,-0.028,0.019,0.968
2026/01/08 10:05:20.224,-0.028,0.032,1.004
2026/01/08 10:05:20.244,-0.017,0.035,1.006
2026/01/08 10:05:20.264,-0.018,0.024,0.981
2026/01/08 10:05:20.284,-0.022,0.019,0.989
2026/01/08 10:05:20.303,-0.019,0.027,0.988
2026/01/08 10:05:20.323,-0.016,0.029,1.004
2026/01/08 10:05:20.343,-0.018,0.027,0.986
2026/01/08 10:05:20.363,-0.018,0.03,0.994
2026/01/08 10:05:20.383,-0.02,0.029,0.997
2026/01/08 10:05:20.402,-0.018,0.032,0.989
2026/01/08 10:05:20.422,-0.016,0.031,1.0
2026/01/08 10:05:20.442,-0.014,0.032,0.995
2026/01/08 10:05:20.462,-0.016,0.027,0.99
2026/01/08 10:05:20.482,-0.025,0.025,0.986
2026/01/08 10:05:20.501,-0.02,0.028,0.991
2026/01/08 10:05:20.521,-0.018,0.032,0.997
2026/01/08 10:05:20.541,-0.016,0.03,0.988
2026/01/08 10:05:20.561,-0.02,0.028,0.999
2026/01/08 10:05:20.581,-0.022,0.022,0.992
2026/01/08 10:05:20.600,-0.023,0.029,0.988
2026/01/08 10:05:20.620,-0.014,0.033,0.997
2026/01/08 10:05:20.640,-0.017,0.03,0.992
2026/01/08 10:05:20.660,-0.02,0.032,0.985
2026/01/08 10:05:20.680,-0.029,0.029,0.993
2026/01/08 10:05:20.699,-0.018,0.033,0.992
2026/01/08 10:05:20.719,-0.016,0.032,0.996
2026/01/08 10:05:20.739,-0.013,0.028,0.987
2026/01/08 10:05:20.759,-0.018,0.022,0.991
2026/01/08 10:05:20.779,-0.026,0.024,0.995
2026/01/08 10:05:20.798,-0.023,0.028,0.996
2026/01/08 10:05:20.818,-0.017,0.032,0.99
2026/01/08 10:05:20.838,-0.013,0.029,0.99
2026/01/08 10:05:20.858,-0.015,0.028,0.991
2026/01/08 10:05:20.878,-0.02,0.028,0.993
2026/01/08 10:05:20.897,-0.025,0.027,0.991
2026/01/08 10:05:20.917,-0.026,0.027,0.986
2026/01/08 10:05:20.937,-0.016,0.028,0.987
2026/01/08 10:05:20.957,-0.013,0.031,0.993
2026/01/08 10:05:20.976,-0.01,0.03,0.996
2026/01/08 10:05:20.996,-0.02,0.027,0.991
2026/01/08 10:05:21.016,-0.025,0.031,0.996
2026/01/08 10:05:21.036,-0.019,0.033,0.996
2026/01/08 10:05:21.056,-0.011,0.029,0.988
2026/01/08 10:05:21.075,-0.016,0.032,0.993
2026/01/08 10:05:21.095,-0.018,0.026,0.992
2026/01/08 10:05:21.115,-0.025,0.027,0.992
2026/01/08 10:05:21.135,-0.022,0.029,0.993
2026/01/08 10:05:21.155,-0.014,0.03,0.994
2026/01/08 10:05:21.174,-0.015,0.033,0.988
2026/01/08 10:05:21.194,-0.015,0.031,0.997
2026/01/08 10:05:21.214,-0.022,0.03,0.995
2026/01/08 10:05:21.234,-0.018,0.027,0.991
2026/01/08 10:05:21.254,-0.015,0.029,0.98
2026/01/08 10:05:21.273,-0.021,0.024,0.992
2026/01/08 10:05:21.293,-0.022,0.027,0.994
2026/01/08 10:05:21.313,-0.014,0.027,0.99
2026/01/08 10:05:21.333,-0.016,0.033,0.991
2026/01/08 10:05:21.353,-0.017,0.032,0.988
2026/01/08 10:05:21.372,-0.019,0.03,0.996
2026/01/08 10:05:21.392,-0.018,0.028,0.992
2026/01/08 10:05:21.412,-0.017,0.027,0.991
2026/01/08 10:05:21.432,-0.014,0.027,0.991
2026/01/08 10:05:21.452,-0.016,0.03,0.993
2026/01/08 10:05:21.471,-0.015,0.023,0.989
2026/01/08 10:05:21.491,-0.022,0.032,0.993
2026/01/08 10:05:21.511,-0.023,0.031,0.994
2026/01/08 10:05:21.531,-0.018,0.034,0.995
2026/01/08 10:05:21.550,-0.015,0.029,0.99
2026/01/08 10:05:21.570,-0.014,0.028,0.986
2026/01/08 10:05:21.590,-0.024,0.026,0.992
2026/01/08 10:05:21.610,-0.028,0.026,0.993
2026/01/08 10:05:21.630,-0.024,0.035,0.995
2026/01/08 10:05:21.649,-0.013,0.032,0.992
2026/01/08 10:05:21.669,-0.011,0.03,0.99
2026/01/08 10:05:21.689,-0.016,0.031,0.99
2026/01/08 10:05:21.709,-0.021,0.025,0.992
2026/01/08 10:05:21.729,-0.022,0.027,0.986
2026/01/08 10:05:21.748,-0.018,0.027,0.99
2026/01/08 10:05:21.768,-0.02,0.031,0.996
2026/01/08 10:05:21.788,-0.018,0.024,0.994
2026/01/08 10:05:21.808,-0.017,0.028,0.994
2026/01/08 10:05:21.828,-0.021,0.026,0.994
2026/01/08 10:05:21.847,-0.024,0.026,0.993
2026/01/08 10:05:21.867,-0.02,0.029,0.984
2026/01/08 10:05:21.887,-0.018,0.031,0.987
2026/01/08 10:05:21.907,-0.018,0.03,0.991
2026/01/08 10:05:21.927,-0.018,0.033,0.994
2026/01/08 10:05:21.946,-0.022,0.029,0.99
2026/01/08 10:05:21.966,-0.021,0.025,0.983
2026/01/08 10:05:21.986,-0.02,0.026,0.995
2026/01/08 10:05:22.006,-0.015,0.029,0.994
2026/01/08 10:05:22.026,-0.014,0.033,0.991
2026/01/08 10:05:22.045,-0.015,0.031,0.987
2026/01/08 10:05:22.065,-0.019,0.032,0.996
2026/01/08 10:05:22.085,-0.023,0.026,0.987
2026/01/08 10:05:22.105,-0.024,0.031,0.989
2026/01/08 10:05:22.124,-0.017,0.029,0.997
2026/01/08 10:05:22.144,-0.013,0.03,0.989
2026/01/08 10:05:22.164,-0.019,0.024,0.991
2026/01/08 10:05:22.184,-0.022,0.023,0.989
2026/01/08 10:05:22.204,-0.023,0.026,0.99
2026/01/08 10:05:22.223,-0.016,0.029,0.994
2026/01/08 10:05:22.243,-0.012,0.035,0.991
2026/01/08 10:05:22.263,-0.017,0.03,0.993
2026/01/08 10:05:22.283,-0.018,0.025,0.988
2026/01/08 10:05:22.303,-0.023,0.025,0.992
2026/01/08 10:05:22.322,-0.021,0.023,0.991
2026/01/08 10:05:22.342,-0.016,0.028,0.991
2026/01/08 10:05:22.362,-0.013,0.039,0.99
2026/01/08 10:05:22.382,-0.022,0.027,0.992
2026/01/08 10:05:22.402,-0.024,0.028,0.989
2026/01/08 10:05:22.421,-0.022,0.032,0.991
2026/01/08 10:05:22.441,-0.02,0.027,0.991
2026/01/08 10:05:22.461,-0.016,0.028,0.988
2026/01/08 10:05:22.481,-0.016,0.031,0.988
2026/01/08 10:05:22.501,-0.02,0.03,0.989
2026/01/08 10:05:22.520,-0.024,0.028,0.993
2026/01/08 10:05:22.540,-0.023,0.03,0.992
2026/01/08 10:05:22.560,-0.013,0.031,0.988
2026/01/08 10:05:22.580,-0.018,0.028,0.991
2026/01/08 10:05:22.600,-0.019,0.03,0.993
2026/01/08 10:05:22.619,-0.022,0.03,0.996
2026/01/08 10:05:22.639,-0.021,0.024,0.993
2026/01/08 10:05:22.659,-0.02,0.025,0.989
2026/01/08 10:05:22.679,-0.017,0.024,0.985
2026/01/08 10:05:22.699,-0.023,0.027,0.992
2026/01/08 10:05:22.718,-0.018,0.033,0.993
2026/01/08 10:05:22.738,-0.016,0.029,0.988
2026/01/08 10:05:22.758,-0.017,0.032,0.991
2026/01/08 10:05:22.778,-0.02,0.028,0.995
2026/01/08 10:05:22.797,-0.018,0.027,0.993
2026/01/08 10:05:22.817,-0.016,0.028,0.99
2026/01/08 10:05:22.837,-0.017,0.027,0.987
2026/01/08 10:05:22.857,-0.017,0.03,0.989
2026/01/08 10:05:22.877,-0.02,0.032,0.993
2026/01/08 10:05:22.896,-0.021,0.031,0.989
2026/01/08 10:05:22.916,-0.018,0.031,0.991
2026/01/08 10:05:22.936,-0.017,0.025,0.988
2026/01/08 10:05:22.956,-0.019,0.022,0.992
2026/01/08 10:05:22.976,-0.019,0.026,0.992
2026/01/08 10:05:22.995,-0.015,0.033,0.99
2026/01/08 10:05:23.015,-0.019,0.036,0.987
2026/01/08 10:05:23.035,-0.019,0.031,0.99
2026/01/08 10:05:23.055,-0.018,0.026,0.989
2026/01/08 10:05:23.075,-0.018,0.025,0.989
2026/01/08 10:05:23.094,-0.017,0.028,0.989
2026/01/08 10:05:23.114,-0.019,0.027,0.993
2026/01/08 10:05:23.134,-0.02,0.033,0.989
2026/01/08 10:05:23.154,-0.02,0.034,0.99
2026/01/08 10:05:23.174,-0.019,0.033,0.99
2026/01/08 10:05:23.193,-0.018,0.03,0.993
2026/01/08 10:05:23.213,-0.016,0.029,0.989
2026/01/08 10:05:23.233,-0.02,0.019,0.987
2026/01/08 10:05:23.253,-0.018,0.027,0.991
2026/01/08 10:05:23.272,-0.016,0.029,0.997
2026/01/08 10:05:23.292,-0.019,0.028,0.996
2026/01/08 10:05:23.312,-0.018,0.034,0.986
2026/01/08 10:05:23.332,-0.019,0.032,0.992
2026/01/08 10:05:23.352,-0.023,0.032,0.992
2026/01/08 10:05:23.371,-0.022,0.029,0.998
2026/01/08 10:05:23.391,-0.018,0.029,0.993
2026/01/08 10:05:23.411,-0.014,0.029,0.989
2026/01/08 10:05:23.431,-0.017,0.032,0.987
2026/01/08 10:05:23.451,-0.024,0.031,0.989
2026/01/08 10:05:23.470,-0.023,0.03,0.986
2026/01/08 10:05:23.490,-0.019,0.031,0.988
2026/01/08 10:05:23.510,-0.018,0.03,0.993
2026/01/08 10:05:23.530,-0.015,0.032,0.996
2026/01/08 10:05:23.550,-0.02,0.029,0.994
2026/01/08 10:05:23.569,-0.015,0.025,0.994
2026/01/08 10:05:23.589,-0.017,0.028,0.987
2026/01/08 10:05:23.609,-0.024,0.028,0.991
2026/01/08 10:05:23.629,-0.019,0.032,0.989
2026/01/08 10:05:23.649,-0.016,0.032,0.989
2026/01/08 10:05:23.668,-0.015,0.031,0.989
2026/01/08 10:05:23.688,-0.018,0.028,0.992
2026/01/08 10:05:23.708,-0.02,0.028,0.99
2026/01/08 10:05:23.728,-0.019,0.03,0.992
2026/01/08 10:05:23.748,-0.013,0.03,0.989
2026/01/08 10:05:23.767,-0.019,0.032,0.989
2026/01/08 10:05:23.787,-0.017,0.028,0.995
2026/01/08 10:05:23.807,-0.018,0.029,0.989
2026/01/08 10:05:23.827,-0.015,0.028,0.99
2026/01/08 10:05:23.846,-0.024,0.031,0.987
2026/01/08 10:05:23.866,-0.018,0.032,0.993
2026/01/08 10:05:23.886,-0.024,0.032,0.994
2026/01/08 10:05:23.906,-0.019,0.032,0.991
2026/01/08 10:05:23.926,-0.018,0.033,0.988
2026/01/08 10:05:23.945,-0.018,0.029,0.99
2026/01/08 10:05:23.965,-0.02,0.026,0.994
2026/01/08 10:05:23.985,-0.021,0.027,0.99
2026/01/08 10:05:24.005,-0.019,0.032,0.993
2026/01/08 10:05:24.025,-0.015,0.031,0.991
2026/01/08 10:05:24.044,-0.018,0.032,0.992
2026/01/08 10:05:24.064,-0.016,0.032,0.993
2026/01/08 10:05:24.084,-0.018,0.029,0.993
2026/01/08 10:05:24.104,-0.017,0.026,0.993
2026/01/08 10:05:24.124,-0.021,0.027,0.988
2026/01/08 10:05:24.143,-0.018,0.029,0.995
2026/01/08 10:05:24.163,-0.018,0.029,0.991
2026/01/08 10:05:24.183,-0.018,0.034,0.99
2026/01/08 10:05:24.203,-0.02,0.029,0.99
2026/01/08 10:05:24.223,-0.02,0.027,0.991
2026/01/08 10:05:24.242,-0.023,0.029,0.993
2026/01/08 10:05:24.262,-0.016,0.029,0.996
2026/01/08 10:05:24.282,-0.017,0.032,0.994
2026/01/08 10:05:24.302,-0.016,0.028,0.991
2026/01/08 10:05:24.321,-0.02,0.029,0.993
2026/01/08 10:05:24.341,-0.024,0.027,0.991
2026/01/08 10:05:24.361,-0.019,0.029,0.99
2026/01/08 10:05:24.381,-0.019,0.031,0.993
2026/01/08 10:05:24.401,-0.02,0.032,0.993
2026/01/08 10:05:24.420,-0.017,0.03,0.988
2026/01/08 10:05:24.440,-0.017,0.028,0.993
2026/01/08 10:05:24.460,-0.017,0.03,0.994
2026/01/08 10:05:24.480,-0.017,0.029,0.993
2026/01/08 10:05:24.500,-0.019,0.027,0.994
2026/01/08 10:05:24.519,-0.017,0.028,0.989
2026/01/08 10:05:24.539,-0.014,0.032,0.992
2026/01/08 10:05:24.559,-0.019,0.03,0.993
2026/01/08 10:05:24.579,-0.017,0.029,0.988
2026/01/08 10:05:24.599,-0.019,0.027,0.984
2026/01/08 10:05:24.618,-0.018,0.03,0.993
2026/01/08 10:05:24.638,-0.016,0.028,0.996
2026/01/08 10:05:24.658,-0.022,0.03,0.989
2026/01/08 10:05:24.678,-0.021,0.033,0.991
2026/01/08 10:05:24.698,-0.018,0.035,0.996
2026/01/08 10:05:24.717,-0.019,0.032,0.993
2026/01/08 10:05:24.737,-0.019,0.027,0.99
2026/01/08 10:05:24.757,-0.016,0.024,0.992
2026/01/08 10:05:24.777,-0.019,0.028,0.989
2026/01/08 10:05:24.797,-0.02,0.031,0.994
2026/01/08 10:05:24.816,-0.016,0.026,0.99
2026/01/08 10:05:24.836,-0.017,0.029,0.989
2026/01/08 10:05:24.856,-0.02,0.03,0.986
2026/01/08 10:05:24.876,-0.022,0.028,0.991
2026/01/08 10:05:24.895,-0.018,0.027,0.989
2026/01/08 10:05:24.915,-0.015,0.028,0.989
2026/01/08 10:05:24.935,-0.017,0.028,0.991
2026/01/08 10:05:24.955,-0.018,0.029,0.99
2026/01/08 10:05:24.975,-0.018,0.034,0.994
2026/01/08 10:05:24.994,-0.018,0.026,0.991
2026/01/08 10:05:25.014,-0.017,0.027,0.993
2026/01/08 10:05:25.034,-0.017,0.03,0.99
2026/01/08 10:05:25.054,-0.019,0.029,0.986
2026/01/08 10:05:25.074,-0.018,0.029,0.987
2026/01/08 10:05:25.093,-0.022,0.031,0.993
2026/01/08 10:05:25.113,-0.023,0.032,0.997
2026/01/08 10:05:25.133,-0.015,0.031,0.998
2026/01/08 10:05:25.153,-0.012,0.031,0.992
2026/01/08 10:05:25.173,-0.013,0.026,0.991
2026/01/08 10:05:25.192,-0.022,0.031,0.988
2026/01/08 10:05:25.212,-0.023,0.032,0.992
2026/01/08 10:05:25.232,-0.021,0.033,0.991
2026/01/08 10:05:25.252,-0.019,0.033,0.99
2026/01/08 10:05:25.272,-0.018,0.029,0.989
2026/01/08 10:05:25.291,-0.018,0.023,0.993
2026/01/08 10:05:25.311,-0.02,0.023,0.989
2026/01/08 10:05:25.331,-0.02,0.029,0.992
2026/01/08 10:05:25.351,-0.02,0.032,0.993
2026/01/08 10:05:25.370,-0.017,0.039,0.992
2026/01/08 10:05:25.390,-0.016,0.033,0.991
2026/01/08 10:05:25.410,-0.019,0.025,0.992
2026/01/08 10:05:25.430,-0.019,0.026,0.989
2026/01/08 10:05:25.450,-0.016,0.017,0.986
2026/01/08 10:05:25.469,-0.019,0.025,0.987
2026/01/08 10:05:25.489,-0.017,0.033,0.992
2026/01/08 10:05:25.509,-0.019,0.04,0.998
2026/01/08 10:05:25.529,-0.017,0.037,0.995
2026/01/08 10:05:25.549,-0.016,0.033,0.99
2026/01/08 10:05:25.568,-0.018,0.029,0.989
2026/01/08 10:05:25.588,-0.013,0.024,0.988
2026/01/08 10:05:25.608,-0.017,0.023,0.993
2026/01/08 10:05:25.628,-0.013,0.025,0.993
2026/01/08 10:05:25.648,-0.018,0.029,0.986
2026/01/08 10:05:25.667,-0.02,0.032,0.994
2026/01/08 10:05:25.687,-0.018,0.029,0.993
2026/01/08 10:05:25.707,-0.018,0.034,0.992
2026/01/08 10:05:25.727,-0.018,0.029,0.984
2026/01/08 10:05:25.747,-0.019,0.032,0.996
2026/01/08 10:05:25.766,-0.017,0.028,0.989
2026/01/08 10:05:25.786,-0.016,0.033,0.999
2026/01/08 10:05:25.806,-0.01,0.035,0.977
2026/01/08 10:05:25.826,-0.018,0.029,0.995
2026/01/08 10:05:25.846,-0.023,0.029,0.988
2026/01/08 10:05:25.865,-0.024,0.026,0.993
2026/01/08 10:05:25.885,-0.016,0.026,0.992
2026/01/08 10:05:25.905,-0.018,0.029,0.985
2026/01/08 10:05:25.925,-0.018,0.028,0.999
2026/01/08 10:05:25.945,-0.016,0.029,0.989
2026/01/08 10:05:25.964,-0.028,0.029,0.998
2026/01/08 10:05:25.984,-0.019,0.025,0.997
2026/01/08 10:05:26.004,-0.016,0.034,0.995
2026/01/08 10:05:26.024,-0.016,0.03,0.997
2026/01/08 10:05:26.044,-0.019,0.03,0.996
2026/01/08 10:05:26.063,-0.018,0.033,1.01
2026/01/08 10:05:26.083,-0.021,0.03,0.995
2026/01/08 10:05:26.103,-0.027,0.03,0.992
2026/01/08 10:05:26.123,-0.027,0.025,0.987
2026/01/08 10:05:26.142,-0.024,0.029,0.973
2026/01/08 10:05:26.162,-0.025,0.021,0.992
2026/01/08 10:05:26.182,-0.024,0.028,0.987
2026/01/08 10:05:26.202,-0.03,0.027,1.02
2026/01/08 10:05:26.222,-0.021,0.03,0.988
2026/01/08 10:05:26.241,-0.043,0.032,0.952
2026/01/08 10:05:26.261,-0.042,0.016,0.986
2026/01/08 10:05:26.281,-0.022,0.026,0.998
2026/01/08 10:05:26.301,-0.034,0.024,0.996
2026/01/08 10:05:26.321,-0.025,0.027,0.993
2026/01/08 10:05:26.340,-0.029,0.017,0.975
2026/01/08 10:05:26.360,-0.028,0.019,0.999
2026/01/08 10:05:26.380,-0.024,0.022,0.982
2026/01/08 10:05:26.400,-0.03,0.024,0.991
2026/01/08 10:05:26.420,-0.031,0.022,0.995
2026/01/08 10:05:26.439,-0.027,0.025,0.987
2026/01/08 10:05:26.459,-0.026,0.024,0.989
2026/01/08 10:05:26.479,-0.033,0.026,0.989
2026/01/08 10:05:26.499,-0.023,0.025,0.994
2026/01/08 10:05:26.519,-0.028,0.03,0.99
2026/01/08 10:05:26.538,-0.031,0.025,0.993
2026/01/08 10:05:26.558,-0.027,0.025,0.988
2026/01/08 10:05:26.578,-0.025,0.028,0.995
2026/01/08 10:05:26.598,-0.027,0.025,0.992
2026/01/08 10:05:26.618,-0.028,0.024,0.988
2026/01/08 10:05:26.637,-0.03,0.023,0.997
2026/01/08 10:05:26.657,-0.024,0.024,0.987
2026/01/08 10:05:26.677,-0.029,0.022,0.993
2026/01/08 10:05:26.697,-0.031,0.026,0.988
2026/01/08 10:05:26.717,-0.031,0.026,0.991
2026/01/08 10:05:26.736,-0.031,0.029,0.993
2026/01/08 10:05:26.756,-0.027,0.025,0.987
2026/01/08 10:05:26.776,-0.028,0.025,0.992
2026/01/08 10:05:26.796,-0.024,0.023,0.99
2026/01/08 10:05:26.815,-0.027,0.029,0.992
2026/01/08 10:05:26.835,-0.026,0.024,0.992
2026/01/08 10:05:26.855,-0.024,0.025,0.993
2026/01/08 10:05:26.875,-0.026,0.024,0.988
2026/01/08 10:05:26.895,-0.029,0.026,0.995
2026/01/08 10:05:26.914,-0.028,0.025,0.992
2026/01/08 10:05:26.934,-0.026,0.023,0.993
2026/01/08 10:05:26.954,-0.026,0.022,0.986
2026/01/08 10:05:26.974,-0.027,0.029,0.99
2026/01/08 10:05:26.994,-0.027,0.024,0.989
2026/01/08 10:05:27.013,-0.026,0.024,0.993
2026/01/08 10:05:27.033,-0.028,0.024,0.993
2026/01/08 10:05:27.053,-0.029,0.024,0.993
2026/01/08 10:05:27.073,-0.026,0.024,0.989
2026/01/08 10:05:27.093,-0.029,0.028,0.995
2026/01/08 10:05:27.112,-0.029,0.023,0.99
2026/01/08 10:05:27.132,-0.028,0.028,0.991
2026/01/08 10:05:27.152,-0.027,0.025,0.993
2026/01/08 10:05:27.172,-0.028,0.03,0.993
2026/01/08 10:05:27.192,-0.029,0.026,0.992
2026/01/08 10:05:27.211,-0.027,0.024,0.992
2026/01/08 10:05:27.231,-0.027,0.025,0.989
2026/01/08 10:05:27.251,-0.023,0.026,0.993
2026/01/08 10:05:27.271,-0.032,0.022,0.992
2026/01/08 10:05:27.291,-0.03,0.027,0.993
2026/01/08 10:05:27.310,-0.026,0.032,0.997
2026/01/08 10:05:27.330,-0.027,0.026,0.991
2026/01/08 10:05:27.350,-0.028,0.028,0.992
2026/01/08 10:05:27.370,-0.027,0.024,0.991
2026/01/08 10:05:27.390,-0.028,0.025,0.991
2026/01/08 10:05:27.409,-0.03,0.027,0.992
2026/01/08 10:05:27.429,-0.029,0.024,0.99
2026/01/08 10:05:27.449,-0.03,0.028,0.991
2026/01/08 10:05:27.469,-0.023,0.025,0.991
2026/01/08 10:05:27.488,-0.027,0.021,0.99
2026/01/08 10:05:27.508,-0.026,0.026,0.992
2026/01/08 10:05:27.528,-0.029,0.028,0.992
2026/01/08 10:05:27.548,-0.028,0.025,0.995
2026/01/08 10:05:27.568,-0.027,0.024,0.992
2026/01/08 10:05:27.587,-0.03,0.025,0.992
2026/01/08 10:05:27.607,-0.026,0.025,0.993
2026/01/08 10:05:27.627,-0.029,0.027,0.986
2026/01/08 10:05:27.647,-0.028,0.024,0.994
2026/01/08 10:05:27.667,-0.029,0.028,0.991
2026/01/08 10:05:27.686,-0.025,0.024,0.992
2026/01/08 10:05:27.706,-0.029,0.024,0.993
2026/01/08 10:05:27.726,-0.029,0.024,0.994
2026/01/08 10:05:27.746,-0.028,0.026,0.99
2026/01/08 10:05:27.766,-0.026,0.024,0.993
2026/01/08 10:05:27.785,-0.025,0.025,0.993
2026/01/08 10:05:27.805,-0.028,0.028,0.992
2026/01/08 10:05:27.825,-0.028,0.024,0.993
2026/01/08 10:05:27.845,-0.028,0.028,0.99
2026/01/08 10:05:27.865,-0.028,0.026,0.989
2026/01/08 10:05:27.884,-0.023,0.026,0.984
2026/01/08 10:05:27.904,-0.022,0.027,1.037
2026/01/08 10:05:27.924,-0.01,0.006,0.991
2026/01/08 10:05:27.944,-0.037,0.017,0.997
2026/01/08 10:05:27.964,-0.012,0.039,0.981
2026/01/08 10:05:27.983,-0.017,0.022,0.966
2026/01/08 10:05:28.003,-0.034,0.02,1.03
2026/01/08 10:05:28.023,-0.029,0.026,0.993
2026/01/08 10:05:28.043,-0.034,0.015,1.021
2026/01/08 10:05:28.063,-0.023,0.015,0.976
2026/01/08 10:05:28.082,-0.019,0.028,0.978
2026/01/08 10:05:28.102,-0.035,0.032,1.023
2026/01/08 10:05:28.122,-0.024,0.02,0.995
2026/01/08 10:05:28.142,-0.028,0.022,0.993
2026/01/08 10:05:28.162,-0.028,0.028,0.995
2026/01/08 10:05:28.181,-0.028,0.024,0.995
2026/01/08 10:05:28.201,-0.029,0.026,0.995
2026/01/08 10:05:28.221,-0.025,0.023,0.991
2026/01/08 10:05:28.241,-0.026,0.022,0.991
2026/01/08 10:05:28.260,-0.03,0.028,0.991
2026/01/08 10:05:28.280,-0.027,0.025,0.99
2026/01/08 10:05:28.300,-0.028,0.026,0.991
2026/01/08 10:05:28.320,-0.029,0.021,0.991
2026/01/08 10:05:28.340,-0.023,0.024,0.992
2026/01/08 10:05:28.359,-0.029,0.028,0.993
2026/01/08 10:05:28.379,-0.028,0.027,0.992
2026/01/08 10:05:28.399,-0.025,0.024,0.989
2026/01/08 10:05:28.419,-0.027,0.025,0.992
2026/01/08 10:05:28.439,-0.031,0.023,0.988
2026/01/08 10:05:28.458,-0.025,0.023,0.994
2026/01/08 10:05:28.478,-0.028,0.026,0.991
2026/01/08 10:05:28.498,-0.029,0.025,0.995
2026/01/08 10:05:28.518,-0.03,0.026,0.993
2026/01/08 10:05:28.538,-0.027,0.025,0.994
2026/01/08 10:05:28.557,-0.029,0.022,1.02
2026/01/08 10:05:28.577,-0.027,0.026,0.987
2026/01/08 10:05:28.597,-0.024,0.026,0.975
2026/01/08 10:05:28.617,-0.032,0.022,1.0
2026/01/08 10:05:28.637,-0.025,0.027,0.981
2026/01/08 10:05:28.656,-0.018,0.027,0.963
2026/01/08 10:05:28.676,-0.044,0.014,0.978
2026/01/08 10:05:28.696,-0.032,0.031,0.979
2026/01/08 10:05:28.716,-0.028,0.033,0.968
2026/01/08 10:05:28.736,-0.032,0.016,1.044
2026/01/08 10:05:28.755,-0.029,0.043,0.902
2026/01/08 10:05:28.775,-0.007,0.037,1.04
2026/01/08 10:05:28.795,-0.025,0.037,0.996
2026/01/08 10:05:28.815,-0.033,0.027,1.036
2026/01/08 10:05:28.835,-0.039,0.031,1.02
2026/01/08 10:05:28.854,-0.028,0.029,0.932
2026/01/08 10:05:28.874,-0.004,0.033,0.923
2026/01/08 10:05:28.894,-0.014,0.038,0.934
2026/01/08 10:05:28.914,-0.032,0.028,0.946
2026/01/08 10:05:28.934,-0.043,0.042,0.978
2026/01/08 10:05:28.953,-0.019,0.033,1.03
2026/01/08 10:05:28.973,-0.057,0.015,0.933
2026/01/08 10:05:28.993,-0.03,0.022,0.974
2026/01/08 10:05:29.013,-0.048,0.08,1.137
2026/01/08 10:05:29.032,-0.01,0.024,0.947
2026/01/08 10:05:29.052,-0.039,0.02,0.968
2026/01/08 10:05:29.072,-0.045,0.027,1.003
2026/01/08 10:05:29.092,-0.029,0.023,1.014
2026/01/08 10:05:29.112,-0.294,-0.124,1.492
2026/01/08 10:05:29.131,-0.072,0.012,1.291
2026/01/08 10:05:29.151,-0.005,0.103,0.858
2026/01/08 10:05:29.171,-0.034,0.002,0.98
2026/01/08 10:05:29.191,-0.034,0.027,0.984
2026/01/08 10:05:29.211,-0.029,0.026,0.989
2026/01/08 10:05:29.230,-0.031,0.027,0.983
2026/01/08 10:05:29.250,-0.028,0.024,1.0
2026/01/08 10:05:29.270,-0.026,0.023,0.996
2026/01/08 10:05:29.290,-0.027,0.028,0.992
2026/01/08 10:05:29.310,-0.028,0.029,0.991
2026/01/08 10:05:29.329,-0.026,0.024,0.984
2026/01/08 10:05:29.349,-0.024,0.025,0.986
2026/01/08 10:05:29.369,-0.03,0.03,0.989
2026/01/08 10:05:29.389,-0.026,0.021,0.992
2026/01/08 10:05:29.409,-0.031,0.027,0.995
2026/01/08 10:05:29.428,-0.024,0.027,0.985
2026/01/08 10:05:29.448,-0.026,0.025,0.997
2026/01/08 10:05:29.468,-0.03,0.025,0.99
2026/01/08 10:05:29.488,-0.025,0.022,0.99
2026/01/08 10:05:29.508,-0.03,0.03,0.988
2026/01/08 10:05:29.527,-0.028,0.023,0.992
2026/01/08 10:05:29.547,-0.027,0.023,0.991
2026/01/08 10:05:29.567,-0.028,0.024,0.992
2026/01/08 10:05:29.587,-0.029,0.026,0.988
2026/01/08 10:05:29.607,-0.025,0.024,0.993
2026/01/08 10:05:29.626,-0.025,0.028,0.988
2026/01/08 10:05:29.646,-0.027,0.028,0.994
2026/01/08 10:05:29.666,-0.025,0.028,0.992
2026/01/08 10:05:29.686,-0.028,0.026,0.992
2026/01/08 10:05:29.706,-0.027,0.029,0.989
