Timestamp,ACC X,ACC Y,ACC Z
2026/01/08 10:03:14.832,0.017,0.005,1.015
2026/01/08 10:03:14.852,0.01,0.007,1.025
2026/01/08 10:03:14.871,0.006,-0.004,1.005
2026/01/08 10:03:14.890,-0.001,0.001,0.967
2026/01/08 10:03:14.909,-0.004,0.008,0.99
2026/01/08 10:03:14.929,0.002,-0.001,1.002
2026/01/08 10:03:14.948,0.014,0.001,1.003
2026/01/08 10:03:14.967,0.014,0.013,1.002
2026/01/08 10:03:14.986,0.011,0.003,0.991
2026/01/08 10:03:15.006,-0.003,0.004,0.991
2026/01/08 10:03:15.025,0.003,0.0,0.997
2026/01/08 10:03:15.044,0.004,0.003,1.011
2026/01/08 10:03:15.063,-0.005,-0.003,1.015
2026/01/08 10:03:15.082,0.008,0.001,1.001
2026/01/08 10:03:15.102,0.007,-0.003,0.99
2026/01/08 10:03:15.121,0.011,0.003,0.995
2026/01/08 10:03:15.140,0.007,-0.001,1.005
2026/01/08 10:03:15.159,0.006,0.005,0.984
2026/01/08 10:03:15.179,-0.002,-0.003,1.011
2026/01/08 10:03:15.198,0.005,0.001,1.004
2026/01/08 10:03:15.217,0.007,0.006,0.993
2026/01/08 10:03:15.236,0.005,0.001,0.993
2026/01/08 10:03:15.256,0.004,0.002,0.994
2026/01/08 10:03:15.275,0.004,0.004,1.004
2026/01/08 10:03:15.294,0.007,-0.002,1.002
2026/01/08 10:03:15.313,0.003,0.005,0.997
2026/01/08 10:03:15.332,0.004,-0.001,1.003
2026/01/08 10:03:15.352,0.005,0.004,1.002
2026/01/08 10:03:15.371,0.0,0.0,1.004
2026/01/08 10:03:15.390,0.007,0.003,0.989
2026/01/08 10:03:15.409,0.005,0.001,0.991
2026/01/08 10:03:15.429,0.001,0.0,0.993
2026/01/08 10:03:15.448,0.006,0.002,1.003
2026/01/08 10:03:15.467,0.003,-0.001,1.015
2026/01/08 10:03:15.486,0.007,-0.001,1.017
2026/01/08 10:03:15.506,0.007,0.007,0.992
2026/01/08 10:03:15.525,0.007,0.006,0.988
2026/01/08 10:03:15.544,0.003,0.006,1.003
2026/01/08 10:03:15.563,0.003,0.004,1.001
2026/01/08 10:03:15.582,0.005,0.006,1.002
2026/01/08 10:03:15.602,0.001,0.003,0.998
2026/01/08 10:03:15.621,0.012,0.004,0.997
2026/01/08 10:03:15.640,-0.002,0.003,0.997
2026/01/08 10:03:15.659,0.004,0.006,1.005
2026/01/08 10:03:15.679,0.007,0.002,0.999
2026/01/08 10:03:15.698,0.002,0.007,0.998
2026/01/08 10:03:15.717,0.003,0.006,1.005
2026/01/08 10:03:15.736,0.002,0.006,0.995
2026/01/08 10:03:15.756,0.01,0.01,0.969
2026/01/08 10:03:15.775,0.006,0.007,0.994
2026/01/08 10:03:15.794,0.005,0.003,1.0
2026/01/08 10:03:15.813,0.003,0.01,0.99
2026/01/08 10:03:15.832,0.007,0.007,0.993
2026/01/08 10:03:15.852,0.01,0.008,0.986
2026/01/08 10:03:15.871,0.002,-0.004,1.008
2026/01/08 10:03:15.890,0.007,0.004,1.0
2026/01/08 10:03:15.909,0.003,0.004,0.995
2026/01/08 10:03:15.929,0.006,0.004,1.0
2026/01/08 10:03:15.948,0.006,0.004,1.007
2026/01/08 10:03:15.967,0.005,0.004,0.997
2026/01/08 10:03:15.986,0.004,0.002,0.999
2026/01/08 10:03:16.006,0.003,0.004,1.0
2026/01/08 10:03:16.025,0.005,0.003,1.008
2026/01/08 10:03:16.044,0.006,0.002,0.999
2026/01/08 10:03:16.063,0.003,0.006,0.994
2026/01/08 10:03:16.082,0.006,0.002,0.996
2026/01/08 10:03:16.102,0.006,0.001,1.004
2026/01/08 10:03:16.121,0.005,0.004,1.003
2026/01/08 10:03:16.140,0.004,0.001,0.996
2026/01/08 10:03:16.159,0.007,0.001,0.994
2026/01/08 10:03:16.179,0.007,0.003,0.998
2026/01/08 10:03:16.198,0.001,0.003,1.009
2026/01/08 10:03:16.217,0.007,0.003,0.995
2026/01/08 10:03:16.236,0.007,0.005,0.997
2026/01/08 10:03:16.256,0.005,0.004,0.999
2026/01/08 10:03:16.275,0.002,0.004,1.003
2026/01/08 10:03:16.294,0.009,-0.001,1.006
2026/01/08 10:03:16.313,0.009,0.003,0.998
2026/01/08 10:03:16.332,0.007,-0.001,0.999
2026/01/08 10:03:16.352,0.003,0.003,1.01
2026/01/08 10:03:16.371,0.005,0.003,1.004
2026/01/08 10:03:16.390,0.003,-0.002,1.001
2026/01/08 10:03:16.409,0.009,0.002,0.999
2026/01/08 10:03:16.429,0.006,0.004,1.001
2026/01/08 10:03:16.448,0.005,0.001,0.998
2026/01/08 10:03:16.467,0.007,0.005,0.999
2026/01/08 10:03:16.486,0.0,0.004,1.008
2026/01/08 10:03:16.506,0.005,0.005,1.002
2026/01/08 10:03:16.525,0.006,0.004,0.999
2026/01/08 10:03:16.544,0.008,0.001,0.998
2026/01/08 10:03:16.563,0.007,0.003,1.002
2026/01/08 10:03:16.582,0.003,0.004,0.996
2026/01/08 10:03:16.602,0.004,0.001,0.998
2026/01/08 10:03:16.621,0.006,0.006,1.007
2026/01/08 10:03:16.640,0.005,0.006,0.999
2026/01/08 10:03:16.659,0.006,0.009,0.993
2026/01/08 10:03:16.679,0.006,0.007,0.997
2026/01/08 10:03:16.698,0.01,0.007,1.006
2026/01/08 10:03:16.717,0.005,0.003,1.011
2026/01/08 10:03:16.736,0.001,0.002,1.001
2026/01/08 10:03:16.756,-0.002,0.003,0.997
2026/01/08 10:03:16.775,0.005,0.004,1.006
2026/01/08 10:03:16.794,0.01,0.005,1.003
2026/01/08 10:03:16.813,0.007,-0.003,0.996
2026/01/08 10:03:16.832,0.007,0.005,0.99
2026/01/08 10:03:16.852,-0.001,0.0,0.993
2026/01/08 10:03:16.871,-0.002,0.002,1.015
2026/01/08 10:03:16.890,0.007,-0.002,1.018
2026/01/08 10:03:16.909,0.007,0.001,0.993
2026/01/08 10:03:16.930,0.002,0.006,0.991
2026/01/08 10:03:16.950,0.004,0.006,0.997
2026/01/08 10:03:16.970,0.005,0.004,1.004
2026/01/08 10:03:16.991,0.007,0.003,0.993
2026/01/08 10:03:17.011,0.006,0.005,0.998
2026/01/08 10:03:17.031,0.007,-0.002,1.007
2026/01/08 10:03:17.052,0.005,0.002,0.995
2026/01/08 10:03:17.072,0.006,0.006,1.0
2026/01/08 10:03:17.092,0.003,0.006,0.997
2026/01/08 10:03:17.113,0.008,0.001,1.009
2026/01/08 10:03:17.133,0.003,-0.001,1.002
2026/01/08 10:03:17.153,0.006,0.001,0.998
2026/01/08 10:03:17.174,0.004,0.002,1.001
2026/01/08 10:03:17.194,0.006,0.003,0.997
2026/01/08 10:03:17.214,0.003,0.004,1.003
2026/01/08 10:03:17.235,0.007,0.009,0.996
2026/01/08 10:03:17.255,0.008,0.002,0.999
2026/01/08 10:03:17.275,0.003,-0.008,1.011
2026/01/08 10:03:17.296,0.006,-0.001,0.994
2026/01/08 10:03:17.316,0.008,0.005,1.003
2026/01/08 10:03:17.337,0.009,0.003,1.007
2026/01/08 10:03:17.357,0.006,0.0,0.987
2026/01/08 10:03:17.377,0.005,0.002,0.997
2026/01/08 10:03:17.398,0.003,0.001,1.01
2026/01/08 10:03:17.418,0.008,0.006,0.992
2026/01/08 10:03:17.438,0.007,0.0,0.996
2026/01/08 10:03:17.459,0.012,0.006,0.989
2026/01/08 10:03:17.479,0.006,0.003,0.995
2026/01/08 10:03:17.499,0.004,-0.001,1.01
2026/01/08 10:03:17.520,0.004,0.002,0.997
2026/01/08 10:03:17.540,0.006,0.002,0.989
2026/01/08 10:03:17.560,0.005,0.0,1.008
2026/01/08 10:03:17.581,0.006,0.003,1.001
2026/01/08 10:03:17.601,0.005,0.008,0.993
2026/01/08 10:03:17.621,0.007,-0.002,0.995
2026/01/08 10:03:17.642,0.004,0.003,1.004
2026/01/08 10:03:17.662,0.004,0.001,1.0
2026/01/08 10:03:17.682,0.011,0.006,0.999
2026/01/08 10:03:17.703,0.005,0.002,0.999
2026/01/08 10:03:17.723,0.006,0.001,0.995
2026/01/08 10:03:17.743,0.01,0.004,0.995
2026/01/08 10:03:17.764,0.005,0.009,1.011
2026/01/08 10:03:17.784,0.009,0.009,0.996
2026/01/08 10:03:17.804,0.005,-0.004,1.005
2026/01/08 10:03:17.825,0.0,-0.007,1.007
2026/01/08 10:03:17.845,-0.007,0.002,1.01
2026/01/08 10:03:17.865,-0.004,0.008,1.002
2026/01/08 10:03:17.886,0.009,0.001,0.996
2026/01/08 10:03:17.906,0.01,-0.001,1.0
2026/01/08 10:03:17.926,0.006,0.004,0.997
2026/01/08 10:03:17.947,0.001,0.005,0.987
2026/01/08 10:03:17.967,0.005,0.004,0.995
2026/01/08 10:03:17.987,-0.002,0.0,1.006
2026/01/08 10:03:18.008,0.003,0.006,1.008
2026/01/08 10:03:18.028,0.006,-0.003,1.008
2026/01/08 10:03:18.048,0.011,-0.001,0.999
2026/01/08 10:03:18.069,0.005,0.004,0.998
2026/01/08 10:03:18.089,-0.002,0.017,0.996
2026/01/08 10:03:18.109,0.003,0.004,0.998
2026/01/08 10:03:18.130,0.002,0.004,0.997
2026/01/08 10:03:18.150,0.005,0.003,0.994
2026/01/08 10:03:18.170,0.006,0.003,0.989
2026/01/08 10:03:18.191,0.002,0.009,0.985
2026/01/08 10:03:18.211,0.002,0.007,1.008
2026/01/08 10:03:18.231,0.012,0.003,1.0
2026/01/08 10:03:18.252,0.007,-0.006,0.996
2026/01/08 10:03:18.272,0.006,-0.003,0.999
2026/01/08 10:03:18.292,0.004,0.006,1.002
2026/01/08 10:03:18.313,0.0,0.009,1.002
2026/01/08 10:03:18.333,0.001,0.0,1.002
2026/01/08 10:03:18.353,0.004,-0.001,0.99
2026/01/08 10:03:18.374,0.007,-0.001,1.004
2026/01/08 10:03:18.394,0.01,0.0,0.998
2026/01/08 10:03:18.415,0.005,0.006,0.999
2026/01/08 10:03:18.435,0.01,0.009,1.0
2026/01/08 10:03:18.455,0.011,-0.004,1.011
2026/01/08 10:03:18.476,0.007,-0.009,1.008
2026/01/08 10:03:18.496,0.002,-0.003,1.004
2026/01/08 10:03:18.516,-0.003,0.006,1.003
2026/01/08 10:03:18.537,-0.004,0.007,1.003
2026/01/08 10:03:18.557,0.004,0.0,0.996
2026/01/08 10:03:18.577,0.009,-0.005,1.005
2026/01/08 10:03:18.598,0.002,0.003,1.004
2026/01/08 10:03:18.618,0.009,0.006,1.0
2026/01/08 10:03:18.638,0.009,0.007,1.008
2026/01/08 10:03:18.659,-0.001,0.004,0.989
2026/01/08 10:03:18.679,0.0,0.007,0.984
2026/01/08 10:03:18.699,-0.001,0.001,1.003
2026/01/08 10:03:18.720,0.007,0.0,1.019
2026/01/08 10:03:18.740,0.01,0.002,1.0
2026/01/08 10:03:18.760,0.007,0.006,0.989
2026/01/08 10:03:18.781,0.008,0.013,1.002
2026/01/08 10:03:18.801,-0.002,0.008,1.003
2026/01/08 10:03:18.821,0.005,-0.004,1.005
2026/01/08 10:03:18.842,0.012,-0.006,0.988
2026/01/08 10:03:18.862,0.006,-0.003,1.018
2026/01/08 10:03:18.882,0.002,0.014,0.993
2026/01/08 10:03:18.903,0.002,0.011,0.998
2026/01/08 10:03:18.923,0.009,0.013,0.996
2026/01/08 10:03:18.943,0.011,0.003,0.993
2026/01/08 10:03:18.964,0.011,-0.01,1.0
2026/01/08 10:03:18.984,0.0,-0.004,1.012
2026/01/08 10:03:19.004,-0.002,0.006,0.996
2026/01/08 10:03:19.025,-0.002,0.013,0.986
2026/01/08 10:03:19.045,0.003,0.007,1.004
2026/01/08 10:03:19.065,0.009,0.0,1.008
2026/01/08 10:03:19.086,0.013,-0.007,1.014
2026/01/08 10:03:19.106,0.006,0.006,0.977
2026/01/08 10:03:19.126,-0.006,0.009,1.017
2026/01/08 10:03:19.147,-0.006,0.012,1.014
2026/01/08 10:03:19.167,0.005,0.001,0.999
2026/01/08 10:03:19.187,0.011,-0.001,0.993
2026/01/08 10:03:19.208,0.004,0.003,1.009
2026/01/08 10:03:19.228,0.001,0.011,0.997
2026/01/08 10:03:19.248,0.004,0.004,1.003
2026/01/08 10:03:19.269,0.005,0.0,0.997
2026/01/08 10:03:19.289,0.01,0.004,1.0
2026/01/08 10:03:19.309,0.007,0.002,0.999
2026/01/08 10:03:19.330,0.001,0.011,0.998
2026/01/08 10:03:19.350,0.004,0.011,1.002
2026/01/08 10:03:19.370,0.002,-0.002,1.009
2026/01/08 10:03:19.391,0.009,-0.001,1.0
2026/01/08 10:03:19.411,0.006,0.005,1.005
2026/01/08 10:03:19.432,0.002,0.009,1.002
2026/01/08 10:03:19.452,0.008,0.011,0.999
2026/01/08 10:03:19.472,0.003,0.003,0.986
2026/01/08 10:03:19.493,0.005,0.008,0.988
2026/01/08 10:03:19.513,0.0,0.006,1.004
2026/01/08 10:03:19.533,0.006,0.003,1.001
2026/01/08 10:03:19.554,0.005,-0.007,1.011
2026/01/08 10:03:19.574,0.01,0.009,0.998
2026/01/08 10:03:19.594,0.007,0.001,1.006
2026/01/08 10:03:19.615,0.008,0.008,0.998
2026/01/08 10:03:19.635,0.002,0.006,0.998
2026/01/08 10:03:19.655,0.001,0.003,1.005
2026/01/08 10:03:19.676,0.003,0.001,0.996
2026/01/08 10:03:19.696,0.003,0.009,1.007
2026/01/08 10:03:19.716,0.006,0.006,1.01
2026/01/08 10:03:19.737,0.006,0.004,0.993
2026/01/08 10:03:19.757,0.007,0.003,1.004
2026/01/08 10:03:19.777,0.002,-0.001,1.008
2026/01/08 10:03:19.798,0.003,0.006,0.999
2026/01/08 10:03:19.818,0.003,0.002,1.006
2026/01/08 10:03:19.838,0.008,0.004,0.997
2026/01/08 10:03:19.859,0.01,-0.001,1.001
2026/01/08 10:03:19.879,-0.004,0.017,0.98
2026/01/08 10:03:19.899,0.0,-0.007,1.013
2026/01/08 10:03:19.920,0.015,0.004,0.99
2026/01/08 10:03:19.940,0.005,-0.021,1.037
2026/01/08 10:03:19.960,0.016,0.018,1.001
2026/01/08 10:03:19.981,-0.003,0.009,0.988
2026/01/08 10:03:20.001,-0.001,0.016,0.983
2026/01/08 10:03:20.021,-0.001,0.007,1.011
2026/01/08 10:03:20.042,0.0,0.005,1.016
2026/01/08 10:03:20.062,-0.002,0.012,0.995
2026/01/08 10:03:20.082,0.006,0.008,1.0
2026/01/08 10:03:20.103,-0.002,0.002,0.986
2026/01/08 10:03:20.123,0.004,0.005,1.0
2026/01/08 10:03:20.143,0.0,0.015,0.997
2026/01/08 10:03:20.164,0.01,0.009,0.987
2026/01/08 10:03:20.184,0.002,0.009,1.001
2026/01/08 10:03:20.204,0.008,0.008,1.01
2026/01/08 10:03:20.225,0.002,0.008,1.014
2026/01/08 10:03:20.245,-0.001,0.009,0.989
2026/01/08 10:03:20.265,-0.003,0.01,0.996
2026/01/08 10:03:20.286,0.002,0.012,1.009
2026/01/08 10:03:20.306,0.003,0.014,0.982
2026/01/08 10:03:20.327,-0.003,0.008,0.994
2026/01/08 10:03:20.347,-0.008,0.01,1.008
2026/01/08 10:03:20.367,0.001,0.012,0.999
2026/01/08 10:03:20.388,0.0,0.018,1.01
2026/01/08 10:03:20.408,0.002,0.009,0.999
2026/01/08 10:03:20.428,0.001,0.016,0.991
2026/01/08 10:03:20.449,-0.003,0.008,0.999
2026/01/08 10:03:20.469,0.001,0.009,0.999
2026/01/08 10:03:20.489,-0.001,0.011,0.999
2026/01/08 10:03:20.510,0.001,0.01,0.997
2026/01/08 10:03:20.530,0.003,0.01,1.002
2026/01/08 10:03:20.550,-0.002,0.01,0.999
2026/01/08 10:03:20.571,0.0,0.012,0.998
2026/01/08 10:03:20.591,0.004,0.014,1.001
2026/01/08 10:03:20.611,0.002,0.009,1.012
2026/01/08 10:03:20.632,0.0,0.011,0.997
2026/01/08 10:03:20.652,0.001,0.009,1.005
2026/01/08 10:03:20.672,0.0,0.011,1.0
2026/01/08 10:03:20.693,-0.002,0.008,1.001
2026/01/08 10:03:20.713,-0.001,0.011,1.003
2026/01/08 10:03:20.733,0.0,0.011,1.001
2026/01/08 10:03:20.754,0.002,0.006,1.004
2026/01/08 10:03:20.774,-0.001,0.011,1.001
2026/01/08 10:03:20.794,-0.002,0.008,1.002
2026/01/08 10:03:20.815,-0.003,0.012,1.001
2026/01/08 10:03:20.835,0.0,0.016,0.994
2026/01/08 10:03:20.855,0.001,0.015,0.998
2026/01/08 10:03:20.876,0.004,0.009,1.0
2026/01/08 10:03:20.896,0.0,0.008,1.002
2026/01/08 10:03:20.916,0.003,0.011,0.997
2026/01/08 10:03:20.937,0.001,0.013,1.005
2026/01/08 10:03:20.957,-0.001,0.014,0.995
2026/01/08 10:03:20.977,0.001,0.009,0.999
2026/01/08 10:03:20.998,-0.003,0.011,0.998
2026/01/08 10:03:21.018,0.002,0.01,1.001
2026/01/08 10:03:21.038,-0.004,0.011,0.998
2026/01/08 10:03:21.059,-0.001,0.01,1.003
2026/01/08 10:03:21.079,0.002,0.012,0.99
2026/01/08 10:03:21.099,-0.001,0.008,1.0
2026/01/08 10:03:21.120,-0.001,0.01,1.001
2026/01/08 10:03:21.140,0.001,0.006,1.0
2026/01/08 10:03:21.160,0.001,0.014,0.998
2026/01/08 10:03:21.181,0.001,0.013,1.0
2026/01/08 10:03:21.201,-0.001,0.013,1.0
2026/01/08 10:03:21.221,-0.001,0.013,0.999
2026/01/08 10:03:21.242,0.0,0.009,1.001
2026/01/08 10:03:21.262,-0.002,0.011,1.004
2026/01/08 10:03:21.283,0.002,0.009,0.998
2026/01/08 10:03:21.303,0.002,0.008,1.0
2026/01/08 10:03:21.323,0.003,0.013,1.0
2026/01/08 10:03:21.344,0.001,0.013,1.0
2026/01/08 10:03:21.364,0.001,0.015,0.997
2026/01/08 10:03:21.384,0.001,0.013,0.998
2026/01/08 10:03:21.405,0.001,0.01,0.994
2026/01/08 10:03:21.425,0.0,0.006,1.003
2026/01/08 10:03:21.445,0.001,0.008,1.002
2026/01/08 10:03:21.466,0.003,0.012,0.997
2026/01/08 10:03:21.486,-0.001,0.009,0.999
2026/01/08 10:03:21.506,0.0,0.009,1.002
2026/01/08 10:03:21.527,0.0,0.011,1.002
2026/01/08 10:03:21.547,0.002,0.01,1.0
2026/01/08 10:03:21.567,0.003,0.012,0.999
2026/01/08 10:03:21.588,0.0,0.01,1.0
2026/01/08 10:03:21.608,-0.002,0.009,0.998
2026/01/08 10:03:21.628,-0.003,0.01,0.999
2026/01/08 10:03:21.649,-0.001,0.013,0.998
2026/01/08 10:03:21.669,-0.001,0.01,0.999
2026/01/08 10:03:21.689,-0.003,0.012,1.002
2026/01/08 10:03:21.710,-0.001,0.009,1.0
2026/01/08 10:03:21.730,-0.004,0.011,1.001
2026/01/08 10:03:21.750,-0.003,0.011,0.997
2026/01/08 10:03:21.771,0.002,0.012,1.002
2026/01/08 10:03:21.791,0.0,0.009,1.002
2026/01/08 10:03:21.811,0.001,0.011,0.996
2026/01/08 10:03:21.832,0.001,0.008,1.0
2026/01/08 10:03:21.852,0.001,0.009,0.999
2026/01/08 10:03:21.872,0.0,0.009,0.998
2026/01/08 10:03:21.893,0.002,0.012,0.993
2026/01/08 10:03:21.913,-0.002,0.01,0.999
2026/01/08 10:03:21.933,-0.002,0.013,1.0
2026/01/08 10:03:21.954,-0.001,0.01,1.001
2026/01/08 10:03:21.974,0.005,0.013,0.999
2026/01/08 10:03:21.994,-0.001,0.009,1.001
2026/01/08 10:03:22.015,-0.001,0.012,0.998
2026/01/08 10:03:22.035,-0.003,0.01,0.999
2026/01/08 10:03:22.055,-0.001,0.012,0.994
2026/01/08 10:03:22.076,0.001,0.009,0.99
2026/01/08 10:03:22.096,0.003,0.011,1.001
2026/01/08 10:03:22.116,-0.002,0.006,1.01
2026/01/08 10:03:22.137,0.001,0.008,1.011
2026/01/08 10:03:22.157,0.002,0.009,1.003
2026/01/08 10:03:22.178,0.001,0.011,1.003
2026/01/08 10:03:22.198,-0.001,0.01,0.996
2026/01/08 10:03:22.218,-0.001,0.012,1.004
2026/01/08 10:03:22.239,0.001,0.014,0.999
2026/01/08 10:03:22.259,0.002,0.006,1.0
2026/01/08 10:03:22.279,-0.003,0.012,0.997
2026/01/08 10:03:22.300,0.0,0.012,1.003
2026/01/08 10:03:22.320,0.001,0.011,0.996
2026/01/08 10:03:22.340,0.001,0.009,0.999
2026/01/08 10:03:22.361,0.004,0.01,1.007
2026/01/08 10:03:22.381,0.004,0.016,0.991
2026/01/08 10:03:22.401,-0.003,0.008,1.003
2026/01/08 10:03:22.422,0.002,0.012,1.001
2026/01/08 10:03:22.442,-0.001,0.013,0.992
2026/01/08 10:03:22.462,0.004,0.015,1.002
2026/01/08 10:03:22.483,0.002,0.008,1.0
2026/01/08 10:03:22.503,-0.005,0.005,1.0
2026/01/08 10:03:22.523,0.003,0.012,0.999
2026/01/08 10:03:22.544,0.006,0.011,1.0
2026/01/08 10:03:22.564,0.0,0.014,1.003
2026/01/08 10:03:22.584,-0.002,0.015,1.001
2026/01/08 10:03:22.605,0.002,0.015,0.997
2026/01/08 10:03:22.625,-0.003,0.015,1.001
2026/01/08 10:03:22.645,-0.001,0.011,1.002
2026/01/08 10:03:22.666,0.0,0.012,1.0
2026/01/08 10:03:22.686,0.005,0.009,0.997
2026/01/08 10:03:22.706,0.002,0.008,0.999
2026/01/08 10:03:22.727,0.0,0.009,1.0
2026/01/08 10:03:22.747,0.0,0.013,0.99
2026/01/08 10:03:22.767,0.0,0.008,1.003
2026/01/08 10:03:22.788,0.003,0.006,1.002
2026/01/08 10:03:22.808,0.001,0.016,0.996
2026/01/08 10:03:22.828,0.003,0.012,1.003
2026/01/08 10:03:22.849,-0.002,0.012,1.001
2026/01/08 10:03:22.869,0.001,0.013,0.994
2026/01/08 10:03:22.889,0.0,0.008,0.997
2026/01/08 10:03:22.910,-0.002,0.01,1.004
2026/01/08 10:03:22.930,0.001,0.012,1.002
2026/01/08 10:03:22.950,0.002,0.01,0.997
2026/01/08 10:03:22.971,0.002,0.01,0.997
2026/01/08 10:03:22.991,0.002,0.014,1.003
2026/01/08 10:03:23.011,0.0,0.013,0.996
2026/01/08 10:03:23.032,0.0,0.01,0.999
2026/01/08 10:03:23.052,-0.001,0.012,1.002
2026/01/08 10:03:23.072,0.002,0.012,1.002
2026/01/08 10:03:23.093,-0.003,0.014,1.001
2026/01/08 10:03:23.113,0.0,0.01,1.0
2026/01/08 10:03:23.134,0.003,0.009,1.0
2026/01/08 10:03:23.154,0.0,0.011,0.998
2026/01/08 10:03:23.174,-0.002,0.012,0.995
2026/01/08 10:03:23.195,0.001,0.01,1.003
2026/01/08 10:03:23.215,-0.003,0.008,1.0
2026/01/08 10:03:23.235,0.003,0.009,0.996
2026/01/08 10:03:23.256,-0.004,0.007,1.006
2026/01/08 10:03:23.276,0.002,0.012,0.999
2026/01/08 10:03:23.296,0.0,0.013,0.998
2026/01/08 10:03:23.317,-0.001,0.009,0.999
2026/01/08 10:03:23.337,-0.001,0.012,0.998
2026/01/08 10:03:23.357,0.001,0.012,0.998
2026/01/08 10:03:23.378,-0.003,0.011,1.0
2026/01/08 10:03:23.398,-0.001,0.007,1.001
2026/01/08 10:03:23.418,-0.002,0.015,0.997
2026/01/08 10:03:23.439,0.001,0.013,0.999
2026/01/08 10:03:23.459,0.002,0.013,1.004
2026/01/08 10:03:23.479,-0.001,0.011,1.002
2026/01/08 10:03:23.500,-0.002,0.013,0.996
2026/01/08 10:03:23.520,0.004,0.01,1.0
2026/01/08 10:03:23.540,0.004,0.01,1.0
2026/01/08 10:03:23.561,-0.001,0.015,1.002
2026/01/08 10:03:23.581,0.001,0.012,1.001
2026/01/08 10:03:23.601,0.002,0.009,1.0
2026/01/08 10:03:23.622,0.002,0.014,1.001
2026/01/08 10:03:23.642,-0.001,0.01,1.001
2026/01/08 10:03:23.662,0.002,0.014,1.0
2026/01/08 10:03:23.683,0.001,0.01,1.004
2026/01/08 10:03:23.703,0.0,0.008,1.001
2026/01/08 10:03:23.723,-0.003,0.011,0.997
2026/01/08 10:03:23.744,-0.001,0.01,1.0
2026/01/08 10:03:23.764,-0.001,0.011,0.999
2026/01/08 10:03:23.784,0.0,0.008,0.999
2026/01/08 10:03:23.805,0.0,0.01,1.0
2026/01/08 10:03:23.825,0.0,0.01,1.003
2026/01/08 10:03:23.845,-0.002,0.01,1.001
2026/01/08 10:03:23.866,0.002,0.01,0.997
2026/01/08 10:03:23.886,-0.003,0.011,1.003
2026/01/08 10:03:23.906,-0.002,0.012,1.001
2026/01/08 10:03:23.927,0.001,0.013,1.001
2026/01/08 10:03:23.947,0.001,0.011,0.999
2026/01/08 10:03:23.967,0.0,0.008,0.997
2026/01/08 10:03:23.988,-0.001,0.009,1.0
2026/01/08 10:03:24.008,0.001,0.012,1.0
2026/01/08 10:03:24.028,0.003,0.008,1.002
2026/01/08 10:03:24.049,-0.002,0.007,1.002
2026/01/08 10:03:24.069,-0.001,0.008,0.997
2026/01/08 10:03:24.090,-0.002,0.015,1.001
2026/01/08 10:03:24.110,0.0,0.012,1.002
2026/01/08 10:03:24.130,0.003,0.013,0.999
2026/01/08 10:03:24.151,0.0,0.007,0.997
2026/01/08 10:03:24.171,0.0,0.009,0.999
2026/01/08 10:03:24.191,0.001,0.008,1.002
2026/01/08 10:03:24.212,-0.002,0.011,1.001
2026/01/08 10:03:24.232,0.001,0.014,1.001
2026/01/08 10:03:24.252,-0.003,0.012,1.001
2026/01/08 10:03:24.273,0.0,0.008,1.0
2026/01/08 10:03:24.293,-0.002,0.01,1.005
2026/01/08 10:03:24.313,0.0,0.014,1.003
2026/01/08 10:03:24.334,-0.001,0.012,1.003
2026/01/08 10:03:24.354,-0.001,0.007,0.999
2026/01/08 10:03:24.374,-0.003,0.009,1.0
2026/01/08 10:03:24.395,0.0,0.011,0.999
2026/01/08 10:03:24.415,0.0,0.011,1.005
2026/01/08 10:03:24.435,-0.002,0.013,0.998
2026/01/08 10:03:24.456,-0.001,0.01,1.004
2026/01/08 10:03:24.476,0.0,0.01,0.998
2026/01/08 10:03:24.496,0.0,0.012,1.003
2026/01/08 10:03:24.517,0.0,0.013,1.005
2026/01/08 10:03:24.537,0.002,0.011,1.001
2026/01/08 10:03:24.557,0.004,0.011,0.993
2026/01/08 10:03:24.578,-0.001,0.011,0.999
2026/01/08 10:03:24.598,-0.003,0.009,0.999
2026/01/08 10:03:24.618,-0.002,0.008,1.002
2026/01/08 10:03:24.639,0.002,0.011,1.001
2026/01/08 10:03:24.659,0.0,0.011,1.008
2026/01/08 10:03:24.679,0.0,0.015,0.997
2026/01/08 10:03:24.700,-0.002,0.007,1.011
2026/01/08 10:03:24.720,-0.001,0.01,1.004
2026/01/08 10:03:24.740,0.001,0.009,1.002
2026/01/08 10:03:24.761,0.001,0.015,0.999
2026/01/08 10:03:24.781,0.002,0.009,1.002
2026/01/08 10:03:24.801,0.0,0.011,1.002
2026/01/08 10:03:24.822,0.002,0.01,0.997
2026/01/08 10:03:24.842,0.002,0.012,1.0
2026/01/08 10:03:24.862,0.0,0.013,1.001
2026/01/08 10:03:24.883,-0.001,0.013,0.998
2026/01/08 10:03:24.903,-0.001,0.009,1.001
2026/01/08 10:03:24.923,0.003,0.011,1.0
2026/01/08 10:03:24.944,-0.003,0.011,0.997
2026/01/08 10:03:24.964,0.0,0.01,0.999
2026/01/08 10:03:24.984,0.0,0.013,0.999
2026/01/08 10:03:25.005,-0.002,0.015,1.004
2026/01/08 10:03:25.025,0.004,0.009,0.999
2026/01/08 10:03:25.045,0.002,0.011,0.997
2026/01/08 10:03:25.066,0.003,0.015,0.997
2026/01/08 10:03:25.086,0.003,0.011,1.003
2026/01/08 10:03:25.106,0.0,0.01,1.001
2026/01/08 10:03:25.127,-0.003,0.007,1.0
2026/01/08 10:03:25.147,0.001,0.01,0.998
2026/01/08 10:03:25.168,0.001,0.008,1.002
2026/01/08 10:03:25.188,0.002,0.013,0.994
2026/01/08 10:03:25.208,-0.003,0.013,1.002
2026/01/08 10:03:25.229,-0.002,0.013,0.996
2026/01/08 10:03:25.249,0.003,0.013,0.999
2026/01/08 10:03:25.269,0.0,0.008,0.996
2026/01/08 10:03:25.290,0.002,0.01,1.001
2026/01/08 10:03:25.310,0.005,0.011,0.998
2026/01/08 10:03:25.330,0.0,0.009,0.996
2026/01/08 10:03:25.351,0.003,0.013,0.995
2026/01/08 10:03:25.371,0.002,0.006,1.007
2026/01/08 10:03:25.391,0.002,0.013,0.995
2026/01/08 10:03:25.412,-0.001,0.01,1.001
2026/01/08 10:03:25.432,0.002,0.015,0.997
2026/01/08 10:03:25.452,0.002,0.011,0.999
2026/01/08 10:03:25.473,0.001,0.006,0.999
2026/01/08 10:03:25.493,-0.002,0.012,0.999
2026/01/08 10:03:25.513,0.0,0.008,1.002
2026/01/08 10:03:25.534,0.002,0.014,0.995
2026/01/08 10:03:25.554,-0.002,0.01,1.003
2026/01/08 10:03:25.574,0.003,0.012,0.994
2026/01/08 10:03:25.595,0.0,0.009,0.998
2026/01/08 10:03:25.615,-0.003,0.009,1.005
2026/01/08 10:03:25.635,0.004,0.01,1.005
2026/01/08 10:03:25.656,-0.001,0.016,0.993
2026/01/08 10:03:25.676,0.0,0.009,1.0
2026/01/08 10:03:25.696,-0.001,0.014,1.001
2026/01/08 10:03:25.717,-0.003,0.012,1.004
2026/01/08 10:03:25.737,-0.001,0.013,0.999
2026/01/08 10:03:25.757,0.002,0.012,0.999
2026/01/08 10:03:25.778,0.003,0.011,0.999
2026/01/08 10:03:25.798,0.002,0.008,0.998
2026/01/08 10:03:25.818,0.0,0.012,1.0
2026/01/08 10:03:25.839,0.003,0.01,1.0
2026/01/08 10:03:25.859,0.002,0.009,1.002
2026/01/08 10:03:25.879,0.001,0.012,1.001
2026/01/08 10:03:25.900,-0.003,0.016,1.003
2026/01/08 10:03:25.920,0.001,0.009,1.0
2026/01/08 10:03:25.940,0.003,0.011,0.999
2026/01/08 10:03:25.961,0.0,0.008,1.0
2026/01/08 10:03:25.981,0.002,0.011,1.002
2026/01/08 10:03:26.001,0.003,0.014,0.998
2026/01/08 10:03:26.022,-0.001,0.011,0.997
2026/01/08 10:03:26.042,0.001,0.012,0.999
2026/01/08 10:03:26.062,-0.002,0.009,0.997
2026/01/08 10:03:26.083,0.003,0.011,0.999
2026/01/08 10:03:26.103,0.003,0.011,1.0
2026/01/08 10:03:26.123,0.0,0.01,1.0
2026/01/08 10:03:26.144,0.002,0.013,1.001
2026/01/08 10:03:26.164,-0.002,0.013,1.004
2026/01/08 10:03:26.184,-0.003,0.011,0.998
2026/01/08 10:03:26.205,0.002,0.014,0.998
2026/01/08 10:03:26.225,-0.003,0.011,1.0
2026/01/08 10:03:26.246,0.001,0.009,1.0
2026/01/08 10:03:26.266,-0.002,0.012,0.998
2026/01/08 10:03:26.286,0.001,0.014,0.997
2026/01/08 10:03:26.307,-0.001,0.013,1.002
2026/01/08 10:03:26.327,-0.003,0.009,0.996
2026/01/08 10:03:26.347,0.002,0.011,1.002
2026/01/08 10:03:26.368,0.003,0.012,0.992
2026/01/08 10:03:26.388,-0.002,0.009,1.003
2026/01/08 10:03:26.408,0.002,0.009,0.999
2026/01/08 10:03:26.429,-0.003,0.009,0.999
2026/01/08 10:03:26.449,-0.001,0.014,0.996
2026/01/08 10:03:26.469,0.0,0.009,0.999
2026/01/08 10:03:26.490,0.0,0.013,1.003
2026/01/08 10:03:26.510,-0.001,0.015,0.999
2026/01/08 10:03:26.530,0.003,0.013,0.997
2026/01/08 10:03:26.551,0.001,0.014,1.0
2026/01/08 10:03:26.571,0.0,0.011,1.0
2026/01/08 10:03:26.591,-0.001,0.008,1.004
2026/01/08 10:03:26.612,0.0,0.01,1.002
2026/01/08 10:03:26.632,-0.003,0.011,1.0
2026/01/08 10:03:26.652,0.0,0.008,1.003
2026/01/08 10:03:26.673,0.0,0.012,0.999
2026/01/08 10:03:26.693,0.0,0.014,1.002
2026/01/08 10:03:26.713,-0.002,0.012,0.998
2026/01/08 10:03:26.734,0.0,0.008,1.004
2026/01/08 10:03:26.754,0.0,0.013,0.999
2026/01/08 10:03:26.774,-0.001,0.01,1.003
2026/01/08 10:03:26.795,-0.001,0.012,1.0
2026/01/08 10:03:26.815,0.001,0.013,0.999
2026/01/08 10:03:26.835,-0.001,0.007,0.996
2026/01/08 10:03:26.856,0.002,0.009,1.001
2026/01/08 10:03:26.876,-0.001,0.007,1.0
2026/01/08 10:03:26.896,0.001,0.011,1.0
2026/01/08 10:03:26.917,0.001,0.011,0.999
2026/01/08 10:03:26.937,0.003,0.011,1.001
2026/01/08 10:03:26.957,0.0,0.014,0.997
2026/01/08 10:03:26.978,0.0,0.01,1.002
2026/01/08 10:03:26.998,0.001,0.008,1.002
2026/01/08 10:03:27.018,0.002,0.006,1.0
2026/01/08 10:03:27.039,-0.002,0.012,1.003
2026/01/08 10:03:27.059,-0.001,0.009,1.0
2026/01/08 10:03:27.079,-0.001,0.012,0.998
2026/01/08 10:03:27.100,0.003,0.016,1.003
2026/01/08 10:03:27.120,-0.001,0.009,1.0
2026/01/08 10:03:27.140,0.003,0.013,0.997
2026/01/08 10:03:27.161,0.004,0.013,0.998
2026/01/08 10:03:27.181,0.0,0.009,1.0
2026/01/08 10:03:27.201,-0.002,0.011,1.0
2026/01/08 10:03:27.222,0.001,0.014,1.001
2026/01/08 10:03:27.242,0.0,0.012,0.997
2026/01/08 10:03:27.263,0.0,0.011,0.999
2026/01/08 10:03:27.283,-0.001,0.01,0.999
2026/01/08 10:03:27.303,-0.003,0.013,1.001
2026/01/08 10:03:27.324,0.001,0.01,0.995
2026/01/08 10:03:27.344,-0.003,0.009,1.002
2026/01/08 10:03:27.364,0.0,0.006,0.999
2026/01/08 10:03:27.385,0.001,0.012,0.998
2026/01/08 10:03:27.405,0.001,0.01,1.002
2026/01/08 10:03:27.425,0.0,0.009,1.001
2026/01/08 10:03:27.446,-0.004,0.012,1.004
2026/01/08 10:03:27.466,-0.002,0.013,0.998
2026/01/08 10:03:27.486,-0.001,0.013,1.003
2026/01/08 10:03:27.507,0.0,0.01,0.998
2026/01/08 10:03:27.527,-0.003,0.011,1.002
2026/01/08 10:03:27.547,0.002,0.008,0.999
2026/01/08 10:03:27.568,0.002,0.013,0.997
2026/01/08 10:03:27.588,0.0,0.012,0.996
2026/01/08 10:03:27.608,0.0,0.006,1.001
2026/01/08 10:03:27.629,0.002,0.011,1.001
2026/01/08 10:03:27.649,0.002,0.013,1.003
2026/01/08 10:03:27.669,0.001,0.012,1.0
2026/01/08 10:03:27.690,0.002,0.015,0.999
2026/01/08 10:03:27.710,0.001,0.009,1.001
2026/01/08 10:03:27.730,0.002,0.009,0.999
2026/01/08 10:03:27.751,-0.002,0.013,1.002
2026/01/08 10:03:27.771,-0.003,0.01,1.001
2026/01/08 10:03:27.791,0.002,0.008,1.001
2026/01/08 10:03:27.812,-0.003,0.012,1.002
2026/01/08 10:03:27.832,0.0,0.012,0.999
2026/01/08 10:03:27.852,0.0,0.012,0.999
2026/01/08 10:03:27.873,0.001,0.013,1.002
2026/01/08 10:03:27.893,0.004,0.01,1.002
2026/01/08 10:03:27.913,-0.001,0.013,0.998
2026/01/08 10:03:27.934,0.001,0.016,1.002
2026/01/08 10:03:27.954,0.001,0.013,1.0
2026/01/08 10:03:27.974,0.002,0.009,0.999
2026/01/08 10:03:27.995,0.001,0.01,1.002
2026/01/08 10:03:28.015,0.0,0.012,1.001
2026/01/08 10:03:28.035,0.0,0.011,0.999
2026/01/08 10:03:28.056,0.003,0.011,0.999
2026/01/08 10:03:28.076,0.0,0.011,1.0
2026/01/08 10:03:28.096,-0.001,0.012,0.997
2026/01/08 10:03:28.117,-0.002,0.013,1.0
2026/01/08 10:03:28.137,0.002,0.011,1.0
2026/01/08 10:03:28.158,-0.002,0.01,1.0
2026/01/08 10:03:28.178,0.0,0.009,0.999
2026/01/08 10:03:28.198,0.0,0.01,1.001
2026/01/08 10:03:28.219,-0.002,0.011,1.001
2026/01/08 10:03:28.239,0.0,0.011,1.0
2026/01/08 10:03:28.259,-0.001,0.013,1.0
2026/01/08 10:03:28.280,-0.001,0.012,0.998
2026/01/08 10:03:28.300,0.0,0.009,0.999
2026/01/08 10:03:28.320,0.002,0.013,0.999
2026/01/08 10:03:28.341,0.001,0.012,0.998
2026/01/08 10:03:28.361,0.0,0.009,1.002
2026/01/08 10:03:28.381,-0.001,0.017,0.996
2026/01/08 10:03:28.402,0.002,0.009,0.998
2026/01/08 10:03:28.422,0.003,0.009,0.999
2026/01/08 10:03:28.442,-0.002,0.009,1.006
2026/01/08 10:03:28.463,-0.001,0.015,0.995
2026/01/08 10:03:28.483,-0.003,0.011,1.001
2026/01/08 10:03:28.503,-0.002,0.009,1.001
2026/01/08 10:03:28.524,0.002,0.009,0.998
2026/01/08 10:03:28.544,0.004,0.008,1.001
2026/01/08 10:03:28.564,-0.003,0.009,0.998
2026/01/08 10:03:28.585,0.005,0.011,1.002
2026/01/08 10:03:28.605,-0.003,0.013,1.002
2026/01/08 10:03:28.625,-0.001,0.013,1.0
2026/01/08 10:03:28.646,0.001,0.013,0.995
2026/01/08 10:03:28.666,-0.002,0.012,0.999
2026/01/08 10:03:28.686,-0.002,0.011,0.998
2026/01/08 10:03:28.707,0.0,0.01,1.003
2026/01/08 10:03:28.727,0.002,0.011,1.0
2026/01/08 10:03:28.747,0.0,0.01,1.003
2026/01/08 10:03:28.768,0.005,0.006,1.004
2026/01/08 10:03:28.788,0.003,0.006,1.003
2026/01/08 10:03:28.808,0.001,0.014,0.999
2026/01/08 10:03:28.829,-0.001,0.008,0.996
2026/01/08 10:03:28.849,0.0,0.013,0.998
2026/01/08 10:03:28.869,-0.002,0.015,1.003
2026/01/08 10:03:28.890,0.002,0.009,1.002
2026/01/08 10:03:28.910,0.001,0.008,0.998
2026/01/08 10:03:28.930,-0.001,0.012,1.003
2026/01/08 10:03:28.951,0.0,0.01,1.001
2026/01/08 10:03:28.971,0.002,0.014,0.999
2026/01/08 10:03:28.991,0.003,0.011,0.994
2026/01/08 10:03:29.012,0.0,0.014,1.001
2026/01/08 10:03:29.032,-0.001,0.01,1.005
2026/01/08 10:03:29.052,0.002,0.013,0.999
2026/01/08 10:03:29.073,0.001,0.006,0.999
2026/01/08 10:03:29.093,0.0,0.016,1.0
2026/01/08 10:03:29.114,-0.001,0.012,0.999
2026/01/08 10:03:29.134,0.001,0.014,0.998
2026/01/08 10:03:29.154,-0.003,0.01,1.001
2026/01/08 10:03:29.175,0.004,0.013,0.999
2026/01/08 10:03:29.195,-0.003,0.011,0.999
2026/01/08 10:03:29.215,0.0,0.011,0.997
2026/01/08 10:03:29.236,-0.001,0.013,0.999
2026/01/08 10:03:29.256,-0.001,0.011,1.0
2026/01/08 10:03:29.276,-0.001,0.01,1.001
2026/01/08 10:03:29.297,-0.003,0.006,1.009
2026/01/08 10:03:29.317,-0.001,0.01,0.996
2026/01/08 10:03:29.337,-0.001,0.01,0.998
2026/01/08 10:03:29.358,0.0,0.012,0.998
2026/01/08 10:03:29.378,0.001,0.012,0.998
2026/01/08 10:03:29.398,0.0,0.008,1.003
2026/01/08 10:03:29.419,-0.003,0.013,1.002
2026/01/08 10:03:29.439,-0.001,0.009,0.993
2026/01/08 10:03:29.459,-0.007,0.008,1.002
2026/01/08 10:03:29.480,0.004,0.01,0.989
2026/01/08 10:03:29.500,-0.002,0.009,1.004
2026/01/08 10:03:29.520,0.001,0.013,1.0
2026/01/08 10:03:29.541,0.002,0.011,0.998
2026/01/08 10:03:29.561,0.0,0.012,1.003
2026/01/08 10:03:29.581,0.002,0.014,0.996
2026/01/08 10:03:29.602,0.001,0.008,0.998
2026/01/08 10:03:29.622,-0.003,0.008,0.996
2026/01/08 10:03:29.642,0.003,0.012,0.997
2026/01/08 10:03:29.663,0.005,0.011,0.997
2026/01/08 10:03:29.683,-0.002,0.009,1.0
2026/01/08 10:03:29.703,0.003,0.01,1.003
2026/01/08 10:03:29.724,-0.002,0.013,0.997
2026/01/08 10:03:29.744,-0.002,0.009,1.003
2026/01/08 10:03:29.764,0.002,0.01,0.998
2026/01/08 10:03:29.785,-0.001,0.011,0.998
2026/01/08 10:03:29.805,0.001,0.013,1.005
2026/01/08 10:03:29.825,0.0,0.01,1.002
2026/01/08 10:03:29.846,0.002,0.011,1.001
2026/01/08 10:03:29.866,0.001,0.012,0.998
2026/01/08 10:03:29.886,-0.001,0.012,1.001
2026/01/08 10:03:29.907,0.002,0.013,0.997
2026/01/08 10:03:29.927,0.0,0.011,1.002
2026/01/08 10:03:29.947,0.003,0.012,0.998
2026/01/08 10:03:29.968,-0.001,0.012,1.003
2026/01/08 10:03:29.988,0.001,0.012,0.998
2026/01/08 10:03:30.008,-0.001,0.009,0.997
2026/01/08 10:03:30.029,-0.001,0.01,0.998
2026/01/08 10:03:30.049,0.001,0.013,1.001
2026/01/08 10:03:30.070,-0.004,0.008,1.0
2026/01/08 10:03:30.090,0.001,0.011,0.999
2026/01/08 10:03:30.110,0.003,0.013,0.994
2026/01/08 10:03:30.131,0.0,0.009,0.998
2026/01/08 10:03:30.151,0.004,0.01,0.996
2026/01/08 10:03:30.171,0.0,0.006,1.007
2026/01/08 10:03:30.192,-0.003,0.012,1.005
2026/01/08 10:03:30.212,0.002,0.013,1.003
2026/01/08 10:03:30.232,-0.001,0.012,1.0
2026/01/08 10:03:30.253,-0.001,0.007,1.0
2026/01/08 10:03:30.273,-0.006,0.011,1.0
2026/01/08 10:03:30.293,-0.001,0.012,1.002
2026/01/08 10:03:30.314,-0.002,0.009,1.001
2026/01/08 10:03:30.334,0.002,0.011,0.996
2026/01/08 10:03:30.354,0.001,0.013,0.999
2026/01/08 10:03:30.375,-0.002,0.009,1.001
2026/01/08 10:03:30.395,0.0,0.012,0.999
2026/01/08 10:03:30.415,-0.003,0.01,1.003
2026/01/08 10:03:30.436,0.001,0.01,1.001
2026/01/08 10:03:30.456,0.0,0.015,0.998
2026/01/08 10:03:30.476,0.003,0.011,0.994
2026/01/08 10:03:30.497,-0.003,0.013,1.009
2026/01/08 10:03:30.517,-0.002,0.013,1.0
2026/01/08 10:03:30.537,-0.001,0.013,0.995
2026/01/08 10:03:30.558,-0.001,0.012,0.994
2026/01/08 10:03:30.578,0.001,0.011,1.003
2026/01/08 10:03:30.598,0.004,0.011,1.001
2026/01/08 10:03:30.619,0.001,0.009,0.997
2026/01/08 10:03:30.639,0.002,0.009,0.998
2026/01/08 10:03:30.659,0.004,0.011,0.997
2026/01/08 10:03:30.680,0.001,0.008,1.011
2026/01/08 10:03:30.700,-0.003,0.011,0.992
2026/01/08 10:03:30.720,0.0,0.008,0.997
2026/01/08 10:03:30.741,-0.001,0.009,0.996
2026/01/08 10:03:30.761,0.001,0.011,1.0
2026/01/08 10:03:30.781,0.002,0.012,1.002
2026/01/08 10:03:30.802,-0.001,0.009,1.003
2026/01/08 10:03:30.822,0.0,0.011,1.001
2026/01/08 10:03:30.842,-0.003,0.009,0.994
2026/01/08 10:03:30.863,0.002,0.01,1.001
2026/01/08 10:03:30.883,0.002,0.025,0.973
2026/01/08 10:03:30.903,0.001,0.014,0.996
2026/01/08 10:03:30.924,0.001,0.006,1.005
2026/01/08 10:03:30.944,-0.004,0.011,0.999
2026/01/08 10:03:30.964,0.002,0.011,1.0
2026/01/08 10:03:30.985,0.001,0.01,1.0
2026/01/08 10:03:31.005,-0.002,0.009,1.006
2026/01/08 10:03:31.025,0.003,0.011,0.991
2026/01/08 10:03:31.046,0.002,0.014,0.997
2026/01/08 10:03:31.066,0.0,0.01,0.999
2026/01/08 10:03:31.087,0.002,0.012,0.998
2026/01/08 10:03:31.107,-0.003,0.008,0.999
2026/01/08 10:03:31.127,0.001,0.008,0.999
2026/01/08 10:03:31.148,0.0,0.009,1.005
2026/01/08 10:03:31.168,0.0,0.006,0.998
2026/01/08 10:03:31.188,0.003,0.009,1.0
2026/01/08 10:03:31.209,-0.001,0.012,0.999
2026/01/08 10:03:31.229,-0.003,0.014,1.002
2026/01/08 10:03:31.249,-0.001,0.012,0.994
2026/01/08 10:03:31.270,0.003,0.01,1.003
2026/01/08 10:03:31.290,-0.001,0.008,1.004
2026/01/08 10:03:31.310,0.004,0.014,0.999
2026/01/08 10:03:31.331,0.001,0.01,1.005
2026/01/08 10:03:31.351,-0.002,0.009,0.996
2026/01/08 10:03:31.371,0.0,0.01,0.993
2026/01/08 10:03:31.392,-0.002,0.008,0.996
2026/01/08 10:03:31.412,-0.002,0.008,1.0
2026/01/08 10:03:31.432,-0.002,0.009,1.001
2026/01/08 10:03:31.453,0.001,0.01,1.002
2026/01/08 10:03:31.473,0.0,0.006,1.002
2026/01/08 10:03:31.493,-0.001,0.012,1.0
2026/01/08 10:03:31.514,0.0,0.013,1.0
2026/01/08 10:03:31.534,-0.002,0.008,0.999
2026/01/08 10:03:31.554,0.001,0.012,1.003
2026/01/08 10:03:31.575,0.003,0.009,1.002
2026/01/08 10:03:31.595,0.003,0.007,0.999
2026/01/08 10:03:31.615,0.002,0.011,0.999
2026/01/08 10:03:31.636,-0.003,0.011,0.999
2026/01/08 10:03:31.656,-0.003,0.011,1.001
2026/01/08 10:03:31.676,-0.002,0.014,1.001
2026/01/08 10:03:31.697,0.0,0.013,0.997
2026/01/08 10:03:31.717,-0.001,0.011,0.998
2026/01/08 10:03:31.737,-0.002,0.008,0.995
2026/01/08 10:03:31.758,0.002,0.01,0.999
2026/01/08 10:03:31.778,-0.002,0.01,1.002
2026/01/08 10:03:31.798,0.001,0.009,0.996
2026/01/08 10:03:31.819,-0.003,0.014,0.998
2026/01/08 10:03:31.839,-0.004,0.017,0.999
2026/01/08 10:03:31.859,0.002,0.01,1.001
2026/01/08 10:03:31.880,-0.003,0.008,1.001
2026/01/08 10:03:31.900,0.001,0.011,1.002
2026/01/08 10:03:31.920,0.001,0.012,1.001
2026/01/08 10:03:31.941,0.007,0.017,0.979
2026/01/08 10:03:31.961,0.004,0.01,0.99
2026/01/08 10:03:31.981,0.001,0.014,1.003
2026/01/08 10:03:32.002,0.003,0.01,0.999
2026/01/08 10:03:32.022,-0.004,0.007,1.006
2026/01/08 10:03:32.042,-0.005,0.006,1.014
2026/01/08 10:03:32.063,0.003,0.017,0.973
2026/01/08 10:03:32.083,0.001,0.016,0.975
2026/01/08 10:03:32.104,-0.002,0.012,1.002
2026/01/08 10:03:32.124,0.002,0.012,1.002
2026/01/08 10:03:32.144,0.0,0.009,1.001
2026/01/08 10:03:32.165,0.004,0.013,0.997
2026/01/08 10:03:32.185,0.003,0.01,0.997
2026/01/08 10:03:32.205,0.001,0.009,1.0
2026/01/08 10:03:32.226,0.0,0.008,1.007
2026/01/08 10:03:32.246,0.003,0.009,0.999
2026/01/08 10:03:32.266,0.0,0.007,0.998
2026/01/08 10:03:32.287,0.006,0.014,0.983
2026/01/08 10:03:32.307,0.0,0.008,1.0
2026/01/08 10:03:32.327,0.0,0.012,1.008
2026/01/08 10:03:32.348,-0.001,0.009,1.003
2026/01/08 10:03:32.368,0.0,0.011,0.999
2026/01/08 10:03:32.388,-0.001,0.006,1.022
2026/01/08 10:03:32.409,0.003,0.008,1.003
2026/01/08 10:03:32.429,-0.004,0.006,1.011
2026/01/08 10:03:32.449,-0.002,0.014,1.004
2026/01/08 10:03:32.470,0.003,0.014,1.004
2026/01/08 10:03:32.490,-0.002,0.009,1.004
2026/01/08 10:03:32.510,-0.001,0.013,1.001
2026/01/08 10:03:32.531,-0.001,0.009,0.998
2026/01/08 10:03:32.551,0.0,0.013,0.997
2026/01/08 10:03:32.571,0.001,0.011,0.999
2026/01/08 10:03:32.592,0.001,0.01,1.009
2026/01/08 10:03:32.612,0.001,0.008,1.01
2026/01/08 10:03:32.632,0.001,0.013,0.996
2026/01/08 10:03:32.653,-0.002,0.015,1.006
2026/01/08 10:03:32.673,0.002,0.017,0.995
2026/01/08 10:03:32.693,-0.002,0.01,0.999
2026/01/08 10:03:32.714,-0.001,0.014,0.999
2026/01/08 10:03:32.734,0.001,0.01,0.999
2026/01/08 10:03:32.754,-0.002,0.013,1.0
2026/01/08 10:03:32.775,0.001,0.014,0.999
2026/01/08 10:03:32.795,0.001,0.012,0.995
2026/01/08 10:03:32.815,-0.001,0.009,0.998
2026/01/08 10:03:32.836,-0.002,0.011,0.992
2026/01/08 10:03:32.856,-0.002,0.013,0.993
2026/01/08 10:03:32.876,-0.002,0.008,0.986
2026/01/08 10:03:32.897,-0.003,0.011,0.999
2026/01/08 10:03:32.917,0.001,0.012,0.989
2026/01/08 10:03:32.937,0.0,0.013,1.002
2026/01/08 10:03:32.958,0.001,0.013,0.991
2026/01/08 10:03:32.978,0.001,0.012,0.999
2026/01/08 10:03:32.999,0.001,0.012,1.003
2026/01/08 10:03:33.019,0.0,0.013,1.001
2026/01/08 10:03:33.039,-0.003,0.009,0.994
2026/01/08 10:03:33.060,0.002,0.008,0.998
2026/01/08 10:03:33.080,0.002,0.013,0.998
2026/01/08 10:03:33.100,0.0,0.013,1.0
2026/01/08 10:03:33.121,-0.001,0.011,0.997
2026/01/08 10:03:33.141,0.001,0.008,0.999
2026/01/08 10:03:33.161,-0.002,0.008,0.999
2026/01/08 10:03:33.182,0.0,0.01,1.0
2026/01/08 10:03:33.202,0.002,0.014,1.001
2026/01/08 10:03:33.222,0.0,0.012,0.999
2026/01/08 10:03:33.243,0.002,0.01,1.001
2026/01/08 10:03:33.263,0.0,0.015,1.001
2026/01/08 10:03:33.283,0.001,0.01,1.002
2026/01/08 10:03:33.304,-0.001,0.014,0.998
2026/01/08 10:03:33.324,0.003,0.015,0.997
2026/01/08 10:03:33.344,-0.001,0.005,0.998
2026/01/08 10:03:33.365,-0.002,0.012,0.996
2026/01/08 10:03:33.385,0.003,0.008,0.997
2026/01/08 10:03:33.405,-0.002,0.013,1.001
2026/01/08 10:03:33.426,-0.002,0.01,0.999
2026/01/08 10:03:33.446,-0.001,0.012,1.0
2026/01/08 10:03:33.466,0.003,0.011,0.999
2026/01/08 10:03:33.487,-0.001,0.01,1.003
2026/01/08 10:03:33.507,0.002,0.008,1.001
2026/01/08 10:03:33.527,-0.001,0.013,1.003
2026/01/08 10:03:33.548,0.0,0.011,0.995
2026/01/08 10:03:33.568,0.001,0.01,1.0
2026/01/08 10:03:33.588,0.0,0.007,0.999
2026/01/08 10:03:33.609,-0.002,0.012,1.001
2026/01/08 10:03:33.629,0.002,0.011,1.003
2026/01/08 10:03:33.649,0.001,0.008,1.002
2026/01/08 10:03:33.670,0.0,0.008,1.002
2026/01/08 10:03:33.690,-0.005,0.009,1.002
2026/01/08 10:03:33.710,-0.001,0.01,0.997
2026/01/08 10:03:33.731,0.001,0.009,1.001
2026/01/08 10:03:33.751,0.001,0.01,1.002
2026/01/08 10:03:33.771,0.001,0.01,0.998
2026/01/08 10:03:33.792,0.001,0.011,0.996
2026/01/08 10:03:33.812,0.003,0.009,1.001
2026/01/08 10:03:33.832,-0.001,0.01,1.003
2026/01/08 10:03:33.853,-0.001,0.014,0.999
2026/01/08 10:03:33.873,-0.002,0.011,1.001
2026/01/08 10:03:33.894,-0.002,0.008,1.001
2026/01/08 10:03:33.914,-0.001,0.011,0.998
2026/01/08 10:03:33.934,0.001,0.005,1.001
2026/01/08 10:03:33.955,-0.004,0.012,0.997
2026/01/08 10:03:33.975,0.0,0.008,1.001
2026/01/08 10:03:33.995,0.001,0.015,0.997
2026/01/08 10:03:34.016,0.001,0.012,0.997
2026/01/08 10:03:34.036,0.0,0.009,0.997
2026/01/08 10:03:34.056,-0.002,0.01,1.0
2026/01/08 10:03:34.077,-0.003,0.013,0.994
2026/01/08 10:03:34.097,0.0,0.011,1.0
2026/01/08 10:03:34.117,-0.002,0.01,1.002
2026/01/08 10:03:34.138,-0.003,0.016,0.995
2026/01/08 10:03:34.158,-0.002,0.008,1.0
2026/01/08 10:03:34.178,0.002,0.009,0.995
2026/01/08 10:03:34.199,-0.004,0.008,1.005
2026/01/08 10:03:34.219,0.003,0.008,1.002
2026/01/08 10:03:34.239,-0.002,0.008,0.999
2026/01/08 10:03:34.260,0.002,0.009,1.002
2026/01/08 10:03:34.280,-0.003,0.009,1.001
2026/01/08 10:03:34.300,0.0,0.012,1.001
2026/01/08 10:03:34.321,-0.003,0.014,1.002
2026/01/08 10:03:34.341,0.003,0.007,1.001
2026/01/08 10:03:34.361,-0.001,0.009,1.005
2026/01/08 10:03:34.382,-0.001,0.012,1.0
2026/01/08 10:03:34.402,-0.001,0.014,0.998
2026/01/08 10:03:34.422,-0.002,0.012,0.999
2026/01/08 10:03:34.443,-0.002,0.01,1.003
2026/01/08 10:03:34.463,-0.003,0.012,0.999
2026/01/08 10:03:34.483,0.002,0.011,1.001
2026/01/08 10:03:34.504,0.003,0.009,1.001
2026/01/08 10:03:34.524,0.001,0.01,0.999
2026/01/08 10:03:34.544,-0.002,0.013,1.001
2026/01/08 10:03:34.565,0.001,0.01,0.998
2026/01/08 10:03:34.585,-0.002,0.012,0.999
2026/01/08 10:03:34.605,-0.004,0.009,1.003
2026/01/08 10:03:34.626,-0.001,0.015,0.999
2026/01/08 10:03:34.646,0.003,0.01,0.997
2026/01/08 10:03:34.666,0.002,0.011,0.999
2026/01/08 10:03:34.687,0.003,0.013,0.997
2026/01/08 10:03:34.707,0.001,0.011,0.998
2026/01/08 10:03:34.727,-0.001,0.011,0.999
2026/01/08 10:03:34.748,0.002,0.011,0.998
2026/01/08 10:03:34.768,0.0,0.014,0.997
2026/01/08 10:03:34.789,-0.001,0.01,1.0
2026/01/08 10:03:34.809,0.003,0.017,1.002
2026/01/08 10:03:34.829,0.005,0.014,1.0
2026/01/08 10:03:34.850,0.003,0.011,1.002
2026/01/08 10:03:34.870,0.0,0.016,1.0
2026/01/08 10:03:34.890,-0.002,0.012,1.0
2026/01/08 10:03:34.911,0.001,0.013,0.998
2026/01/08 10:03:34.931,-0.001,0.011,1.002
2026/01/08 10:03:34.951,0.0,0.009,1.001
2026/01/08 10:03:34.972,-0.001,0.012,0.999
2026/01/08 10:03:34.992,0.001,0.007,0.999
2026/01/08 10:03:35.012,0.001,0.014,1.0
2026/01/08 10:03:35.033,0.002,0.01,0.998
2026/01/08 10:03:35.053,-0.001,0.01,1.0
2026/01/08 10:03:35.073,0.001,0.009,0.999
2026/01/08 10:03:35.094,-0.001,0.007,0.998
2026/01/08 10:03:35.114,0.001,0.013,0.999
2026/01/08 10:03:35.134,-0.002,0.007,0.999
2026/01/08 10:03:35.155,-0.003,0.012,0.998
2026/01/08 10:03:35.175,0.001,0.004,1.001
2026/01/08 10:03:35.195,0.003,0.011,1.0
2026/01/08 10:03:35.216,-0.004,0.01,1.0
2026/01/08 10:03:35.236,-0.002,0.009,0.995
2026/01/08 10:03:35.256,0.001,0.01,0.998
2026/01/08 10:03:35.277,-0.003,0.009,0.998
2026/01/08 10:03:35.297,-0.002,0.013,0.998
2026/01/08 10:03:35.317,0.0,0.009,1.001
2026/01/08 10:03:35.338,0.0,0.011,1.002
2026/01/08 10:03:35.358,0.004,0.007,1.0
2026/01/08 10:03:35.378,0.0,0.011,0.996
2026/01/08 10:03:35.399,-0.001,0.012,0.999
2026/01/08 10:03:35.419,0.002,0.005,0.999
2026/01/08 10:03:35.439,0.003,0.014,0.999
2026/01/08 10:03:35.460,-0.001,0.009,1.0
2026/01/08 10:03:35.480,-0.003,0.01,1.0
2026/01/08 10:03:35.500,-0.001,0.013,0.998
2026/01/08 10:03:35.521,-0.002,0.01,0.999
2026/01/08 10:03:35.541,0.002,0.011,0.998
2026/01/08 10:03:35.561,-0.002,0.006,1.004
2026/01/08 10:03:35.582,0.001,0.011,1.005
2026/01/08 10:03:35.602,-0.002,0.015,0.994
2026/01/08 10:03:35.623,0.006,0.012,0.996
2026/01/08 10:03:35.643,0.0,0.012,0.999
2026/01/08 10:03:35.663,-0.001,0.014,1.0
2026/01/08 10:03:35.684,-0.001,0.011,0.999
2026/01/08 10:03:35.704,0.002,0.008,1.004
2026/01/08 10:03:35.724,0.001,0.014,0.998
2026/01/08 10:03:35.745,-0.001,0.011,0.999
2026/01/08 10:03:35.765,-0.002,0.01,0.999
2026/01/08 10:03:35.785,0.0,0.006,1.001
2026/01/08 10:03:35.806,0.0,0.01,0.997
2026/01/08 10:03:35.826,-0.002,0.013,0.998
2026/01/08 10:03:35.846,-0.002,0.013,1.0
2026/01/08 10:03:35.867,0.002,0.014,1.002
2026/01/08 10:03:35.887,0.003,0.012,1.001
2026/01/08 10:03:35.907,-0.001,0.013,0.999
2026/01/08 10:03:35.928,-0.001,0.004,1.001
2026/01/08 10:03:35.948,-0.001,0.011,1.0
2026/01/08 10:03:35.968,0.001,0.011,1.001
2026/01/08 10:03:35.989,0.005,0.01,1.004
2026/01/08 10:03:36.009,0.001,0.016,1.0
2026/01/08 10:03:36.029,-0.002,0.009,1.002
2026/01/08 10:03:36.050,-0.002,0.011,0.999
2026/01/08 10:03:36.070,-0.003,0.009,0.999
2026/01/08 10:03:36.090,-0.005,0.007,0.998
2026/01/08 10:03:36.111,0.003,0.01,0.998
2026/01/08 10:03:36.131,0.001,0.006,1.0
2026/01/08 10:03:36.151,0.004,0.011,1.0
2026/01/08 10:03:36.172,0.001,0.009,0.999
2026/01/08 10:03:36.192,-0.001,0.013,1.0
2026/01/08 10:03:36.212,0.001,0.011,1.001
2026/01/08 10:03:36.233,0.005,0.009,0.999
2026/01/08 10:03:36.253,0.001,0.011,0.999
2026/01/08 10:03:36.273,0.001,0.01,0.998
2026/01/08 10:03:36.294,-0.001,0.011,0.997
2026/01/08 10:03:36.314,-0.002,0.012,1.003
2026/01/08 10:03:36.334,0.001,0.011,0.996
2026/01/08 10:03:36.355,0.002,0.01,1.001
2026/01/08 10:03:36.375,0.006,0.008,1.001
2026/01/08 10:03:36.395,0.001,0.012,1.002
2026/01/08 10:03:36.416,-0.003,0.009,1.001
2026/01/08 10:03:36.436,0.001,0.012,1.004
2026/01/08 10:03:36.457,-0.002,0.015,1.0
2026/01/08 10:03:36.477,-0.001,0.01,0.999
2026/01/08 10:03:36.497,0.0,0.011,0.997
2026/01/08 10:03:36.518,0.002,0.009,1.002
2026/01/08 10:03:36.538,-0.003,0.012,1.001
2026/01/08 10:03:36.558,-0.002,0.011,0.999
2026/01/08 10:03:36.579,0.0,0.013,0.999
2026/01/08 10:03:36.599,0.0,0.009,0.998
2026/01/08 10:03:36.619,0.003,0.01,0.999
2026/01/08 10:03:36.640,0.001,0.008,1.0
2026/01/08 10:03:36.660,0.0,0.014,1.003
2026/01/08 10:03:36.680,-0.001,0.01,1.0
2026/01/08 10:03:36.701,-0.002,0.01,0.999
2026/01/08 10:03:36.721,-0.001,0.007,1.003
2026/01/08 10:03:36.741,-0.003,0.009,1.0
2026/01/08 10:03:36.762,-0.001,0.009,1.0
2026/01/08 10:03:36.782,-0.001,0.012,1.003
2026/01/08 10:03:36.802,0.001,0.012,0.998
2026/01/08 10:03:36.823,0.0,0.013,0.998
2026/01/08 10:03:36.843,-0.001,0.013,0.999
2026/01/08 10:03:36.863,0.001,0.006,1.001
2026/01/08 10:03:36.884,-0.001,0.01,1.0
2026/01/08 10:03:36.904,-0.001,0.011,0.999
2026/01/08 10:03:36.924,0.001,0.01,1.0
2026/01/08 10:03:36.945,-0.001,0.011,0.999
2026/01/08 10:03:36.965,-0.001,0.008,1.006
2026/01/08 10:03:36.985,-0.003,0.012,1.005
2026/01/08 10:03:37.006,-0.001,0.011,0.998
2026/01/08 10:03:37.026,-0.001,0.009,0.998
2026/01/08 10:03:37.046,0.001,0.014,0.999
2026/01/08 10:03:37.067,0.001,0.01,0.999
2026/01/08 10:03:37.087,-0.001,0.008,0.999
2026/01/08 10:03:37.107,0.001,0.011,1.002
2026/01/08 10:03:37.128,-0.001,0.01,0.999
2026/01/08 10:03:37.148,0.0,0.009,1.003
2026/01/08 10:03:37.168,0.0,0.01,1.002
2026/01/08 10:03:37.189,0.0,0.009,0.998
2026/01/08 10:03:37.209,0.0,0.009,0.999
2026/01/08 10:03:37.229,-0.002,0.01,1.001
2026/01/08 10:03:37.250,0.002,0.011,1.001
2026/01/08 10:03:37.270,-0.002,0.01,1.002
2026/01/08 10:03:37.291,0.0,0.01,1.0
2026/01/08 10:03:37.311,-0.002,0.016,0.997
2026/01/08 10:03:37.331,0.001,0.009,1.001
2026/01/08 10:03:37.352,0.0,0.009,0.998
2026/01/08 10:03:37.372,-0.002,0.009,0.998
2026/01/08 10:03:37.392,0.001,0.013,0.999
2026/01/08 10:03:37.413,-0.002,0.012,0.996
2026/01/08 10:03:37.433,0.001,0.011,1.002
2026/01/08 10:03:37.453,-0.003,0.012,1.002
2026/01/08 10:03:37.474,0.002,0.014,0.994
2026/01/08 10:03:37.494,-0.002,0.011,1.0
2026/01/08 10:03:37.514,0.004,0.015,1.0
2026/01/08 10:03:37.535,0.004,0.015,1.005
2026/01/08 10:03:37.555,-0.001,0.013,1.001
2026/01/08 10:03:37.575,-0.003,0.007,1.0
2026/01/08 10:03:37.596,-0.004,0.007,1.004
2026/01/08 10:03:37.616,-0.001,0.013,1.002
2026/01/08 10:03:37.636,-0.003,0.009,1.002
2026/01/08 10:03:37.657,-0.001,0.011,1.006
2026/01/08 10:03:37.677,0.002,0.01,0.993
2026/01/08 10:03:37.697,-0.003,0.014,0.998
2026/01/08 10:03:37.718,0.0,0.01,0.999
2026/01/08 10:03:37.738,0.002,0.012,1.002
2026/01/08 10:03:37.758,0.002,0.011,0.999
2026/01/08 10:03:37.779,0.0,0.008,1.0
2026/01/08 10:03:37.799,0.006,0.012,0.998
2026/01/08 10:03:37.819,0.001,0.011,0.996
2026/01/08 10:03:37.840,0.003,0.013,1.003
2026/01/08 10:03:37.860,0.001,0.009,0.995
2026/01/08 10:03:37.880,0.0,0.012,1.0
2026/01/08 10:03:37.901,-0.001,0.01,1.0
2026/01/08 10:03:37.921,-0.001,0.009,0.997
2026/01/08 10:03:37.941,-0.001,0.015,1.003
2026/01/08 10:03:37.962,-0.003,0.012,1.0
2026/01/08 10:03:37.982,0.001,0.014,0.996
2026/01/08 10:03:38.002,-0.002,0.012,1.002
2026/01/08 10:03:38.023,0.003,0.009,1.0
2026/01/08 10:03:38.043,-0.001,0.011,0.996
2026/01/08 10:03:38.063,0.001,0.012,0.997
2026/01/08 10:03:38.084,0.0,0.008,1.001
2026/01/08 10:03:38.104,-0.003,0.01,1.002
2026/01/08 10:03:38.125,-0.002,0.006,0.997
2026/01/08 10:03:38.145,0.004,0.014,0.998
2026/01/08 10:03:38.165,-0.002,0.01,1.003
2026/01/08 10:03:38.186,-0.003,0.008,1.002
2026/01/08 10:03:38.206,0.001,0.008,1.001
2026/01/08 10:03:38.226,-0.001,0.008,1.002
2026/01/08 10:03:38.247,-0.001,0.009,1.001
2026/01/08 10:03:38.267,0.0,0.012,0.999
2026/01/08 10:03:38.287,-0.002,0.01,1.003
2026/01/08 10:03:38.308,-0.002,0.013,1.0
2026/01/08 10:03:38.328,-0.001,0.008,1.0
2026/01/08 10:03:38.348,-0.003,0.014,0.999
2026/01/08 10:03:38.369,-0.004,0.015,0.999
2026/01/08 10:03:38.389,0.001,0.014,1.004
2026/01/08 10:03:38.409,-0.001,0.009,0.997
2026/01/08 10:03:38.430,-0.001,0.013,1.0
2026/01/08 10:03:38.450,0.001,0.012,0.999
2026/01/08 10:03:38.470,0.001,0.012,1.0
2026/01/08 10:03:38.491,0.001,0.014,1.0
2026/01/08 10:03:38.511,-0.002,0.016,1.002
2026/01/08 10:03:38.531,-0.001,0.01,1.003
2026/01/08 10:03:38.552,-0.001,0.012,1.002
2026/01/08 10:03:38.572,0.001,0.011,1.002
2026/01/08 10:03:38.592,-0.004,0.009,0.999
2026/01/08 10:03:38.613,0.0,0.013,1.002
2026/01/08 10:03:38.633,-0.001,0.012,1.004
2026/01/08 10:03:38.653,-0.002,0.007,0.997
2026/01/08 10:03:38.674,0.001,0.012,0.998
2026/01/08 10:03:38.694,0.001,0.013,1.001
2026/01/08 10:03:38.714,-0.004,0.011,1.0
2026/01/08 10:03:38.735,-0.002,0.014,1.002
2026/01/08 10:03:38.755,0.0,0.008,0.997
2026/01/08 10:03:38.775,-0.001,0.011,0.999
2026/01/08 10:03:38.796,0.001,0.011,1.0
2026/01/08 10:03:38.816,0.002,0.012,1.0
2026/01/08 10:03:38.836,-0.002,0.009,1.003
2026/01/08 10:03:38.857,0.0,0.011,1.004
2026/01/08 10:03:38.877,-0.001,0.01,0.999
2026/01/08 10:03:38.898,0.004,0.012,1.001
2026/01/08 10:03:38.918,-0.002,0.013,1.0
2026/01/08 10:03:38.938,0.001,0.01,1.0
2026/01/08 10:03:38.959,0.0,0.014,0.996
2026/01/08 10:03:38.979,-0.001,0.013,1.001
2026/01/08 10:03:38.999,0.001,0.011,1.002
2026/01/08 10:03:39.020,0.002,0.014,1.001
2026/01/08 10:03:39.040,0.001,0.008,0.999
2026/01/08 10:03:39.060,-0.003,0.011,0.998
2026/01/08 10:03:39.081,0.0,0.009,1.0
2026/01/08 10:03:39.101,0.0,0.009,1.003
2026/01/08 10:03:39.121,0.002,0.01,0.998
2026/01/08 10:03:39.142,0.001,0.01,0.999
2026/01/08 10:03:39.162,-0.004,0.009,1.002
2026/01/08 10:03:39.182,0.001,0.013,0.999
2026/01/08 10:03:39.203,0.001,0.012,0.998
2026/01/08 10:03:39.223,-0.002,0.011,1.002
2026/01/08 10:03:39.243,0.0,0.007,0.999
2026/01/08 10:03:39.264,-0.002,0.012,0.992
2026/01/08 10:03:39.284,-0.003,0.016,0.994
2026/01/08 10:03:39.304,0.001,0.011,1.001
2026/01/08 10:03:39.325,-0.001,0.01,0.999
2026/01/08 10:03:39.345,0.004,0.012,0.999
2026/01/08 10:03:39.365,0.004,0.014,0.999
2026/01/08 10:03:39.386,0.001,0.008,1.0
2026/01/08 10:03:39.406,-0.003,0.01,1.004
2026/01/08 10:03:39.426,-0.001,0.013,1.001
2026/01/08 10:03:39.447,0.0,0.01,1.002
2026/01/08 10:03:39.467,0.001,0.013,1.002
2026/01/08 10:03:39.487,-0.003,0.011,0.997
2026/01/08 10:03:39.508,0.002,0.009,1.0
2026/01/08 10:03:39.528,0.002,0.013,0.997
2026/01/08 10:03:39.548,0.0,0.01,1.002
2026/01/08 10:03:39.569,0.001,0.012,0.994
2026/01/08 10:03:39.589,-0.002,0.01,1.001
2026/01/08 10:03:39.609,-0.001,0.013,0.996
2026/01/08 10:03:39.630,0.001,0.014,1.003
2026/01/08 10:03:39.650,0.001,0.014,1.001
2026/01/08 10:03:39.670,0.002,0.011,0.999
2026/01/08 10:03:39.691,0.0,0.007,1.001
2026/01/08 10:03:39.711,-0.002,0.007,1.001
2026/01/08 10:03:39.732,0.003,0.01,0.996
2026/01/08 10:03:39.752,-0.004,0.006,1.002
2026/01/08 10:03:39.772,0.001,0.015,1.001
2026/01/08 10:03:39.793,0.004,0.01,0.999
2026/01/08 10:03:39.813,0.003,0.008,0.999
2026/01/08 10:03:39.833,0.0,0.014,1.004
2026/01/08 10:03:39.854,0.001,0.009,0.998
2026/01/08 10:03:39.874,0.002,0.007,1.001
2026/01/08 10:03:39.894,0.0,0.009,0.999
2026/01/08 10:03:39.915,0.0,0.011,1.001
2026/01/08 10:03:39.935,-0.002,0.01,0.999
2026/01/08 10:03:39.955,0.0,0.013,0.997
2026/01/08 10:03:39.976,-0.002,0.014,0.999
2026/01/08 10:03:39.996,0.002,0.012,1.0
2026/01/08 10:03:40.016,0.004,0.008,0.999
2026/01/08 10:03:40.037,-0.001,0.013,1.003
2026/01/08 10:03:40.057,0.0,0.014,1.0
2026/01/08 10:03:40.077,-0.001,0.01,0.998
2026/01/08 10:03:40.098,-0.003,0.014,1.001
2026/01/08 10:03:40.118,0.0,0.009,1.002
2026/01/08 10:03:40.138,0.001,0.009,0.997
2026/01/08 10:03:40.159,-0.002,0.009,1.003
2026/01/08 10:03:40.179,0.002,0.01,0.999
2026/01/08 10:03:40.199,0.0,0.015,1.001
2026/01/08 10:03:40.220,0.002,0.009,1.001
2026/01/08 10:03:40.240,-0.001,0.01,0.999
2026/01/08 10:03:40.260,-0.001,0.007,1.002
2026/01/08 10:03:40.281,0.001,0.008,1.0
2026/01/08 10:03:40.301,0.002,0.011,0.998
2026/01/08 10:03:40.321,0.0,0.014,1.004
2026/01/08 10:03:40.342,0.0,0.011,1.002
2026/01/08 10:03:40.362,-0.002,0.012,1.003
2026/01/08 10:03:40.382,0.003,0.009,0.995
2026/01/08 10:03:40.403,-0.002,0.01,0.999
2026/01/08 10:03:40.423,0.004,0.01,1.001
2026/01/08 10:03:40.443,0.001,0.013,1.003
2026/01/08 10:03:40.464,0.0,0.013,1.002
2026/01/08 10:03:40.484,-0.001,0.013,0.999
2026/01/08 10:03:40.504,-0.001,0.011,0.998
2026/01/08 10:03:40.525,-0.001,0.01,0.997
2026/01/08 10:03:40.545,-0.003,0.007,0.998
2026/01/08 10:03:40.566,0.001,0.011,0.997
2026/01/08 10:03:40.586,-0.001,0.013,0.999
2026/01/08 10:03:40.606,0.001,0.013,1.0
2026/01/08 10:03:40.627,-0.002,0.01,0.999
2026/01/08 10:03:40.647,0.001,0.01,1.003
2026/01/08 10:03:40.667,0.003,0.008,0.998
2026/01/08 10:03:40.688,-0.002,0.01,1.0
2026/01/08 10:03:40.708,-0.007,0.009,1.006
2026/01/08 10:03:40.728,-0.002,0.013,1.001
2026/01/08 10:03:40.749,0.001,0.01,1.001
2026/01/08 10:03:40.769,0.0,0.01,0.998
2026/01/08 10:03:40.789,0.001,0.01,0.999
2026/01/08 10:03:40.810,0.0,0.01,1.001
2026/01/08 10:03:40.830,-0.001,0.007,1.002
2026/01/08 10:03:40.850,0.0,0.011,1.004
2026/01/08 10:03:40.871,0.003,0.007,1.001
2026/01/08 10:03:40.891,-0.003,0.012,0.999
2026/01/08 10:03:40.911,-0.001,0.012,1.002
2026/01/08 10:03:40.932,-0.003,0.009,0.997
2026/01/08 10:03:40.952,0.001,0.011,0.996
2026/01/08 10:03:40.972,0.001,0.01,0.997
2026/01/08 10:03:40.993,0.002,0.012,0.999
2026/01/08 10:03:41.013,0.0,0.008,0.999
2026/01/08 10:03:41.033,-0.001,0.013,1.002
2026/01/08 10:03:41.054,0.001,0.006,1.007
2026/01/08 10:03:41.074,0.001,0.009,1.001
2026/01/08 10:03:41.094,0.002,0.011,1.001
2026/01/08 10:03:41.115,-0.002,0.011,1.002
2026/01/08 10:03:41.135,-0.001,0.007,0.999
2026/01/08 10:03:41.155,-0.002,0.01,1.001
2026/01/08 10:03:41.176,-0.003,0.012,0.995
2026/01/08 10:03:41.196,0.0,0.012,1.003
2026/01/08 10:03:41.216,-0.002,0.014,0.999
2026/01/08 10:03:41.237,-0.001,0.009,1.001
2026/01/08 10:03:41.257,-0.001,0.01,1.001
2026/01/08 10:03:41.277,0.0,0.011,1.0
2026/01/08 10:03:41.298,0.0,0.01,1.003
2026/01/08 10:03:41.318,-0.003,0.012,0.999
2026/01/08 10:03:41.338,0.0,0.01,1.002
2026/01/08 10:03:41.359,0.002,0.012,1.002
2026/01/08 10:03:41.379,-0.001,0.013,1.002
2026/01/08 10:03:41.399,0.002,0.012,0.999
2026/01/08 10:03:41.420,-0.001,0.011,1.001
2026/01/08 10:03:41.440,0.004,0.013,0.999
2026/01/08 10:03:41.461,0.002,0.01,0.998
2026/01/08 10:03:41.481,-0.001,0.004,0.998
2026/01/08 10:03:41.501,-0.001,0.013,1.001
2026/01/08 10:03:41.522,0.0,0.01,0.999
2026/01/08 10:03:41.542,-0.003,0.013,0.999
2026/01/08 10:03:41.562,0.0,0.011,0.998
2026/01/08 10:03:41.583,-0.002,0.013,0.997
2026/01/08 10:03:41.603,0.003,0.014,1.001
2026/01/08 10:03:41.623,0.002,0.014,0.996
2026/01/08 10:03:41.644,-0.002,0.011,1.001
2026/01/08 10:03:41.664,0.0,0.012,1.004
2026/01/08 10:03:41.684,0.001,0.016,1.0
2026/01/08 10:03:41.705,0.001,0.013,1.001
2026/01/08 10:03:41.725,0.0,0.011,1.004
2026/01/08 10:03:41.745,0.0,0.012,1.001
2026/01/08 10:03:41.766,0.0,0.009,1.0
2026/01/08 10:03:41.786,-0.001,0.008,1.002
2026/01/08 10:03:41.806,0.0,0.008,0.999
2026/01/08 10:03:41.827,0.0,0.012,0.999
2026/01/08 10:03:41.847,-0.001,0.01,1.0
2026/01/08 10:03:41.867,-0.004,0.013,1.002
2026/01/08 10:03:41.888,-0.002,0.009,0.999
2026/01/08 10:03:41.908,-0.002,0.015,0.999
2026/01/08 10:03:41.928,0.0,0.013,0.999
2026/01/08 10:03:41.949,0.002,0.013,1.0
2026/01/08 10:03:41.969,0.0,0.009,0.997
2026/01/08 10:03:41.989,-0.002,0.011,1.003
2026/01/08 10:03:42.010,-0.002,0.008,1.001
2026/01/08 10:03:42.030,-0.004,0.012,1.003
2026/01/08 10:03:42.050,0.001,0.008,0.998
2026/01/08 10:03:42.071,0.002,0.008,0.999
2026/01/08 10:03:42.091,-0.001,0.013,0.999
2026/01/08 10:03:42.111,-0.002,0.011,1.001
2026/01/08 10:03:42.132,0.004,0.011,1.001
2026/01/08 10:03:42.152,-0.001,0.011,1.004
2026/01/08 10:03:42.172,-0.003,0.011,0.996
2026/01/08 10:03:42.193,-0.001,0.009,1.0
2026/01/08 10:03:42.213,0.001,0.013,0.999
2026/01/08 10:03:42.233,-0.003,0.011,1.001
2026/01/08 10:03:42.254,0.0,0.013,1.001
2026/01/08 10:03:42.274,0.0,0.012,1.001
2026/01/08 10:03:42.294,0.0,0.01,1.002
2026/01/08 10:03:42.315,-0.002,0.012,1.001
2026/01/08 10:03:42.335,0.002,0.012,0.999
2026/01/08 10:03:42.356,0.002,0.008,0.998
2026/01/08 10:03:42.376,-0.001,0.012,1.001
2026/01/08 10:03:42.396,0.0,0.012,0.999
2026/01/08 10:03:42.417,-0.002,0.01,0.996
2026/01/08 10:03:42.437,-0.003,0.009,0.999
2026/01/08 10:03:42.457,0.0,0.009,1.001
2026/01/08 10:03:42.478,0.001,0.01,0.997
2026/01/08 10:03:42.498,0.002,0.012,0.998
2026/01/08 10:03:42.518,-0.001,0.011,1.0
2026/01/08 10:03:42.539,-0.003,0.012,1.001
2026/01/08 10:03:42.559,-0.003,0.013,0.999
2026/01/08 10:03:42.579,0.001,0.01,0.999
2026/01/08 10:03:42.600,0.001,0.011,1.003
2026/01/08 10:03:42.620,-0.001,0.012,0.999
2026/01/08 10:03:42.640,0.001,0.009,0.998
2026/01/08 10:03:42.661,-0.002,0.014,1.002
2026/01/08 10:03:42.681,0.0,0.014,1.0
2026/01/08 10:03:42.701,-0.002,0.01,1.0
2026/01/08 10:03:42.722,-0.001,0.012,1.001
2026/01/08 10:03:42.742,-0.003,0.01,1.001
2026/01/08 10:03:42.762,0.003,0.01,1.0
2026/01/08 10:03:42.783,-0.001,0.012,0.999
2026/01/08 10:03:42.803,0.002,0.014,0.998
2026/01/08 10:03:42.823,0.0,0.009,1.001
2026/01/08 10:03:42.844,-0.001,0.009,0.996
2026/01/08 10:03:42.864,-0.003,0.011,1.002
2026/01/08 10:03:42.884,0.003,0.014,0.999
2026/01/08 10:03:42.905,0.002,0.013,1.002
2026/01/08 10:03:42.925,0.001,0.009,0.998
2026/01/08 10:03:42.945,-0.003,0.009,1.0
2026/01/08 10:03:42.966,-0.002,0.008,1.0
2026/01/08 10:03:42.986,-0.004,0.013,1.002
2026/01/08 10:03:43.006,-0.001,0.011,0.998
2026/01/08 10:03:43.027,0.003,0.012,1.0
2026/01/08 10:03:43.047,-0.002,0.012,0.997
2026/01/08 10:03:43.067,-0.001,0.011,1.001
2026/01/08 10:03:43.088,-0.002,0.009,1.001
2026/01/08 10:03:43.108,0.002,0.015,1.005
2026/01/08 10:03:43.128,0.002,0.016,0.999
2026/01/08 10:03:43.149,0.003,0.013,0.994
2026/01/08 10:03:43.169,0.0,0.011,1.0
2026/01/08 10:03:43.189,-0.004,0.01,1.002
2026/01/08 10:03:43.210,-0.003,0.011,1.002
2026/01/08 10:03:43.230,-0.001,0.012,1.002
2026/01/08 10:03:43.251,-0.001,0.018,1.0
2026/01/08 10:03:43.271,-0.002,0.013,1.001
2026/01/08 10:03:43.291,0.002,0.014,0.997
2026/01/08 10:03:43.312,0.001,0.011,0.998
2026/01/08 10:03:43.332,-0.003,0.009,1.001
2026/01/08 10:03:43.352,-0.001,0.014,0.997
2026/01/08 10:03:43.373,0.002,0.01,0.997
2026/01/08 10:03:43.393,-0.002,0.008,0.999
2026/01/08 10:03:43.413,0.002,0.01,0.997
2026/01/08 10:03:43.434,0.0,0.015,1.002
2026/01/08 10:03:43.454,0.004,0.01,1.0
2026/01/08 10:03:43.474,-0.001,0.01,0.998
2026/01/08 10:03:43.495,-0.001,0.013,0.999
2026/01/08 10:03:43.515,0.0,0.016,1.003
2026/01/08 10:03:43.535,0.002,0.011,1.0
2026/01/08 10:03:43.556,0.001,0.013,0.999
2026/01/08 10:03:43.576,-0.005,0.013,1.002
2026/01/08 10:03:43.596,0.003,0.01,1.002
2026/01/08 10:03:43.617,0.001,0.011,0.997
2026/01/08 10:03:43.637,0.001,0.013,0.999
2026/01/08 10:03:43.657,-0.002,0.011,1.0
2026/01/08 10:03:43.678,-0.003,0.013,1.004
2026/01/08 10:03:43.698,0.001,0.016,0.999
2026/01/08 10:03:43.718,0.001,0.006,1.001
2026/01/08 10:03:43.739,-0.001,0.013,1.002
2026/01/08 10:03:43.759,-0.002,0.013,1.001
2026/01/08 10:03:43.779,0.003,0.014,0.999
2026/01/08 10:03:43.800,-0.002,0.011,0.999
2026/01/08 10:03:43.820,0.001,0.013,0.999
2026/01/08 10:03:43.840,0.001,0.015,1.001
2026/01/08 10:03:43.861,0.001,0.011,0.995
2026/01/08 10:03:43.881,-0.002,0.007,1.001
2026/01/08 10:03:43.901,-0.002,0.012,1.0
2026/01/08 10:03:43.922,0.001,0.011,0.998
2026/01/08 10:03:43.942,0.0,0.009,0.999
2026/01/08 10:03:43.962,-0.003,0.015,0.999
2026/01/08 10:03:43.983,0.001,0.013,0.998
2026/01/08 10:03:44.003,0.0,0.011,0.997
2026/01/08 10:03:44.023,-0.001,0.01,0.998
2026/01/08 10:03:44.044,-0.004,0.012,0.997
2026/01/08 10:03:44.064,0.001,0.009,1.001
2026/01/08 10:03:44.085,0.001,0.008,0.998
2026/01/08 10:03:44.105,0.001,0.01,1.001
2026/01/08 10:03:44.125,-0.001,0.015,0.998
2026/01/08 10:03:44.146,0.0,0.009,0.998
2026/01/08 10:03:44.166,0.0,0.01,0.996
2026/01/08 10:03:44.186,-0.001,0.014,1.001
2026/01/08 10:03:44.207,0.002,0.01,1.001
2026/01/08 10:03:44.227,0.001,0.006,0.999
2026/01/08 10:03:44.247,0.001,0.011,1.001
2026/01/08 10:03:44.268,0.003,0.012,1.0
2026/01/08 10:03:44.288,-0.001,0.008,0.999
2026/01/08 10:03:44.308,-0.001,0.014,1.001
2026/01/08 10:03:44.329,0.002,0.013,1.0
2026/01/08 10:03:44.349,-0.001,0.013,1.001
2026/01/08 10:03:44.369,0.002,0.009,0.996
2026/01/08 10:03:44.390,0.001,0.011,0.998
2026/01/08 10:03:44.410,0.001,0.014,0.999
2026/01/08 10:03:44.430,-0.002,0.013,0.996
2026/01/08 10:03:44.451,0.002,0.013,1.003
2026/01/08 10:03:44.471,0.0,0.012,0.999
2026/01/08 10:03:44.491,-0.002,0.011,0.999
2026/01/08 10:03:44.512,-0.003,0.011,1.003
2026/01/08 10:03:44.532,0.001,0.011,0.999
2026/01/08 10:03:44.552,-0.001,0.004,0.998
2026/01/08 10:03:44.573,0.003,0.009,1.001
2026/01/08 10:03:44.593,0.001,0.011,1.002
2026/01/08 10:03:44.613,0.0,0.01,0.997
2026/01/08 10:03:44.634,0.002,0.01,0.999
2026/01/08 10:03:44.654,-0.005,0.01,1.0
2026/01/08 10:03:44.674,-0.002,0.01,0.996
2026/01/08 10:03:44.695,-0.002,0.014,1.0
2026/01/08 10:03:44.715,-0.003,0.014,0.999
2026/01/08 10:03:44.735,0.001,0.013,0.999
2026/01/08 10:03:44.756,0.0,0.01,0.998
2026/01/08 10:03:44.776,0.002,0.013,1.003
2026/01/08 10:03:44.796,-0.002,0.009,1.003
2026/01/08 10:03:44.817,0.002,0.014,1.0
2026/01/08 10:03:44.837,0.001,0.01,1.002
2026/01/08 10:03:44.858,0.001,0.01,0.999
2026/01/08 10:03:44.878,-0.003,0.006,0.998
2026/01/08 10:03:44.898,-0.003,0.014,1.0
2026/01/08 10:03:44.919,0.0,0.008,0.999
2026/01/08 10:03:44.939,0.003,0.013,1.002
2026/01/08 10:03:44.959,0.0,0.011,0.999
2026/01/08 10:03:44.980,0.002,0.013,1.001
2026/01/08 10:03:45.000,0.001,0.009,1.0
2026/01/08 10:03:45.020,0.0,0.009,1.003
2026/01/08 10:03:45.041,0.0,0.014,1.002
2026/01/08 10:03:45.061,-0.001,0.01,0.998
2026/01/08 10:03:45.081,-0.001,0.013,1.001
2026/01/08 10:03:45.102,0.001,0.009,1.001
2026/01/08 10:03:45.122,0.002,0.01,0.999
2026/01/08 10:03:45.142,0.0,0.01,0.997
2026/01/08 10:03:45.163,0.0,0.011,1.002
2026/01/08 10:03:45.183,-0.002,0.013,0.998
2026/01/08 10:03:45.203,0.0,0.013,1.003
2026/01/08 10:03:45.224,-0.002,0.007,0.999
2026/01/08 10:03:45.244,-0.001,0.012,1.002
2026/01/08 10:03:45.264,-0.002,0.012,0.998
2026/01/08 10:03:45.285,0.0,0.01,0.998
2026/01/08 10:03:45.305,0.001,0.012,1.002
2026/01/08 10:03:45.325,0.001,0.011,0.999
2026/01/08 10:03:45.346,-0.003,0.014,0.999
2026/01/08 10:03:45.366,0.001,0.012,1.001
2026/01/08 10:03:45.386,-0.001,0.009,1.001
2026/01/08 10:03:45.407,0.001,0.009,0.999
2026/01/08 10:03:45.427,0.002,0.012,0.998
2026/01/08 10:03:45.447,-0.001,0.012,1.0
2026/01/08 10:03:45.468,0.002,0.011,0.999
2026/01/08 10:03:45.488,0.0,0.009,0.998
2026/01/08 10:03:45.508,0.003,0.01,0.998
2026/01/08 10:03:45.529,0.001,0.009,0.999
2026/01/08 10:03:45.549,-0.001,0.011,0.997
2026/01/08 10:03:45.569,0.004,0.011,1.002
2026/01/08 10:03:45.590,-0.001,0.012,1.001
2026/01/08 10:03:45.610,0.0,0.01,0.998
2026/01/08 10:03:45.631,-0.001,0.011,1.003
2026/01/08 10:03:45.651,-0.001,0.011,0.999
2026/01/08 10:03:45.671,0.0,0.01,1.001
2026/01/08 10:03:45.692,-0.001,0.011,1.0
2026/01/08 10:03:45.712,0.0,0.008,1.0
2026/01/08 10:03:45.732,-0.001,0.012,0.999
2026/01/08 10:03:45.753,-0.001,0.011,1.0
2026/01/08 10:03:45.773,-0.002,0.009,1.003
2026/01/08 10:03:45.793,-0.003,0.016,0.998
2026/01/08 10:03:45.814,0.0,0.013,1.0
2026/01/08 10:03:45.834,0.002,0.011,1.0
2026/01/08 10:03:45.854,-0.003,0.012,1.003
2026/01/08 10:03:45.875,-0.002,0.009,1.002
2026/01/08 10:03:45.895,0.001,0.013,0.999
2026/01/08 10:03:45.915,0.002,0.009,1.001
2026/01/08 10:03:45.936,-0.001,0.011,1.004
2026/01/08 10:03:45.956,-0.002,0.016,1.001
2026/01/08 10:03:45.976,0.003,0.008,0.999
2026/01/08 10:03:45.997,0.002,0.013,1.0
2026/01/08 10:03:46.017,0.0,0.01,0.998
2026/01/08 10:03:46.037,0.002,0.012,0.998
2026/01/08 10:03:46.058,0.001,0.012,0.999
2026/01/08 10:03:46.078,0.0,0.011,1.002
2026/01/08 10:03:46.098,-0.003,0.014,1.001
2026/01/08 10:03:46.119,0.002,0.011,1.0
2026/01/08 10:03:46.139,0.002,0.01,1.002
2026/01/08 10:03:46.159,0.002,0.01,1.003
2026/01/08 10:03:46.180,-0.001,0.012,1.002
2026/01/08 10:03:46.200,-0.001,0.011,0.998
2026/01/08 10:03:46.220,-0.003,0.011,0.996
2026/01/08 10:03:46.241,-0.001,0.015,0.999
2026/01/08 10:03:46.261,0.002,0.007,1.002
2026/01/08 10:03:46.281,0.001,0.012,1.003
2026/01/08 10:03:46.302,-0.001,0.014,1.0
2026/01/08 10:03:46.322,0.0,0.012,1.001
2026/01/08 10:03:46.342,-0.001,0.014,1.001
2026/01/08 10:03:46.363,-0.003,0.009,0.999
2026/01/08 10:03:46.383,0.0,0.01,1.0
2026/01/08 10:03:46.404,0.002,0.013,0.997
2026/01/08 10:03:46.424,0.002,0.007,1.001
2026/01/08 10:03:46.444,0.0,0.009,0.999
2026/01/08 10:03:46.465,-0.003,0.014,1.0
2026/01/08 10:03:46.485,-0.001,0.015,0.999
2026/01/08 10:03:46.505,-0.003,0.012,1.0
2026/01/08 10:03:46.526,-0.002,0.015,0.998
2026/01/08 10:03:46.546,-0.001,0.01,1.001
2026/01/08 10:03:46.566,0.0,0.01,1.0
2026/01/08 10:03:46.587,0.002,0.009,1.004
2026/01/08 10:03:46.607,0.0,0.004,1.001
2026/01/08 10:03:46.627,-0.001,0.013,1.001
2026/01/08 10:03:46.648,0.0,0.013,1.001
2026/01/08 10:03:46.668,-0.001,0.01,0.998
2026/01/08 10:03:46.688,0.001,0.011,1.0
2026/01/08 10:03:46.709,-0.001,0.009,0.999
2026/01/08 10:03:46.729,-0.003,0.014,0.999
2026/01/08 10:03:46.749,-0.002,0.011,0.996
2026/01/08 10:03:46.770,-0.004,0.012,0.997
2026/01/08 10:03:46.790,0.003,0.01,0.999
2026/01/08 10:03:46.810,0.005,0.005,0.999
2026/01/08 10:03:46.831,-0.003,0.013,0.997
2026/01/08 10:03:46.851,0.001,0.008,1.0
2026/01/08 10:03:46.871,0.005,0.009,1.002
2026/01/08 10:03:46.892,0.003,0.013,1.001
2026/01/08 10:03:46.912,0.001,0.012,0.998
2026/01/08 10:03:46.932,0.0,0.012,0.999
2026/01/08 10:03:46.953,-0.003,0.011,0.999
2026/01/08 10:03:46.973,-0.004,0.011,0.997
2026/01/08 10:03:46.993,-0.002,0.008,1.003
2026/01/08 10:03:47.014,-0.001,0.009,0.996
2026/01/08 10:03:47.034,0.001,0.016,0.999
2026/01/08 10:03:47.054,0.001,0.012,0.999
2026/01/08 10:03:47.075,0.002,0.011,0.998
2026/01/08 10:03:47.095,0.0,0.013,0.996
2026/01/08 10:03:47.115,0.001,0.01,0.996
2026/01/08 10:03:47.136,-0.003,0.01,0.999
2026/01/08 10:03:47.156,-0.003,0.012,1.001
2026/01/08 10:03:47.176,-0.002,0.013,0.999
2026/01/08 10:03:47.197,-0.001,0.009,0.999
2026/01/08 10:03:47.217,0.0,0.012,1.002
2026/01/08 10:03:47.238,0.0,0.01,1.003
2026/01/08 10:03:47.258,0.002,0.01,1.001
2026/01/08 10:03:47.278,0.001,0.009,1.003
2026/01/08 10:03:47.299,-0.003,0.012,0.999
2026/01/08 10:03:47.319,0.003,0.01,0.997
2026/01/08 10:03:47.339,0.001,0.009,1.0
2026/01/08 10:03:47.360,0.001,0.009,0.999
2026/01/08 10:03:47.380,0.001,0.017,1.001
2026/01/08 10:03:47.400,0.003,0.013,0.996
2026/01/08 10:03:47.421,-0.001,0.014,1.0
2026/01/08 10:03:47.441,-0.002,0.015,1.001
2026/01/08 10:03:47.461,-0.001,0.013,1.004
2026/01/08 10:03:47.482,0.0,0.01,0.999
2026/01/08 10:03:47.502,0.001,0.008,1.001
2026/01/08 10:03:47.522,0.004,0.013,0.999
2026/01/08 10:03:47.543,0.001,0.01,1.002
2026/01/08 10:03:47.563,-0.001,0.012,0.999
2026/01/08 10:03:47.583,0.001,0.012,1.0
2026/01/08 10:03:47.604,-0.001,0.016,1.001
2026/01/08 10:03:47.624,-0.001,0.017,1.002
2026/01/08 10:03:47.644,0.0,0.012,1.001
2026/01/08 10:03:47.665,0.001,0.011,0.997
2026/01/08 10:03:47.685,0.001,0.01,0.997
2026/01/08 10:03:47.705,0.001,0.013,1.001
2026/01/08 10:03:47.726,-0.001,0.007,0.995
2026/01/08 10:03:47.746,-0.002,0.009,0.998
2026/01/08 10:03:47.766,-0.001,0.014,0.997
2026/01/08 10:03:47.787,-0.002,0.012,0.998
2026/01/08 10:03:47.807,0.0,0.011,1.0
2026/01/08 10:03:47.827,0.001,0.011,1.003
2026/01/08 10:03:47.848,0.001,0.009,1.001
2026/01/08 10:03:47.868,-0.001,0.014,0.999
2026/01/08 10:03:47.888,-0.001,0.012,0.999
2026/01/08 10:03:47.909,0.0,0.011,1.0
2026/01/08 10:03:47.929,0.002,0.011,1.0
2026/01/08 10:03:47.949,-0.002,0.009,0.996
2026/01/08 10:03:47.970,0.0,0.011,1.0
2026/01/08 10:03:47.990,0.0,0.014,0.997
2026/01/08 10:03:48.010,0.002,0.009,1.001
2026/01/08 10:03:48.031,-0.003,0.011,0.997
2026/01/08 10:03:48.051,-0.003,0.009,0.993
2026/01/08 10:03:48.071,0.0,0.011,1.001
2026/01/08 10:03:48.092,0.001,0.012,0.998
2026/01/08 10:03:48.112,0.0,0.007,0.996
2026/01/08 10:03:48.133,0.0,0.009,0.999
2026/01/08 10:03:48.153,0.003,0.013,0.995
2026/01/08 10:03:48.173,-0.001,0.008,1.0
2026/01/08 10:03:48.194,0.003,0.009,0.999
2026/01/08 10:03:48.214,0.002,0.012,1.003
2026/01/08 10:03:48.234,-0.001,0.011,1.002
2026/01/08 10:03:48.255,-0.003,0.012,1.0
2026/01/08 10:03:48.275,0.0,0.011,1.001
2026/01/08 10:03:48.295,-0.003,0.011,1.0
2026/01/08 10:03:48.316,-0.003,0.006,1.005
2026/01/08 10:03:48.336,0.002,0.013,0.998
2026/01/08 10:03:48.356,-0.001,0.008,0.998
2026/01/08 10:03:48.377,0.001,0.009,1.002
2026/01/08 10:03:48.397,-0.002,0.011,0.999
2026/01/08 10:03:48.417,-0.003,0.009,0.998
2026/01/08 10:03:48.438,-0.002,0.012,0.998
2026/01/08 10:03:48.458,-0.001,0.012,0.996
2026/01/08 10:03:48.478,-0.001,0.012,0.994
2026/01/08 10:03:48.499,-0.001,0.01,1.001
2026/01/08 10:03:48.519,-0.001,0.01,1.0
2026/01/08 10:03:48.539,0.001,0.014,0.998
2026/01/08 10:03:48.560,0.001,0.008,0.999
2026/01/08 10:03:48.580,0.002,0.012,1.001
2026/01/08 10:03:48.600,0.0,0.012,0.996
2026/01/08 10:03:48.621,-0.001,0.013,0.998
2026/01/08 10:03:48.641,0.0,0.012,0.996
2026/01/08 10:03:48.661,0.002,0.008,0.999
2026/01/08 10:03:48.682,0.0,0.012,1.001
2026/01/08 10:03:48.702,-0.001,0.01,0.998
2026/01/08 10:03:48.722,0.001,0.009,1.001
2026/01/08 10:03:48.743,0.002,0.013,0.999
2026/01/08 10:03:48.763,-0.003,0.009,1.001
2026/01/08 10:03:48.783,0.002,0.009,0.995
2026/01/08 10:03:48.804,-0.001,0.009,0.998
2026/01/08 10:03:48.824,0.001,0.008,0.999
2026/01/08 10:03:48.844,0.001,0.009,1.002
2026/01/08 10:03:48.865,0.001,0.012,0.999
2026/01/08 10:03:48.885,0.002,0.01,1.0
2026/01/08 10:03:48.905,0.002,0.011,0.999
2026/01/08 10:03:48.926,0.003,0.009,1.0
2026/01/08 10:03:48.946,0.0,0.009,1.0
2026/01/08 10:03:48.967,-0.001,0.009,0.999
2026/01/08 10:03:48.987,0.0,0.014,0.999
2026/01/08 10:03:49.007,0.0,0.013,0.999
2026/01/08 10:03:49.028,0.001,0.01,0.999
2026/01/08 10:03:49.048,0.002,0.011,0.999
2026/01/08 10:03:49.068,0.001,0.009,0.998
2026/01/08 10:03:49.089,-0.002,0.01,0.999
2026/01/08 10:03:49.109,-0.001,0.01,0.998
2026/01/08 10:03:49.129,0.004,0.011,1.001
2026/01/08 10:03:49.150,0.003,0.006,1.001
2026/01/08 10:03:49.170,0.001,0.012,0.999
2026/01/08 10:03:49.190,0.0,0.012,1.003
2026/01/08 10:03:49.211,-0.002,0.013,1.002
2026/01/08 10:03:49.231,0.003,0.013,1.001
2026/01/08 10:03:49.251,0.0,0.017,1.0
2026/01/08 10:03:49.272,0.002,0.016,0.996
2026/01/08 10:03:49.292,0.0,0.01,0.996
2026/01/08 10:03:49.312,-0.004,0.012,1.0
2026/01/08 10:03:49.333,0.003,0.013,1.001
2026/01/08 10:03:49.353,0.003,0.011,0.999
2026/01/08 10:03:49.373,0.001,0.012,1.0
2026/01/08 10:03:49.394,0.004,0.013,0.997
2026/01/08 10:03:49.414,0.002,0.012,0.998
2026/01/08 10:03:49.434,-0.004,0.013,1.0
2026/01/08 10:03:49.455,0.0,0.009,1.001
2026/01/08 10:03:49.475,0.0,0.011,1.001
2026/01/08 10:03:49.495,-0.002,0.01,1.001
2026/01/08 10:03:49.516,0.001,0.009,0.996
2026/01/08 10:03:49.536,0.003,0.008,0.999
2026/01/08 10:03:49.556,0.0,0.012,1.0
2026/01/08 10:03:49.577,0.001,0.01,0.999
2026/01/08 10:03:49.597,-0.002,0.009,1.0
2026/01/08 10:03:49.617,-0.001,0.012,1.001
2026/01/08 10:03:49.638,-0.001,0.009,1.003
2026/01/08 10:03:49.658,0.0,0.009,1.003
2026/01/08 10:03:49.678,0.001,0.011,1.0
2026/01/08 10:03:49.699,-0.001,0.013,1.003
2026/01/08 10:03:49.719,0.0,0.012,1.001
2026/01/08 10:03:49.739,-0.002,0.009,0.997
2026/01/08 10:03:49.760,-0.001,0.011,0.997
2026/01/08 10:03:49.780,-0.002,0.012,0.998
2026/01/08 10:03:49.801,-0.001,0.009,1.0
2026/01/08 10:03:49.821,0.0,0.011,0.996
2026/01/08 10:03:49.841,0.0,0.01,0.999
2026/01/08 10:03:49.862,-0.001,0.01,0.999
2026/01/08 10:03:49.882,0.003,0.012,0.998
2026/01/08 10:03:49.902,0.005,0.014,0.999
2026/01/08 10:03:49.923,-0.003,0.014,0.999
2026/01/08 10:03:49.943,0.007,0.01,1.0
2026/01/08 10:03:49.963,0.0,0.01,0.999
2026/01/08 10:03:49.984,-0.003,0.007,1.001
2026/01/08 10:03:50.004,0.0,0.01,1.0
2026/01/08 10:03:50.024,0.0,0.013,1.002
2026/01/08 10:03:50.045,0.001,0.008,0.997
2026/01/08 10:03:50.065,0.0,0.013,0.998
2026/01/08 10:03:50.085,0.0,0.008,0.999
2026/01/08 10:03:50.106,-0.001,0.008,1.003
2026/01/08 10:03:50.126,-0.002,0.013,1.0
2026/01/08 10:03:50.146,0.001,0.012,1.004
2026/01/08 10:03:50.167,0.0,0.011,0.997
2026/01/08 10:03:50.187,-0.003,0.009,0.999
2026/01/08 10:03:50.207,-0.001,0.01,0.998
2026/01/08 10:03:50.228,0.001,0.008,1.001
2026/01/08 10:03:50.248,-0.002,0.009,0.996
2026/01/08 10:03:50.268,0.004,0.013,0.999
2026/01/08 10:03:50.289,0.001,0.011,1.001
2026/01/08 10:03:50.309,0.0,0.01,0.995
2026/01/08 10:03:50.329,0.001,0.013,1.0
2026/01/08 10:03:50.350,0.0,0.011,1.0
2026/01/08 10:03:50.370,0.002,0.013,1.0
2026/01/08 10:03:50.390,-0.001,0.008,1.002
2026/01/08 10:03:50.411,-0.001,0.008,0.999
2026/01/08 10:03:50.431,-0.001,0.014,1.0
2026/01/08 10:03:50.451,0.002,0.006,1.001
2026/01/08 10:03:50.472,0.002,0.012,1.003
2026/01/08 10:03:50.492,0.004,0.008,0.999
2026/01/08 10:03:50.512,-0.001,0.015,0.999
2026/01/08 10:03:50.533,0.001,0.007,1.0
2026/01/08 10:03:50.553,0.001,0.01,1.002
2026/01/08 10:03:50.573,0.0,0.012,1.0
2026/01/08 10:03:50.594,0.004,0.007,1.0
2026/01/08 10:03:50.614,0.001,0.013,0.997
2026/01/08 10:03:50.634,0.003,0.009,0.998
2026/01/08 10:03:50.655,0.0,0.008,1.0
2026/01/08 10:03:50.675,0.002,0.008,1.0
2026/01/08 10:03:50.696,0.001,0.011,0.998
2026/01/08 10:03:50.716,-0.001,0.01,0.997
2026/01/08 10:03:50.736,-0.003,0.012,0.999
2026/01/08 10:03:50.757,0.003,0.01,1.001
2026/01/08 10:03:50.777,0.002,0.009,1.0
2026/01/08 10:03:50.797,-0.001,0.011,0.998
2026/01/08 10:03:50.818,0.003,0.012,0.997
2026/01/08 10:03:50.838,0.001,0.011,1.0
2026/01/08 10:03:50.858,0.004,0.007,0.994
2026/01/08 10:03:50.879,0.003,0.012,1.0
2026/01/08 10:03:50.899,0.0,0.009,0.999
2026/01/08 10:03:50.919,-0.001,0.015,1.0
2026/01/08 10:03:50.940,0.001,0.013,0.996
2026/01/08 10:03:50.960,0.0,0.008,1.0
2026/01/08 10:03:50.980,0.004,0.015,1.0
2026/01/08 10:03:51.001,0.005,0.011,0.999
2026/01/08 10:03:51.021,0.0,0.011,0.995
2026/01/08 10:03:51.041,-0.001,0.01,0.996
2026/01/08 10:03:51.062,0.0,0.009,0.999
2026/01/08 10:03:51.082,0.001,0.01,1.0
2026/01/08 10:03:51.102,-0.002,0.009,1.003
2026/01/08 10:03:51.123,0.005,0.011,0.999
2026/01/08 10:03:51.143,0.002,0.009,1.0
2026/01/08 10:03:51.163,0.002,0.014,0.997
2026/01/08 10:03:51.184,0.001,0.013,0.999
2026/01/08 10:03:51.204,0.0,0.008,0.999
2026/01/08 10:03:51.224,0.001,0.012,0.996
2026/01/08 10:03:51.245,0.0,0.011,1.001
2026/01/08 10:03:51.265,0.005,0.012,0.998
2026/01/08 10:03:51.285,0.003,0.012,0.999
2026/01/08 10:03:51.306,0.002,0.012,1.0
2026/01/08 10:03:51.326,0.0,0.007,0.999
2026/01/08 10:03:51.346,0.0,0.01,0.998
2026/01/08 10:03:51.367,0.002,0.011,0.999
2026/01/08 10:03:51.387,0.002,0.01,0.996
2026/01/08 10:03:51.407,0.001,0.01,0.999
2026/01/08 10:03:51.428,0.002,0.014,0.999
2026/01/08 10:03:51.448,0.002,0.009,1.001
2026/01/08 10:03:51.468,0.002,0.014,1.001
2026/01/08 10:03:51.489,0.001,0.012,0.997
2026/01/08 10:03:51.509,-0.001,0.012,0.999
2026/01/08 10:03:51.530,0.001,0.008,0.995
2026/01/08 10:03:51.550,-0.001,0.012,0.995
2026/01/08 10:03:51.570,0.003,0.009,0.998
2026/01/08 10:03:51.591,0.0,0.01,0.999
2026/01/08 10:03:51.611,0.001,0.01,0.998
2026/01/08 10:03:51.631,0.001,0.009,0.999
2026/01/08 10:03:51.652,0.004,0.01,0.999
2026/01/08 10:03:51.672,0.001,0.012,0.999
2026/01/08 10:03:51.692,-0.001,0.008,1.0
2026/01/08 10:03:51.713,0.001,0.01,0.998
2026/01/08 10:03:51.733,0.002,0.013,0.997
2026/01/08 10:03:51.753,0.003,0.012,0.997
2026/01/08 10:03:51.774,-0.003,0.012,1.0
2026/01/08 10:03:51.794,-0.001,0.01,1.002
2026/01/08 10:03:51.814,0.001,0.009,0.999
2026/01/08 10:03:51.835,0.002,0.01,0.996
2026/01/08 10:03:51.855,0.002,0.009,1.002
2026/01/08 10:03:51.875,0.002,0.011,0.999
2026/01/08 10:03:51.896,0.005,0.013,0.998
2026/01/08 10:03:51.916,0.004,0.01,0.997
2026/01/08 10:03:51.936,0.001,0.008,1.001
2026/01/08 10:03:51.957,-0.002,0.013,0.999
2026/01/08 10:03:51.977,-0.002,0.012,0.996
2026/01/08 10:03:51.997,0.002,0.01,0.999
2026/01/08 10:03:52.018,0.003,0.01,0.998
2026/01/08 10:03:52.038,-0.001,0.011,0.998
2026/01/08 10:03:52.058,-0.001,0.014,1.001
2026/01/08 10:03:52.079,0.0,0.012,1.002
2026/01/08 10:03:52.099,0.006,0.011,1.0
2026/01/08 10:03:52.119,0.001,0.014,0.998
2026/01/08 10:03:52.140,-0.001,0.011,0.995
2026/01/08 10:03:52.160,0.002,0.01,1.001
2026/01/08 10:03:52.180,0.004,0.013,0.997
2026/01/08 10:03:52.201,0.003,0.01,1.001
2026/01/08 10:03:52.221,0.001,0.011,0.999
2026/01/08 10:03:52.241,0.004,0.016,0.997
2026/01/08 10:03:52.262,0.005,0.013,0.999
2026/01/08 10:03:52.282,0.001,0.012,0.995
2026/01/08 10:03:52.303,0.001,0.011,0.994
2026/01/08 10:03:52.323,0.005,0.014,0.999
2026/01/08 10:03:52.343,0.002,0.012,0.999
2026/01/08 10:03:52.364,0.001,0.01,0.999
2026/01/08 10:03:52.384,-0.002,0.009,0.996
2026/01/08 10:03:52.404,-0.001,0.009,0.994
2026/01/08 10:03:52.425,0.001,0.012,0.999
2026/01/08 10:03:52.445,-0.001,0.009,1.0
2026/01/08 10:03:52.465,0.002,0.013,0.997
2026/01/08 10:03:52.486,0.002,0.005,1.001
2026/01/08 10:03:52.506,0.005,0.014,1.001
2026/01/08 10:03:52.526,0.004,0.013,0.997
2026/01/08 10:03:52.547,0.0,0.008,1.001
2026/01/08 10:03:52.567,-0.002,0.012,0.998
2026/01/08 10:03:52.587,0.0,0.012,0.999
2026/01/08 10:03:52.608,0.0,0.011,1.001
2026/01/08 10:03:52.628,0.0,0.012,0.996
2026/01/08 10:03:52.648,0.001,0.013,0.999
2026/01/08 10:03:52.669,0.001,0.014,0.996
2026/01/08 10:03:52.689,0.001,0.01,0.998
2026/01/08 10:03:52.709,-0.001,0.014,0.997
2026/01/08 10:03:52.730,-0.001,0.012,1.001
2026/01/08 10:03:52.750,-0.002,0.01,1.002
2026/01/08 10:03:52.770,0.002,0.009,1.0
2026/01/08 10:03:52.791,0.005,0.012,1.0
2026/01/08 10:03:52.811,0.003,0.016,1.0
2026/01/08 10:03:52.831,-0.001,0.009,0.996
2026/01/08 10:03:52.852,0.0,0.012,0.997
2026/01/08 10:03:52.872,0.001,0.011,0.999
2026/01/08 10:03:52.892,0.004,0.011,1.001
2026/01/08 10:03:52.913,0.0,0.011,1.002
2026/01/08 10:03:52.933,0.003,0.011,0.999
2026/01/08 10:03:52.953,0.0,0.009,0.998
2026/01/08 10:03:52.974,-0.002,0.009,0.999
2026/01/08 10:03:52.994,0.004,0.012,1.0
2026/01/08 10:03:53.015,0.001,0.009,1.001
2026/01/08 10:03:53.035,0.002,0.009,0.996
2026/01/08 10:03:53.055,0.004,0.009,1.003
2026/01/08 10:03:53.076,-0.001,0.012,0.998
2026/01/08 10:03:53.096,-0.002,0.009,1.004
2026/01/08 10:03:53.116,0.001,0.009,0.996
2026/01/08 10:03:53.137,0.001,0.012,0.998
2026/01/08 10:03:53.157,0.001,0.013,0.996
2026/01/08 10:03:53.177,-0.001,0.013,0.997
2026/01/08 10:03:53.198,-0.001,0.011,0.999
2026/01/08 10:03:53.218,0.002,0.015,0.996
2026/01/08 10:03:53.238,0.005,0.011,1.001
2026/01/08 10:03:53.259,0.001,0.013,0.999
2026/01/08 10:03:53.279,0.001,0.016,0.999
2026/01/08 10:03:53.299,0.0,0.008,0.999
2026/01/08 10:03:53.320,0.003,0.01,0.999
2026/01/08 10:03:53.340,0.001,0.008,0.999
2026/01/08 10:03:53.360,0.001,0.016,1.0
2026/01/08 10:03:53.381,0.001,0.011,1.0
2026/01/08 10:03:53.401,0.0,0.011,0.995
2026/01/08 10:03:53.421,0.001,0.009,0.999
2026/01/08 10:03:53.442,0.003,0.01,1.001
2026/01/08 10:03:53.462,0.002,0.014,0.999
2026/01/08 10:03:53.482,-0.001,0.009,1.001
2026/01/08 10:03:53.503,-0.001,0.007,1.002
2026/01/08 10:03:53.523,0.002,0.013,1.001
2026/01/08 10:03:53.543,0.003,0.009,1.001
2026/01/08 10:03:53.564,0.006,0.011,0.999
2026/01/08 10:03:53.584,0.0,0.012,0.997
2026/01/08 10:03:53.604,-0.003,0.012,1.001
2026/01/08 10:03:53.625,-0.003,0.009,0.999
2026/01/08 10:03:53.645,0.005,0.011,0.995
2026/01/08 10:03:53.666,0.001,0.009,1.0
2026/01/08 10:03:53.686,0.0,0.008,0.998
2026/01/08 10:03:53.706,0.0,0.012,0.997
2026/01/08 10:03:53.727,-0.001,0.01,1.001
2026/01/08 10:03:53.747,0.0,0.009,0.994
2026/01/08 10:03:53.767,-0.002,0.013,0.998
2026/01/08 10:03:53.788,0.002,0.013,0.999
2026/01/08 10:03:53.808,0.002,0.01,1.001
2026/01/08 10:03:53.828,0.002,0.009,1.002
2026/01/08 10:03:53.849,0.001,0.013,0.998
2026/01/08 10:03:53.869,-0.003,0.012,1.0
2026/01/08 10:03:53.889,0.004,0.007,1.001
2026/01/08 10:03:53.910,0.002,0.012,0.999
2026/01/08 10:03:53.930,0.001,0.012,0.995
2026/01/08 10:03:53.950,-0.001,0.009,0.998
2026/01/08 10:03:53.971,0.003,0.015,1.003
2026/01/08 10:03:53.991,0.0,0.011,0.996
2026/01/08 10:03:54.011,0.005,0.009,1.0
2026/01/08 10:03:54.032,0.002,0.01,0.998
2026/01/08 10:03:54.052,0.002,0.01,0.999
2026/01/08 10:03:54.072,0.004,0.009,0.999
2026/01/08 10:03:54.093,0.002,0.011,0.996
2026/01/08 10:03:54.113,0.001,0.012,1.003
2026/01/08 10:03:54.133,0.001,0.013,0.996
2026/01/08 10:03:54.154,0.002,0.011,1.003
2026/01/08 10:03:54.174,0.003,0.006,0.997
2026/01/08 10:03:54.194,-0.002,0.011,0.998
2026/01/08 10:03:54.215,0.003,0.01,0.998
2026/01/08 10:03:54.235,0.001,0.014,0.999
2026/01/08 10:03:54.255,0.001,0.007,0.999
2026/01/08 10:03:54.276,0.003,0.009,0.999
2026/01/08 10:03:54.296,0.001,0.008,1.0
2026/01/08 10:03:54.316,0.001,0.01,1.0
2026/01/08 10:03:54.337,0.006,0.016,1.001
2026/01/08 10:03:54.357,0.001,0.011,0.995
2026/01/08 10:03:54.378,0.004,0.01,1.0
2026/01/08 10:03:54.398,0.003,0.013,0.999
2026/01/08 10:03:54.418,0.0,0.012,1.002
2026/01/08 10:03:54.439,0.001,0.013,0.999
2026/01/08 10:03:54.459,0.005,0.008,1.0
2026/01/08 10:03:54.479,0.0,0.007,0.996
2026/01/08 10:03:54.500,0.0,0.014,0.997
2026/01/08 10:03:54.520,0.004,0.009,0.997
2026/01/08 10:03:54.540,-0.003,0.009,0.996
2026/01/08 10:03:54.561,0.003,0.01,0.998
2026/01/08 10:03:54.581,-0.002,0.011,0.999
2026/01/08 10:03:54.601,-0.001,0.011,0.997
2026/01/08 10:03:54.622,0.002,0.012,0.997
2026/01/08 10:03:54.642,0.001,0.008,1.001
2026/01/08 10:03:54.662,-0.002,0.011,0.998
2026/01/08 10:03:54.683,0.003,0.008,0.999
2026/01/08 10:03:54.703,0.001,0.013,0.999
2026/01/08 10:03:54.723,0.0,0.015,0.999
2026/01/08 10:03:54.744,0.001,0.006,1.0
2026/01/08 10:03:54.764,0.001,0.011,1.003
2026/01/08 10:03:54.784,0.0,0.012,1.002
2026/01/08 10:03:54.805,0.003,0.011,1.0
2026/01/08 10:03:54.825,0.0,0.012,1.0
2026/01/08 10:03:54.845,0.001,0.014,0.999
2026/01/08 10:03:54.866,0.004,0.007,0.997
2026/01/08 10:03:54.886,0.0,0.007,1.002
2026/01/08 10:03:54.906,0.001,0.012,0.998
2026/01/08 10:03:54.927,-0.005,0.012,0.998
2026/01/08 10:03:54.947,-0.002,0.012,1.0
2026/01/08 10:03:54.967,0.0,0.018,0.998
2026/01/08 10:03:54.988,0.0,0.01,1.004
2026/01/08 10:03:55.008,0.0,0.013,0.999
2026/01/08 10:03:55.028,0.002,0.011,0.998
2026/01/08 10:03:55.049,0.001,0.012,0.997
2026/01/08 10:03:55.069,0.0,0.013,0.997
2026/01/08 10:03:55.090,-0.004,0.01,0.997
2026/01/08 10:03:55.110,0.002,0.008,0.998
2026/01/08 10:03:55.130,0.004,0.008,1.003
2026/01/08 10:03:55.151,-0.002,0.012,0.999
2026/01/08 10:03:55.171,0.001,0.012,1.001
2026/01/08 10:03:55.191,0.002,0.013,1.0
2026/01/08 10:03:55.212,-0.001,0.01,1.0
2026/01/08 10:03:55.232,0.001,0.009,0.997
2026/01/08 10:03:55.252,0.002,0.013,0.999
2026/01/08 10:03:55.273,0.0,0.011,0.999
2026/01/08 10:03:55.293,0.003,0.009,0.999
2026/01/08 10:03:55.313,-0.002,0.009,0.999
2026/01/08 10:03:55.334,-0.001,0.013,0.997
2026/01/08 10:03:55.354,0.001,0.013,0.999
2026/01/08 10:03:55.374,-0.002,0.013,0.999
2026/01/08 10:03:55.395,0.001,0.011,1.001
2026/01/08 10:03:55.415,0.001,0.01,0.999
2026/01/08 10:03:55.435,0.005,0.008,1.002
2026/01/08 10:03:55.456,-0.002,0.017,1.001
2026/01/08 10:03:55.476,-0.002,0.011,0.998
2026/01/08 10:03:55.496,0.0,0.009,0.998
2026/01/08 10:03:55.517,0.002,0.011,1.0
2026/01/08 10:03:55.537,0.002,0.008,0.999
2026/01/08 10:03:55.557,-0.002,0.012,1.001
2026/01/08 10:03:55.578,0.003,0.012,1.0
2026/01/08 10:03:55.598,0.001,0.012,0.999
2026/01/08 10:03:55.618,0.003,0.012,1.001
2026/01/08 10:03:55.639,0.0,0.009,0.999
2026/01/08 10:03:55.659,0.001,0.012,0.999
2026/01/08 10:03:55.679,0.0,0.009,0.999
2026/01/08 10:03:55.700,0.0,0.008,0.997
2026/01/08 10:03:55.720,0.005,0.015,0.998
2026/01/08 10:03:55.740,0.001,0.008,0.999
2026/01/08 10:03:55.761,0.002,0.01,1.0
2026/01/08 10:03:55.781,-0.003,0.009,0.999
2026/01/08 10:03:55.801,0.002,0.013,0.999
2026/01/08 10:03:55.822,0.001,0.014,1.001
2026/01/08 10:03:55.842,0.003,0.014,1.002
2026/01/08 10:03:55.862,0.004,0.011,1.0
2026/01/08 10:03:55.883,0.001,0.011,1.001
2026/01/08 10:03:55.903,0.001,0.009,1.0
2026/01/08 10:03:55.923,0.001,0.012,0.998
2026/01/08 10:03:55.944,-0.001,0.008,1.0
2026/01/08 10:03:55.964,0.003,0.01,0.996
2026/01/08 10:03:55.985,0.002,0.009,0.999
2026/01/08 10:03:56.005,0.002,0.01,0.999
2026/01/08 10:03:56.025,0.005,0.008,0.998
2026/01/08 10:03:56.046,-0.002,0.01,1.0
2026/01/08 10:03:56.066,0.004,0.01,0.998
2026/01/08 10:03:56.086,0.003,0.013,1.003
2026/01/08 10:03:56.107,0.0,0.013,1.001
2026/01/08 10:03:56.127,0.003,0.012,1.0
2026/01/08 10:03:56.147,0.004,0.007,0.999
2026/01/08 10:03:56.168,0.002,0.01,0.997
2026/01/08 10:03:56.188,0.002,0.012,0.996
2026/01/08 10:03:56.208,0.002,0.008,1.0
2026/01/08 10:03:56.229,0.004,0.003,0.998
2026/01/08 10:03:56.249,-0.002,0.008,0.998
2026/01/08 10:03:56.269,-0.002,0.011,1.001
2026/01/08 10:03:56.290,0.002,0.014,0.999
2026/01/08 10:03:56.310,-0.002,0.01,0.999
2026/01/08 10:03:56.330,0.001,0.012,0.997
2026/01/08 10:03:56.351,0.0,0.01,0.999
2026/01/08 10:03:56.371,0.001,0.011,0.999
2026/01/08 10:03:56.391,0.0,0.01,0.996
2026/01/08 10:03:56.412,-0.003,0.007,0.998
2026/01/08 10:03:56.432,0.002,0.009,0.995
2026/01/08 10:03:56.452,0.003,0.009,0.995
2026/01/08 10:03:56.473,0.002,0.014,0.999
2026/01/08 10:03:56.493,0.0,0.01,1.0
2026/01/08 10:03:56.513,0.0,0.012,0.998
2026/01/08 10:03:56.534,0.003,0.012,1.0
2026/01/08 10:03:56.554,0.003,0.013,0.997
2026/01/08 10:03:56.574,0.0,0.013,0.998
2026/01/08 10:03:56.595,0.005,0.01,0.998
2026/01/08 10:03:56.615,0.001,0.011,1.002
2026/01/08 10:03:56.635,-0.002,0.01,0.999
2026/01/08 10:03:56.656,-0.001,0.01,0.998
2026/01/08 10:03:56.676,0.001,0.01,1.0
2026/01/08 10:03:56.696,-0.003,0.009,1.0
2026/01/08 10:03:56.717,0.001,0.01,1.0
2026/01/08 10:03:56.737,-0.002,0.011,0.999
2026/01/08 10:03:56.757,-0.001,0.008,1.0
2026/01/08 10:03:56.778,-0.001,0.012,1.005
2026/01/08 10:03:56.798,-0.002,0.013,0.997
2026/01/08 10:03:56.818,-0.001,0.013,0.998
2026/01/08 10:03:56.839,0.001,0.013,1.0
2026/01/08 10:03:56.859,0.001,0.009,1.0
2026/01/08 10:03:56.880,0.003,0.009,0.997
2026/01/08 10:03:56.900,0.001,0.012,0.999
2026/01/08 10:03:56.920,0.004,0.014,0.996
2026/01/08 10:03:56.941,-0.002,0.012,1.002
2026/01/08 10:03:56.961,-0.001,0.006,0.999
2026/01/08 10:03:56.981,0.001,0.011,1.0
2026/01/08 10:03:57.002,0.002,0.01,1.001
2026/01/08 10:03:57.022,0.003,0.019,0.996
2026/01/08 10:03:57.042,0.003,0.01,0.997
2026/01/08 10:03:57.063,-0.002,0.011,0.999
2026/01/08 10:03:57.083,-0.002,0.011,0.996
2026/01/08 10:03:57.103,0.002,0.01,0.997
2026/01/08 10:03:57.124,-0.003,0.014,0.997
2026/01/08 10:03:57.144,0.0,0.008,1.0
2026/01/08 10:03:57.164,0.0,0.011,0.998
2026/01/08 10:03:57.185,0.002,0.013,0.997
2026/01/08 10:03:57.205,0.001,0.01,0.999
2026/01/08 10:03:57.225,0.002,0.012,0.999
2026/01/08 10:03:57.246,0.004,0.011,1.0
2026/01/08 10:03:57.266,0.003,0.01,0.998
2026/01/08 10:03:57.286,0.005,0.013,0.999
2026/01/08 10:03:57.307,0.0,0.015,0.996
2026/01/08 10:03:57.327,0.003,0.009,0.999
2026/01/08 10:03:57.347,0.002,0.013,0.999
2026/01/08 10:03:57.368,0.0,0.013,1.001
2026/01/08 10:03:57.388,0.001,0.01,0.999
2026/01/08 10:03:57.408,0.0,0.01,0.998
2026/01/08 10:03:57.429,-0.003,0.01,1.0
2026/01/08 10:03:57.449,-0.001,0.006,0.998
2026/01/08 10:03:57.469,0.003,0.011,0.999
2026/01/08 10:03:57.490,0.003,0.014,0.996
2026/01/08 10:03:57.510,-0.001,0.008,1.0
2026/01/08 10:03:57.530,0.0,0.011,1.0
2026/01/08 10:03:57.551,0.002,0.011,0.999
2026/01/08 10:03:57.571,0.003,0.013,1.001
2026/01/08 10:03:57.591,-0.002,0.011,1.0
2026/01/08 10:03:57.612,0.0,0.014,1.0
2026/01/08 10:03:57.632,0.002,0.009,0.997
2026/01/08 10:03:57.652,-0.002,0.012,0.995
2026/01/08 10:03:57.673,-0.001,0.011,0.998
2026/01/08 10:03:57.693,-0.003,0.013,0.998
2026/01/08 10:03:57.713,0.003,0.015,0.993
2026/01/08 10:03:57.734,0.003,0.011,0.997
2026/01/08 10:03:57.754,0.001,0.009,0.996
2026/01/08 10:03:57.775,0.002,0.01,0.998
2026/01/08 10:03:57.795,0.004,0.013,0.997
2026/01/08 10:03:57.815,0.004,0.009,0.997
2026/01/08 10:03:57.836,-0.001,0.013,1.001
2026/01/08 10:03:57.856,0.001,0.013,1.0
2026/01/08 10:03:57.876,0.0,0.01,0.997
2026/01/08 10:03:57.897,0.001,0.013,0.998
2026/01/08 10:03:57.917,0.002,0.01,1.002
2026/01/08 10:03:57.937,0.0,0.007,0.997
2026/01/08 10:03:57.958,0.002,0.004,0.997
2026/01/08 10:03:57.978,-0.001,0.015,0.996
2026/01/08 10:03:57.998,-0.001,0.011,1.0
2026/01/08 10:03:58.019,-0.002,0.012,1.001
2026/01/08 10:03:58.039,0.002,0.01,1.0
2026/01/08 10:03:58.059,0.0,0.01,0.997
2026/01/08 10:03:58.080,0.002,0.011,0.999
2026/01/08 10:03:58.100,0.002,0.012,1.005
2026/01/08 10:03:58.120,0.001,0.009,1.0
2026/01/08 10:03:58.141,-0.001,0.008,0.998
2026/01/08 10:03:58.161,0.002,0.01,0.997
2026/01/08 10:03:58.181,0.002,0.011,1.0
2026/01/08 10:03:58.202,0.004,0.013,0.999
2026/01/08 10:03:58.222,0.0,0.011,1.003
2026/01/08 10:03:58.242,0.004,0.012,1.0
2026/01/08 10:03:58.263,0.002,0.013,0.999
2026/01/08 10:03:58.283,0.0,0.008,1.001
2026/01/08 10:03:58.303,-0.003,0.011,1.0
2026/01/08 10:03:58.324,0.001,0.013,0.997
2026/01/08 10:03:58.344,-0.001,0.013,0.999
2026/01/08 10:03:58.364,0.003,0.011,1.003
2026/01/08 10:03:58.385,0.001,0.015,0.998
2026/01/08 10:03:58.405,-0.002,0.012,0.998
2026/01/08 10:03:58.425,0.005,0.009,1.001
2026/01/08 10:03:58.446,0.003,0.014,0.999
2026/01/08 10:03:58.466,-0.001,0.009,0.996
2026/01/08 10:03:58.486,0.005,0.011,0.999
2026/01/08 10:03:58.507,0.003,0.008,0.997
2026/01/08 10:03:58.527,0.003,0.011,1.001
2026/01/08 10:03:58.548,0.001,0.009,1.0
2026/01/08 10:03:58.568,0.001,0.009,1.002
2026/01/08 10:03:58.588,0.002,0.013,0.997
2026/01/08 10:03:58.609,0.002,0.01,1.001
2026/01/08 10:03:58.629,0.002,0.011,0.998
2026/01/08 10:03:58.649,0.001,0.008,0.996
2026/01/08 10:03:58.670,0.001,0.012,1.003
2026/01/08 10:03:58.690,-0.001,0.005,0.999
2026/01/08 10:03:58.710,0.0,0.01,1.0
2026/01/08 10:03:58.731,0.0,0.01,1.001
2026/01/08 10:03:58.751,-0.002,0.01,1.003
2026/01/08 10:03:58.771,0.002,0.008,1.002
2026/01/08 10:03:58.792,0.004,0.008,0.997
2026/01/08 10:03:58.812,0.002,0.01,0.996
2026/01/08 10:03:58.832,0.001,0.011,0.999
2026/01/08 10:03:58.853,0.0,0.008,1.001
2026/01/08 10:03:58.873,0.001,0.014,0.999
2026/01/08 10:03:58.893,0.001,0.011,0.998
2026/01/08 10:03:58.914,0.0,0.011,0.999
2026/01/08 10:03:58.934,-0.001,0.012,1.0
2026/01/08 10:03:58.954,0.002,0.011,0.999
2026/01/08 10:03:58.975,0.003,0.012,0.999
2026/01/08 10:03:58.995,0.003,0.013,0.998
2026/01/08 10:03:59.015,0.0,0.011,0.997
2026/01/08 10:03:59.036,0.001,0.009,1.002
2026/01/08 10:03:59.056,-0.003,0.006,0.996
2026/01/08 10:03:59.076,-0.001,0.009,1.002
2026/01/08 10:03:59.097,0.002,0.013,0.999
2026/01/08 10:03:59.117,0.0,0.011,0.996
2026/01/08 10:03:59.137,-0.003,0.011,0.998
2026/01/08 10:03:59.158,0.001,0.009,1.002
2026/01/08 10:03:59.178,0.002,0.01,0.998
2026/01/08 10:03:59.198,0.004,0.013,1.003
2026/01/08 10:03:59.219,0.002,0.01,0.998
2026/01/08 10:03:59.239,0.004,0.013,1.0
2026/01/08 10:03:59.259,-0.001,0.008,0.999
2026/01/08 10:03:59.280,0.0,0.014,1.001
2026/01/08 10:03:59.300,0.0,0.016,0.999
2026/01/08 10:03:59.320,0.0,0.013,0.996
2026/01/08 10:03:59.341,-0.003,0.013,0.998
2026/01/08 10:03:59.361,-0.003,0.01,1.003
2026/01/08 10:03:59.382,-0.001,0.013,0.999
2026/01/08 10:03:59.402,-0.002,0.005,0.999
2026/01/08 10:03:59.422,-0.003,0.011,1.0
2026/01/08 10:03:59.443,0.001,0.013,1.002
2026/01/08 10:03:59.463,-0.001,0.012,0.999
2026/01/08 10:03:59.483,0.001,0.01,1.0
2026/01/08 10:03:59.504,0.001,0.012,1.0
2026/01/08 10:03:59.524,-0.002,0.012,0.995
2026/01/08 10:03:59.544,0.002,0.013,0.998
2026/01/08 10:03:59.565,0.001,0.012,1.0
2026/01/08 10:03:59.585,0.002,0.009,0.999
2026/01/08 10:03:59.605,0.0,0.008,0.998
2026/01/08 10:03:59.626,0.002,0.011,0.999
2026/01/08 10:03:59.646,0.002,0.008,1.002
2026/01/08 10:03:59.666,-0.002,0.013,0.999
2026/01/08 10:03:59.687,-0.002,0.012,1.001
2026/01/08 10:03:59.707,-0.001,0.013,1.003
2026/01/08 10:03:59.727,-0.001,0.01,1.0
2026/01/08 10:03:59.748,0.002,0.015,0.999
2026/01/08 10:03:59.768,0.0,0.012,0.999
2026/01/08 10:03:59.788,0.003,0.009,1.001
2026/01/08 10:03:59.809,0.001,0.011,1.001
2026/01/08 10:03:59.829,-0.001,0.009,1.0
2026/01/08 10:03:59.849,-0.002,0.012,1.001
2026/01/08 10:03:59.870,0.002,0.009,0.998
2026/01/08 10:03:59.890,-0.001,0.009,1.001
2026/01/08 10:03:59.910,0.003,0.013,1.002
2026/01/08 10:03:59.931,0.0,0.011,0.998
2026/01/08 10:03:59.951,0.002,0.011,0.999
2026/01/08 10:03:59.971,0.002,0.008,0.999
2026/01/08 10:03:59.992,0.001,0.009,0.997
2026/01/08 10:04:00.012,-0.001,0.011,0.999
2026/01/08 10:04:00.032,-0.001,0.012,1.001
2026/01/08 10:04:00.053,0.001,0.008,0.997
2026/01/08 10:04:00.073,0.0,0.007,0.998
2026/01/08 10:04:00.093,0.003,0.011,0.998
2026/01/08 10:04:00.114,0.002,0.009,1.003
2026/01/08 10:04:00.134,0.001,0.011,1.001
2026/01/08 10:04:00.155,-0.001,0.012,0.999
2026/01/08 10:04:00.175,0.001,0.012,1.0
2026/01/08 10:04:00.195,-0.003,0.011,1.003
2026/01/08 10:04:00.216,0.002,0.012,0.998
2026/01/08 10:04:00.236,0.004,0.016,0.998
2026/01/08 10:04:00.256,-0.001,0.013,0.997
2026/01/08 10:04:00.277,-0.001,0.011,0.998
2026/01/08 10:04:00.297,-0.001,0.011,0.998
2026/01/08 10:04:00.317,0.003,0.01,0.999
2026/01/08 10:04:00.338,0.0,0.009,0.999
2026/01/08 10:04:00.358,0.003,0.01,1.0
2026/01/08 10:04:00.378,0.003,0.013,1.001
2026/01/08 10:04:00.399,0.002,0.011,0.998
2026/01/08 10:04:00.419,0.0,0.01,0.999
2026/01/08 10:04:00.439,-0.004,0.008,0.999
2026/01/08 10:04:00.460,0.003,0.011,0.999
2026/01/08 10:04:00.480,0.003,0.013,0.998
2026/01/08 10:04:00.500,0.003,0.009,0.998
2026/01/08 10:04:00.521,0.003,0.01,1.001
2026/01/08 10:04:00.541,0.003,0.011,1.004
2026/01/08 10:04:00.561,0.001,0.007,1.001
2026/01/08 10:04:00.582,0.001,0.011,1.0
2026/01/08 10:04:00.602,-0.003,0.012,1.001
2026/01/08 10:04:00.622,0.004,0.011,0.998
2026/01/08 10:04:00.643,0.001,0.006,0.999
2026/01/08 10:04:00.663,0.002,0.009,0.998
2026/01/08 10:04:00.683,0.002,0.01,1.002
2026/01/08 10:04:00.704,-0.001,0.011,0.999
2026/01/08 10:04:00.724,0.0,0.011,0.998
2026/01/08 10:04:00.744,0.002,0.009,0.999
2026/01/08 10:04:00.765,0.001,0.009,0.999
2026/01/08 10:04:00.785,0.0,0.009,0.999
2026/01/08 10:04:00.805,-0.001,0.006,1.001
2026/01/08 10:04:00.826,0.001,0.009,1.002
2026/01/08 10:04:00.846,0.003,0.014,0.996
2026/01/08 10:04:00.866,0.004,0.007,0.999
2026/01/08 10:04:00.887,0.004,0.01,0.997
2026/01/08 10:04:00.907,-0.001,0.014,0.996
2026/01/08 10:04:00.927,0.0,0.016,1.001
2026/01/08 10:04:00.948,0.0,0.012,0.997
2026/01/08 10:04:00.968,0.002,0.009,0.996
2026/01/08 10:04:00.989,0.002,0.009,0.998
2026/01/08 10:04:01.009,0.0,0.013,0.997
2026/01/08 10:04:01.029,0.005,0.013,0.998
2026/01/08 10:04:01.050,0.0,0.012,1.001
2026/01/08 10:04:01.070,0.002,0.01,0.996
2026/01/08 10:04:01.090,0.002,0.012,0.998
2026/01/08 10:04:01.111,0.004,0.01,0.999
2026/01/08 10:04:01.131,0.001,0.013,1.001
2026/01/08 10:04:01.151,0.0,0.01,1.0
2026/01/08 10:04:01.172,0.001,0.01,0.999
2026/01/08 10:04:01.192,0.0,0.01,1.004
2026/01/08 10:04:01.212,0.003,0.009,1.0
2026/01/08 10:04:01.233,0.001,0.014,1.002
2026/01/08 10:04:01.253,-0.003,0.011,1.002
2026/01/08 10:04:01.273,0.005,0.011,1.001
2026/01/08 10:04:01.294,0.0,0.012,1.003
2026/01/08 10:04:01.314,0.0,0.013,1.001
2026/01/08 10:04:01.334,0.004,0.006,0.999
2026/01/08 10:04:01.355,0.0,0.01,0.999
2026/01/08 10:04:01.375,0.0,0.01,0.994
2026/01/08 10:04:01.395,0.001,0.015,1.0
2026/01/08 10:04:01.416,0.001,0.008,0.999
2026/01/08 10:04:01.436,0.002,0.008,0.999
2026/01/08 10:04:01.456,-0.004,0.009,0.998
2026/01/08 10:04:01.477,0.001,0.009,1.0
2026/01/08 10:04:01.497,0.001,0.013,1.0
2026/01/08 10:04:01.517,0.0,0.011,0.999
2026/01/08 10:04:01.538,0.002,0.012,0.998
2026/01/08 10:04:01.558,0.0,0.014,0.999
2026/01/08 10:04:01.578,0.0,0.009,0.999
2026/01/08 10:04:01.599,0.004,0.01,0.995
2026/01/08 10:04:01.619,0.004,0.011,0.998
2026/01/08 10:04:01.639,0.003,0.011,1.0
2026/01/08 10:04:01.660,0.0,0.011,0.999
2026/01/08 10:04:01.680,0.003,0.011,0.999
2026/01/08 10:04:01.700,0.001,0.009,0.995
2026/01/08 10:04:01.721,0.001,0.011,1.0
2026/01/08 10:04:01.741,0.003,0.011,1.001
2026/01/08 10:04:01.762,-0.002,0.01,0.999
2026/01/08 10:04:01.782,0.002,0.012,0.997
2026/01/08 10:04:01.802,-0.002,0.01,0.998
2026/01/08 10:04:01.823,-0.002,0.01,0.998
2026/01/08 10:04:01.843,0.001,0.013,0.995
2026/01/08 10:04:01.863,0.002,0.011,0.997
2026/01/08 10:04:01.884,0.001,0.012,0.998
2026/01/08 10:04:01.904,0.0,0.009,1.001
2026/01/08 10:04:01.924,-0.001,0.008,1.002
2026/01/08 10:04:01.945,0.003,0.014,0.999
2026/01/08 10:04:01.965,0.001,0.01,1.001
2026/01/08 10:04:01.985,-0.003,0.013,1.001
2026/01/08 10:04:02.006,-0.002,0.009,0.999
2026/01/08 10:04:02.026,0.003,0.009,1.001
2026/01/08 10:04:02.046,-0.001,0.013,0.998
2026/01/08 10:04:02.067,0.003,0.011,0.999
2026/01/08 10:04:02.087,0.002,0.011,0.999
2026/01/08 10:04:02.107,-0.003,0.016,1.003
2026/01/08 10:04:02.128,0.005,0.01,0.998
2026/01/08 10:04:02.148,0.001,0.009,0.996
2026/01/08 10:04:02.168,-0.002,0.006,1.003
2026/01/08 10:04:02.189,0.004,0.011,0.999
2026/01/08 10:04:02.209,0.0,0.015,0.999
2026/01/08 10:04:02.229,0.001,0.008,1.0
2026/01/08 10:04:02.250,0.005,0.008,0.999
2026/01/08 10:04:02.270,-0.002,0.012,0.997
2026/01/08 10:04:02.290,-0.002,0.009,0.995
2026/01/08 10:04:02.311,0.003,0.01,0.996
2026/01/08 10:04:02.331,0.0,0.009,0.999
2026/01/08 10:04:02.351,0.002,0.01,0.999
2026/01/08 10:04:02.372,0.0,0.015,0.999
2026/01/08 10:04:02.392,0.002,0.012,0.996
2026/01/08 10:04:02.412,0.0,0.008,1.0
2026/01/08 10:04:02.433,0.002,0.01,0.997
2026/01/08 10:04:02.453,0.002,0.008,0.999
2026/01/08 10:04:02.473,0.0,0.01,0.997
2026/01/08 10:04:02.494,-0.001,0.015,1.002
2026/01/08 10:04:02.514,0.0,0.014,0.998
2026/01/08 10:04:02.534,0.0,0.009,1.001
2026/01/08 10:04:02.555,0.003,0.01,0.998
2026/01/08 10:04:02.575,0.004,0.009,0.995
2026/01/08 10:04:02.596,0.0,0.009,0.999
2026/01/08 10:04:02.616,-0.003,0.011,1.003
2026/01/08 10:04:02.636,-0.001,0.011,1.0
2026/01/08 10:04:02.657,0.001,0.012,1.001
2026/01/08 10:04:02.677,-0.002,0.011,1.001
2026/01/08 10:04:02.697,0.002,0.011,0.992
2026/01/08 10:04:02.718,0.001,0.009,0.998
2026/01/08 10:04:02.738,0.001,0.009,0.996
2026/01/08 10:04:02.758,0.003,0.009,0.999
2026/01/08 10:04:02.779,0.002,0.012,0.998
2026/01/08 10:04:02.799,0.0,0.013,0.999
2026/01/08 10:04:02.819,0.0,0.011,0.999
2026/01/08 10:04:02.840,0.004,0.011,0.999
2026/01/08 10:04:02.860,0.002,0.011,0.999
2026/01/08 10:04:02.880,0.002,0.012,0.998
2026/01/08 10:04:02.901,0.002,0.012,0.998
2026/01/08 10:04:02.921,0.0,0.013,1.0
2026/01/08 10:04:02.941,0.002,0.012,0.999
2026/01/08 10:04:02.962,-0.001,0.005,0.998
2026/01/08 10:04:02.982,0.0,0.009,0.999
2026/01/08 10:04:03.002,0.003,0.009,0.996
2026/01/08 10:04:03.023,0.0,0.011,0.999
2026/01/08 10:04:03.043,0.001,0.008,0.999
2026/01/08 10:04:03.063,-0.002,0.009,1.002
2026/01/08 10:04:03.084,0.002,0.01,0.998
2026/01/08 10:04:03.104,0.0,0.013,0.999
2026/01/08 10:04:03.124,0.001,0.011,0.998
2026/01/08 10:04:03.145,-0.001,0.013,1.0
2026/01/08 10:04:03.165,0.002,0.012,0.998
2026/01/08 10:04:03.185,0.002,0.009,0.999
2026/01/08 10:04:03.206,0.0,0.009,1.002
2026/01/08 10:04:03.226,-0.001,0.013,1.0
2026/01/08 10:04:03.246,-0.001,0.013,1.002
2026/01/08 10:04:03.267,0.003,0.014,0.999
2026/01/08 10:04:03.287,-0.002,0.009,0.999
2026/01/08 10:04:03.307,0.004,0.003,1.003
2026/01/08 10:04:03.328,-0.006,0.019,0.992
2026/01/08 10:04:03.348,0.004,0.003,1.005
2026/01/08 10:04:03.369,-0.003,0.008,1.0
2026/01/08 10:04:03.389,0.0,0.013,0.994
2026/01/08 10:04:03.409,0.003,0.014,1.003
2026/01/08 10:04:03.430,0.009,0.005,0.993
2026/01/08 10:04:03.450,0.0,0.01,1.004
2026/01/08 10:04:03.470,0.002,0.01,0.997
2026/01/08 10:04:03.491,-0.004,0.013,1.003
2026/01/08 10:04:03.511,0.003,0.009,0.995
2026/01/08 10:04:03.531,-0.002,0.008,0.999
2026/01/08 10:04:03.552,-0.001,0.011,1.001
2026/01/08 10:04:03.572,-0.001,0.007,0.997
2026/01/08 10:04:03.592,0.002,0.009,1.009
2026/01/08 10:04:03.613,0.001,0.012,0.996
2026/01/08 10:04:03.633,0.001,0.01,0.999
2026/01/08 10:04:03.653,0.002,0.01,0.997
2026/01/08 10:04:03.674,0.002,0.009,1.004
2026/01/08 10:04:03.694,-0.005,0.013,0.996
2026/01/08 10:04:03.714,0.006,0.012,1.0
2026/01/08 10:04:03.735,0.0,0.012,0.999
2026/01/08 10:04:03.755,0.0,0.011,1.004
2026/01/08 10:04:03.775,0.0,0.009,1.001
2026/01/08 10:04:03.796,0.001,0.012,0.999
2026/01/08 10:04:03.816,0.0,0.009,0.998
2026/01/08 10:04:03.836,0.002,0.012,0.997
2026/01/08 10:04:03.857,-0.001,0.012,1.0
2026/01/08 10:04:03.877,0.003,0.009,0.997
2026/01/08 10:04:03.897,-0.002,0.01,0.999
2026/01/08 10:04:03.918,0.0,0.016,1.002
2026/01/08 10:04:03.938,0.002,0.008,1.0
2026/01/08 10:04:03.958,0.0,0.014,1.0
2026/01/08 10:04:03.979,0.001,0.011,1.0
2026/01/08 10:04:03.999,0.003,0.014,1.002
2026/01/08 10:04:04.019,0.003,0.014,0.999
2026/01/08 10:04:04.040,-0.002,0.012,1.002
2026/01/08 10:04:04.060,0.002,0.012,0.997
2026/01/08 10:04:04.080,0.005,0.011,0.999
2026/01/08 10:04:04.101,0.002,0.014,1.0
2026/01/08 10:04:04.121,0.0,0.011,1.002
2026/01/08 10:04:04.141,-0.001,0.013,1.001
2026/01/08 10:04:04.162,-0.003,0.008,0.999
2026/01/08 10:04:04.182,0.002,0.011,0.995
2026/01/08 10:04:04.202,0.006,0.012,0.998
2026/01/08 10:04:04.223,0.001,0.013,0.996
2026/01/08 10:04:04.243,0.001,0.012,1.001
2026/01/08 10:04:04.263,0.002,0.008,0.997
2026/01/08 10:04:04.284,-0.002,0.01,0.995
2026/01/08 10:04:04.304,0.003,0.011,0.994
2026/01/08 10:04:04.325,-0.001,0.012,1.0
2026/01/08 10:04:04.345,0.001,0.01,0.997
2026/01/08 10:04:04.365,0.0,0.014,0.999
2026/01/08 10:04:04.386,-0.002,0.007,0.998
2026/01/08 10:04:04.406,0.005,0.01,1.0
2026/01/08 10:04:04.426,0.004,0.011,1.0
2026/01/08 10:04:04.447,0.002,0.009,1.0
2026/01/08 10:04:04.467,0.001,0.008,0.999
2026/01/08 10:04:04.487,0.003,0.012,1.002
2026/01/08 10:04:04.508,0.002,0.01,1.005
2026/01/08 10:04:04.528,0.002,0.007,1.0
2026/01/08 10:04:04.548,0.001,0.011,1.002
2026/01/08 10:04:04.569,0.002,0.008,0.999
2026/01/08 10:04:04.589,0.003,0.009,1.001
2026/01/08 10:04:04.609,0.003,0.012,0.997
2026/01/08 10:04:04.630,-0.001,0.012,1.0
2026/01/08 10:04:04.650,0.001,0.01,0.998
2026/01/08 10:04:04.670,0.001,0.011,0.999
2026/01/08 10:04:04.691,0.004,0.006,0.997
2026/01/08 10:04:04.711,-0.002,0.009,0.999
2026/01/08 10:04:04.731,0.001,0.011,1.001
2026/01/08 10:04:04.752,0.001,0.011,1.0
2026/01/08 10:04:04.772,0.002,0.01,1.0
2026/01/08 10:04:04.792,0.0,0.01,0.997
2026/01/08 10:04:04.813,0.001,0.011,0.999
2026/01/08 10:04:04.833,-0.001,0.009,0.998
2026/01/08 10:04:04.853,0.001,0.013,0.996
2026/01/08 10:04:04.874,-0.003,0.011,0.998
2026/01/08 10:04:04.894,0.0,0.01,1.001
2026/01/08 10:04:04.914,0.0,0.013,0.995
2026/01/08 10:04:04.935,-0.001,0.01,0.999
2026/01/08 10:04:04.955,0.003,0.013,0.999
2026/01/08 10:04:04.975,0.003,0.011,1.0
2026/01/08 10:04:04.996,-0.001,0.01,0.999
2026/01/08 10:04:05.016,0.002,0.011,1.001
2026/01/08 10:04:05.036,0.002,0.008,0.999
2026/01/08 10:04:05.057,0.0,0.012,0.999
2026/01/08 10:04:05.077,-0.003,0.009,0.995
2026/01/08 10:04:05.097,0.004,0.012,0.997
2026/01/08 10:04:05.118,-0.002,0.012,1.002
2026/01/08 10:04:05.138,-0.003,0.01,0.998
2026/01/08 10:04:05.158,0.0,0.009,1.0
2026/01/08 10:04:05.179,0.0,0.01,1.0
2026/01/08 10:04:05.199,0.0,0.01,0.998
2026/01/08 10:04:05.220,0.002,0.01,1.0
2026/01/08 10:04:05.240,0.002,0.011,1.001
2026/01/08 10:04:05.260,0.001,0.01,0.999
2026/01/08 10:04:05.281,-0.001,0.012,1.0
2026/01/08 10:04:05.301,0.002,0.011,1.0
2026/01/08 10:04:05.321,0.002,0.007,1.0
2026/01/08 10:04:05.342,0.001,0.011,1.001
2026/01/08 10:04:05.362,0.001,0.012,0.999
2026/01/08 10:04:05.382,0.002,0.009,0.997
2026/01/08 10:04:05.403,0.002,0.011,0.999
2026/01/08 10:04:05.423,-0.001,0.009,0.997
2026/01/08 10:04:05.443,0.001,0.012,1.001
2026/01/08 10:04:05.464,-0.001,0.009,0.999
2026/01/08 10:04:05.484,0.004,0.014,0.999
2026/01/08 10:04:05.504,0.002,0.007,0.999
2026/01/08 10:04:05.525,0.001,0.01,0.997
2026/01/08 10:04:05.545,0.0,0.01,0.999
2026/01/08 10:04:05.565,-0.003,0.011,0.999
2026/01/08 10:04:05.586,0.002,0.012,0.998
2026/01/08 10:04:05.606,0.001,0.013,0.998
2026/01/08 10:04:05.626,0.001,0.009,0.997
2026/01/08 10:04:05.647,0.0,0.009,1.002
2026/01/08 10:04:05.667,0.007,0.012,1.001
2026/01/08 10:04:05.687,-0.002,0.006,1.003
2026/01/08 10:04:05.708,-0.002,0.01,1.003
2026/01/08 10:04:05.728,0.002,0.012,1.0
2026/01/08 10:04:05.748,0.0,0.01,0.995
2026/01/08 10:04:05.769,-0.001,0.008,0.997
2026/01/08 10:04:05.789,0.001,0.012,0.997
2026/01/08 10:04:05.809,0.002,0.014,0.997
2026/01/08 10:04:05.830,-0.001,0.008,1.0
2026/01/08 10:04:05.850,0.0,0.011,0.999
2026/01/08 10:04:05.870,0.003,0.014,1.0
2026/01/08 10:04:05.891,-0.001,0.009,1.0
2026/01/08 10:04:05.911,0.001,0.011,0.998
2026/01/08 10:04:05.931,0.001,0.007,0.997
2026/01/08 10:04:05.952,0.003,0.013,1.0
2026/01/08 10:04:05.972,0.002,0.012,0.998
2026/01/08 10:04:05.992,-0.001,0.009,1.0
2026/01/08 10:04:06.013,-0.001,0.009,1.0
2026/01/08 10:04:06.033,0.002,0.014,0.999
2026/01/08 10:04:06.053,0.003,0.013,0.999
2026/01/08 10:04:06.074,0.0,0.013,0.997
2026/01/08 10:04:06.094,0.001,0.009,0.998
2026/01/08 10:04:06.115,0.005,0.008,0.997
2026/01/08 10:04:06.135,0.002,0.009,1.001
2026/01/08 10:04:06.155,0.001,0.009,1.005
2026/01/08 10:04:06.176,-0.003,0.012,0.997
2026/01/08 10:04:06.196,0.001,0.009,0.999
2026/01/08 10:04:06.216,-0.001,0.014,1.0
2026/01/08 10:04:06.237,0.003,0.012,1.004
2026/01/08 10:04:06.257,0.0,0.011,1.001
2026/01/08 10:04:06.277,-0.003,0.009,1.0
2026/01/08 10:04:06.298,0.003,0.008,0.999
2026/01/08 10:04:06.318,0.0,0.013,0.997
2026/01/08 10:04:06.338,-0.001,0.009,0.998
2026/01/08 10:04:06.359,0.001,0.006,0.998
2026/01/08 10:04:06.379,0.003,0.011,0.996
2026/01/08 10:04:06.399,-0.001,0.011,1.002
2026/01/08 10:04:06.420,0.001,0.011,1.0
2026/01/08 10:04:06.440,0.001,0.009,0.996
2026/01/08 10:04:06.460,0.002,0.012,1.0
2026/01/08 10:04:06.481,0.001,0.008,1.002
2026/01/08 10:04:06.501,0.002,0.01,0.998
2026/01/08 10:04:06.521,-0.001,0.012,1.0
2026/01/08 10:04:06.542,0.001,0.009,0.999
2026/01/08 10:04:06.562,-0.001,0.01,0.994
2026/01/08 10:04:06.582,-0.002,0.011,1.0
2026/01/08 10:04:06.603,-0.001,0.008,1.001
2026/01/08 10:04:06.623,0.0,0.011,0.999
2026/01/08 10:04:06.643,0.001,0.012,1.0
2026/01/08 10:04:06.664,0.002,0.009,0.998
2026/01/08 10:04:06.684,0.0,0.009,0.998
2026/01/08 10:04:06.704,0.0,0.011,0.997
2026/01/08 10:04:06.725,0.001,0.014,0.999
2026/01/08 10:04:06.745,0.002,0.012,1.002
2026/01/08 10:04:06.765,0.002,0.012,0.999
2026/01/08 10:04:06.786,0.003,0.016,1.001
2026/01/08 10:04:06.806,0.001,0.009,0.999
2026/01/08 10:04:06.826,0.003,0.01,0.996
2026/01/08 10:04:06.847,0.002,0.012,1.0
2026/01/08 10:04:06.867,0.004,0.01,0.998
2026/01/08 10:04:06.887,0.001,0.012,1.0
2026/01/08 10:04:06.908,0.002,0.011,0.997
2026/01/08 10:04:06.928,0.002,0.013,1.0
2026/01/08 10:04:06.948,0.003,0.012,0.995
2026/01/08 10:04:06.969,0.001,0.012,0.997
2026/01/08 10:04:06.989,0.0,0.008,0.996
2026/01/08 10:04:07.010,0.001,0.014,0.997
2026/01/08 10:04:07.030,0.002,0.012,0.998
2026/01/08 10:04:07.050,-0.001,0.011,1.0
2026/01/08 10:04:07.071,-0.001,0.012,0.997
2026/01/08 10:04:07.091,0.004,0.008,0.996
2026/01/08 10:04:07.111,0.002,0.011,1.0
2026/01/08 10:04:07.132,-0.003,0.011,0.999
2026/01/08 10:04:07.152,0.003,0.012,1.001
2026/01/08 10:04:07.172,-0.001,0.012,1.0
2026/01/08 10:04:07.193,0.0,0.012,1.001
2026/01/08 10:04:07.213,0.004,0.012,0.999
2026/01/08 10:04:07.233,0.001,0.011,0.999
2026/01/08 10:04:07.254,-0.001,0.012,1.0
2026/01/08 10:04:07.274,-0.003,0.011,0.998
2026/01/08 10:04:07.294,-0.001,0.013,0.998
2026/01/08 10:04:07.315,0.002,0.011,0.999
2026/01/08 10:04:07.335,0.0,0.013,1.001
2026/01/08 10:04:07.355,0.0,0.006,1.0
2026/01/08 10:04:07.376,0.001,0.008,1.004
2026/01/08 10:04:07.396,0.0,0.011,0.998
2026/01/08 10:04:07.416,0.0,0.009,0.998
2026/01/08 10:04:07.437,0.001,0.01,0.995
2026/01/08 10:04:07.457,-0.001,0.014,0.999
2026/01/08 10:04:07.477,0.003,0.01,1.001
2026/01/08 10:04:07.498,0.0,0.01,0.996
2026/01/08 10:04:07.518,0.001,0.012,1.0
2026/01/08 10:04:07.538,0.003,0.011,0.998
2026/01/08 10:04:07.559,0.002,0.017,0.998
2026/01/08 10:04:07.579,0.002,0.012,1.002
2026/01/08 10:04:07.599,0.0,0.013,1.0
2026/01/08 10:04:07.620,-0.001,0.01,1.0
2026/01/08 10:04:07.640,-0.001,0.013,0.995
2026/01/08 10:04:07.660,0.003,0.01,1.001
2026/01/08 10:04:07.681,-0.002,0.012,1.0
2026/01/08 10:04:07.701,0.001,0.009,0.997
2026/01/08 10:04:07.721,0.001,0.011,0.999
2026/01/08 10:04:07.742,0.0,0.011,0.997
2026/01/08 10:04:07.762,0.004,0.012,0.997
2026/01/08 10:04:07.782,-0.001,0.013,0.998
2026/01/08 10:04:07.803,0.002,0.009,0.997
2026/01/08 10:04:07.823,0.001,0.012,0.998
2026/01/08 10:04:07.843,0.003,0.011,1.001
2026/01/08 10:04:07.864,0.0,0.012,1.001
2026/01/08 10:04:07.884,0.003,0.012,1.0
2026/01/08 10:04:07.905,0.002,0.013,0.998
2026/01/08 10:04:07.925,0.002,0.012,0.998
2026/01/08 10:04:07.945,0.002,0.009,0.999
2026/01/08 10:04:07.966,0.003,0.01,1.0
2026/01/08 10:04:07.986,0.002,0.014,1.0
2026/01/08 10:04:08.006,-0.001,0.01,0.999
2026/01/08 10:04:08.027,0.002,0.01,0.997
2026/01/08 10:04:08.047,0.0,0.011,0.998
2026/01/08 10:04:08.067,0.003,0.006,1.0
2026/01/08 10:04:08.088,-0.001,0.011,1.001
2026/01/08 10:04:08.108,-0.003,0.01,0.997
2026/01/08 10:04:08.128,0.003,0.006,0.998
2026/01/08 10:04:08.149,0.003,0.011,1.002
2026/01/08 10:04:08.169,0.0,0.012,1.003
2026/01/08 10:04:08.189,0.001,0.012,0.998
2026/01/08 10:04:08.210,0.0,0.01,0.998
2026/01/08 10:04:08.230,-0.001,0.011,0.999
2026/01/08 10:04:08.250,0.001,0.01,0.996
2026/01/08 10:04:08.271,0.0,0.012,0.998
2026/01/08 10:04:08.291,0.003,0.01,1.002
2026/01/08 10:04:08.311,0.002,0.012,0.999
2026/01/08 10:04:08.332,0.0,0.012,1.0
2026/01/08 10:04:08.352,-0.001,0.011,0.998
2026/01/08 10:04:08.372,0.001,0.01,0.995
2026/01/08 10:04:08.393,-0.001,0.008,1.0
2026/01/08 10:04:08.413,0.004,0.01,1.0
2026/01/08 10:04:08.433,-0.001,0.009,1.001
2026/01/08 10:04:08.454,-0.001,0.012,0.999
2026/01/08 10:04:08.474,-0.002,0.015,0.993
2026/01/08 10:04:08.494,0.003,0.01,1.0
2026/01/08 10:04:08.515,0.0,0.009,1.002
2026/01/08 10:04:08.535,0.003,0.012,1.002
2026/01/08 10:04:08.555,-0.001,0.01,0.997
2026/01/08 10:04:08.576,0.005,0.011,1.0
2026/01/08 10:04:08.596,0.001,0.009,0.998
2026/01/08 10:04:08.616,0.004,0.013,1.001
2026/01/08 10:04:08.637,0.001,0.014,0.998
2026/01/08 10:04:08.657,-0.001,0.011,1.0
2026/01/08 10:04:08.677,0.001,0.011,0.999
2026/01/08 10:04:08.698,0.001,0.013,0.999
2026/01/08 10:04:08.718,0.002,0.013,0.998
2026/01/08 10:04:08.739,0.003,0.01,0.997
2026/01/08 10:04:08.759,0.0,0.012,1.001
2026/01/08 10:04:08.779,0.002,0.005,1.001
2026/01/08 10:04:08.800,0.0,0.009,0.998
2026/01/08 10:04:08.820,0.002,0.012,0.999
2026/01/08 10:04:08.840,0.002,0.009,1.002
2026/01/08 10:04:08.861,0.002,0.011,0.998
2026/01/08 10:04:08.881,-0.002,0.013,0.995
2026/01/08 10:04:08.901,0.006,0.011,1.002
2026/01/08 10:04:08.922,0.001,0.01,0.997
2026/01/08 10:04:08.942,0.0,0.012,0.998
2026/01/08 10:04:08.962,0.0,0.011,0.998
2026/01/08 10:04:08.983,0.003,0.01,0.999
2026/01/08 10:04:09.003,0.002,0.011,0.996
2026/01/08 10:04:09.023,0.004,0.013,0.999
2026/01/08 10:04:09.044,-0.002,0.008,0.999
2026/01/08 10:04:09.064,0.0,0.015,1.003
2026/01/08 10:04:09.084,-0.001,0.007,1.0
2026/01/08 10:04:09.105,0.004,0.009,1.002
2026/01/08 10:04:09.125,-0.002,0.011,0.999
2026/01/08 10:04:09.145,0.002,0.012,0.996
2026/01/08 10:04:09.166,-0.001,0.013,0.999
2026/01/08 10:04:09.186,0.001,0.009,1.0
2026/01/08 10:04:09.206,0.002,0.011,0.998
2026/01/08 10:04:09.227,-0.001,0.012,0.999
2026/01/08 10:04:09.247,0.001,0.014,1.0
2026/01/08 10:04:09.267,-0.002,0.011,0.997
2026/01/08 10:04:09.288,0.002,0.014,0.998
2026/01/08 10:04:09.308,0.0,0.006,0.998
2026/01/08 10:04:09.328,0.002,0.012,0.998
2026/01/08 10:04:09.349,0.001,0.017,1.0
2026/01/08 10:04:09.369,-0.001,0.005,0.999
2026/01/08 10:04:09.389,0.001,0.013,1.0
2026/01/08 10:04:09.410,-0.003,0.008,0.999
2026/01/08 10:04:09.430,0.002,0.013,0.996
2026/01/08 10:04:09.450,0.001,0.01,0.997
2026/01/08 10:04:09.471,0.0,0.014,0.997
2026/01/08 10:04:09.491,0.0,0.01,1.001
2026/01/08 10:04:09.511,0.0,0.013,0.998
2026/01/08 10:04:09.532,0.001,0.011,0.997
2026/01/08 10:04:09.552,0.003,0.013,1.0
2026/01/08 10:04:09.572,0.003,0.011,1.002
2026/01/08 10:04:09.593,0.001,0.009,0.999
2026/01/08 10:04:09.613,0.001,0.009,1.0
2026/01/08 10:04:09.634,-0.002,0.009,1.001
2026/01/08 10:04:09.654,0.001,0.009,1.0
2026/01/08 10:04:09.674,0.002,0.009,0.997
2026/01/08 10:04:09.695,-0.003,0.013,1.001
2026/01/08 10:04:09.715,0.001,0.01,0.997
2026/01/08 10:04:09.735,0.004,0.013,0.998
2026/01/08 10:04:09.756,0.002,0.013,0.999
2026/01/08 10:04:09.776,0.0,0.01,1.0
2026/01/08 10:04:09.796,-0.001,0.011,1.001
2026/01/08 10:04:09.817,0.002,0.01,1.0
2026/01/08 10:04:09.837,0.002,0.013,0.999
2026/01/08 10:04:09.857,0.001,0.01,0.997
2026/01/08 10:04:09.878,0.002,0.011,1.001
2026/01/08 10:04:09.898,-0.003,0.014,0.994
2026/01/08 10:04:09.918,0.001,0.012,1.0
2026/01/08 10:04:09.939,0.002,0.008,0.993
2026/01/08 10:04:09.959,-0.002,0.009,1.001
2026/01/08 10:04:09.979,0.002,0.009,0.999
2026/01/08 10:04:10.000,0.001,0.012,0.997
2026/01/08 10:04:10.020,0.001,0.011,0.997
2026/01/08 10:04:10.040,0.002,0.01,0.997
2026/01/08 10:04:10.061,-0.003,0.012,0.998
2026/01/08 10:04:10.081,0.002,0.011,1.0
2026/01/08 10:04:10.101,0.0,0.007,0.996
2026/01/08 10:04:10.122,-0.001,0.012,1.0
2026/01/08 10:04:10.142,-0.001,0.011,0.999
2026/01/08 10:04:10.162,0.002,0.009,1.0
2026/01/08 10:04:10.183,0.005,0.011,0.997
2026/01/08 10:04:10.203,0.002,0.013,1.001
2026/01/08 10:04:10.223,-0.001,0.008,1.0
2026/01/08 10:04:10.244,0.001,0.01,0.998
2026/01/08 10:04:10.264,-0.001,0.01,0.999
2026/01/08 10:04:10.284,0.002,0.012,0.998
2026/01/08 10:04:10.305,0.003,0.007,0.998
2026/01/08 10:04:10.325,0.005,0.011,0.999
2026/01/08 10:04:10.345,-0.001,0.012,0.998
2026/01/08 10:04:10.366,0.002,0.007,0.997
2026/01/08 10:04:10.386,0.003,0.01,1.001
2026/01/08 10:04:10.407,0.004,0.01,1.003
2026/01/08 10:04:10.427,-0.003,0.011,0.999
2026/01/08 10:04:10.447,-0.002,0.009,1.0
2026/01/08 10:04:10.468,-0.002,0.009,1.0
2026/01/08 10:04:10.488,0.002,0.009,0.999
2026/01/08 10:04:10.508,-0.001,0.011,1.001
2026/01/08 10:04:10.529,0.002,0.013,0.994
2026/01/08 10:04:10.549,0.005,0.011,0.999
2026/01/08 10:04:10.569,0.002,0.011,1.0
2026/01/08 10:04:10.590,0.0,0.009,1.0
2026/01/08 10:04:10.610,-0.003,0.01,1.003
2026/01/08 10:04:10.630,0.001,0.012,0.997
2026/01/08 10:04:10.651,0.001,0.013,1.001
2026/01/08 10:04:10.671,-0.002,0.006,0.998
2026/01/08 10:04:10.691,0.003,0.011,1.0
2026/01/08 10:04:10.712,-0.001,0.011,0.999
2026/01/08 10:04:10.732,0.0,0.012,0.997
2026/01/08 10:04:10.752,-0.001,0.013,0.998
2026/01/08 10:04:10.773,0.002,0.01,1.0
2026/01/08 10:04:10.793,-0.001,0.015,0.998
2026/01/08 10:04:10.813,-0.001,0.013,0.999
2026/01/08 10:04:10.834,0.0,0.011,1.001
2026/01/08 10:04:10.854,0.0,0.01,0.999
2026/01/08 10:04:10.874,-0.005,0.016,0.999
2026/01/08 10:04:10.895,0.005,0.009,1.001
2026/01/08 10:04:10.915,0.001,0.014,1.0
2026/01/08 10:04:10.935,0.001,0.011,1.002
2026/01/08 10:04:10.956,0.0,0.012,0.998
2026/01/08 10:04:10.976,0.002,0.008,1.001
2026/01/08 10:04:10.996,0.0,0.012,0.998
2026/01/08 10:04:11.017,-0.002,0.011,0.997
2026/01/08 10:04:11.037,0.002,0.014,0.998
2026/01/08 10:04:11.057,0.001,0.014,0.997
2026/01/08 10:04:11.078,0.003,0.011,0.997
2026/01/08 10:04:11.098,0.001,0.011,0.998
2026/01/08 10:04:11.119,0.002,0.009,0.999
2026/01/08 10:04:11.139,0.004,0.012,1.0
2026/01/08 10:04:11.159,0.0,0.016,0.997
2026/01/08 10:04:11.180,0.0,0.012,1.001
2026/01/08 10:04:11.200,0.004,0.013,0.998
2026/01/08 10:04:11.220,0.002,0.008,1.001
2026/01/08 10:04:11.241,0.001,0.009,1.0
2026/01/08 10:04:11.261,0.003,0.016,0.998
2026/01/08 10:04:11.281,0.003,0.006,0.998
2026/01/08 10:04:11.302,0.004,0.011,0.999
2026/01/08 10:04:11.322,0.0,0.01,0.999
2026/01/08 10:04:11.342,-0.002,0.009,0.997
2026/01/08 10:04:11.363,0.002,0.013,0.999
2026/01/08 10:04:11.383,-0.001,0.01,1.004
2026/01/08 10:04:11.403,0.001,0.014,0.998
2026/01/08 10:04:11.424,0.002,0.014,0.996
2026/01/08 10:04:11.444,-0.001,0.009,0.997
2026/01/08 10:04:11.464,0.002,0.012,0.999
2026/01/08 10:04:11.485,0.0,0.007,1.0
2026/01/08 10:04:11.505,-0.001,0.012,1.0
2026/01/08 10:04:11.525,-0.001,0.008,0.998
2026/01/08 10:04:11.546,-0.003,0.011,0.999
2026/01/08 10:04:11.566,0.003,0.012,1.002
2026/01/08 10:04:11.586,0.003,0.009,0.999
2026/01/08 10:04:11.607,0.003,0.007,1.0
2026/01/08 10:04:11.627,0.003,0.012,0.997
2026/01/08 10:04:11.647,0.001,0.008,0.999
2026/01/08 10:04:11.668,0.0,0.01,0.999
2026/01/08 10:04:11.688,0.003,0.011,1.001
2026/01/08 10:04:11.708,0.002,0.011,1.001
2026/01/08 10:04:11.729,0.002,0.009,1.002
2026/01/08 10:04:11.749,0.003,0.01,0.998
2026/01/08 10:04:11.769,0.002,0.012,0.996
2026/01/08 10:04:11.790,0.001,0.009,0.994
2026/01/08 10:04:11.810,-0.002,0.009,0.999
2026/01/08 10:04:11.830,-0.002,0.007,0.999
2026/01/08 10:04:11.851,0.002,0.014,0.999
2026/01/08 10:04:11.871,0.001,0.011,0.999
2026/01/08 10:04:11.892,0.001,0.011,0.999
2026/01/08 10:04:11.912,-0.002,0.009,0.997
2026/01/08 10:04:11.932,0.003,0.009,1.001
2026/01/08 10:04:11.953,0.001,0.018,0.997
2026/01/08 10:04:11.973,-0.002,0.009,0.998
2026/01/08 10:04:11.993,0.003,0.012,0.998
2026/01/08 10:04:12.014,0.001,0.015,0.998
2026/01/08 10:04:12.034,0.0,0.011,0.999
2026/01/08 10:04:12.054,-0.001,0.011,0.998
2026/01/08 10:04:12.075,-0.001,0.007,1.001
2026/01/08 10:04:12.095,0.001,0.015,0.999
2026/01/08 10:04:12.115,0.001,0.009,1.0
2026/01/08 10:04:12.136,-0.001,0.016,0.999
2026/01/08 10:04:12.156,-0.002,0.01,1.003
2026/01/08 10:04:12.176,0.0,0.013,0.999
2026/01/08 10:04:12.197,0.004,0.013,1.002
2026/01/08 10:04:12.217,0.0,0.014,1.0
2026/01/08 10:04:12.237,0.001,0.011,0.999
2026/01/08 10:04:12.258,0.002,0.008,1.001
2026/01/08 10:04:12.278,0.001,0.01,0.996
2026/01/08 10:04:12.298,0.0,0.014,0.999
2026/01/08 10:04:12.319,0.002,0.008,0.996
2026/01/08 10:04:12.339,0.003,0.009,1.0
2026/01/08 10:04:12.359,-0.002,0.012,0.996
2026/01/08 10:04:12.380,0.001,0.008,0.998
2026/01/08 10:04:12.400,0.001,0.009,1.0
2026/01/08 10:04:12.420,0.0,0.011,0.998
2026/01/08 10:04:12.441,0.004,0.009,0.999
2026/01/08 10:04:12.461,-0.003,0.009,1.0
2026/01/08 10:04:12.481,0.001,0.013,1.0
2026/01/08 10:04:12.502,-0.002,0.01,0.995
2026/01/08 10:04:12.522,-0.001,0.011,0.999
2026/01/08 10:04:12.542,-0.003,0.012,1.002
2026/01/08 10:04:12.563,0.0,0.012,0.998
2026/01/08 10:04:12.583,0.002,0.009,1.002
2026/01/08 10:04:12.604,0.001,0.012,0.999
2026/01/08 10:04:12.624,0.002,0.015,0.996
2026/01/08 10:04:12.644,0.002,0.014,0.996
2026/01/08 10:04:12.665,0.003,0.011,0.999
2026/01/08 10:04:12.685,0.004,0.008,1.001
2026/01/08 10:04:12.705,0.0,0.011,1.0
2026/01/08 10:04:12.726,0.002,0.009,0.999
2026/01/08 10:04:12.746,-0.004,0.01,0.998
2026/01/08 10:04:12.766,-0.001,0.012,0.999
2026/01/08 10:04:12.787,0.005,0.011,0.997
2026/01/08 10:04:12.807,-0.002,0.014,0.995
2026/01/08 10:04:12.827,-0.002,0.012,0.999
2026/01/08 10:04:12.848,0.0,0.01,0.997
2026/01/08 10:04:12.868,0.004,0.011,1.0
2026/01/08 10:04:12.888,0.002,0.011,1.002
2026/01/08 10:04:12.909,0.001,0.012,0.995
2026/01/08 10:04:12.929,0.004,0.012,1.001
2026/01/08 10:04:12.949,0.002,0.01,1.0
2026/01/08 10:04:12.970,0.0,0.012,0.999
2026/01/08 10:04:12.990,-0.001,0.01,1.002
2026/01/08 10:04:13.010,0.006,0.01,1.002
2026/01/08 10:04:13.031,0.003,0.011,1.002
2026/01/08 10:04:13.051,0.002,0.017,0.998
2026/01/08 10:04:13.071,0.001,0.011,0.995
2026/01/08 10:04:13.092,0.004,0.012,0.998
2026/01/08 10:04:13.112,0.0,0.01,0.998
2026/01/08 10:04:13.132,0.002,0.01,0.998
2026/01/08 10:04:13.153,0.001,0.013,0.999
2026/01/08 10:04:13.173,0.003,0.011,0.999
2026/01/08 10:04:13.193,0.003,0.013,1.001
2026/01/08 10:04:13.214,0.001,0.012,0.997
2026/01/08 10:04:13.234,0.0,0.004,1.0
2026/01/08 10:04:13.254,0.002,0.01,0.999
2026/01/08 10:04:13.275,0.0,0.011,1.004
2026/01/08 10:04:13.295,-0.003,0.009,1.0
2026/01/08 10:04:13.316,0.003,0.011,1.002
2026/01/08 10:04:13.336,-0.001,0.012,0.999
2026/01/08 10:04:13.356,0.002,0.01,0.998
2026/01/08 10:04:13.377,-0.001,0.012,1.0
2026/01/08 10:04:13.397,0.001,0.014,0.998
2026/01/08 10:04:13.417,0.0,0.011,1.0
