Timestamp,ACC X,ACC Y,ACC Z
2026/06/04 08:44:37.246,0.091,-0.096,-1.008
2026/06/04 08:44:37.265,0.092,-0.092,-1.017
2026/06/04 08:44:37.284,0.09,-0.097,-1.006
2026/06/04 08:44:37.303,0.087,-0.098,-1.009
2026/06/04 08:44:37.323,0.088,-0.091,-1.01
2026/06/04 08:44:37.342,0.09,-0.096,-1.009
2026/06/04 08:44:37.361,0.085,-0.095,-1.015
2026/06/04 08:44:37.380,0.09,-0.095,-1.002
2026/06/04 08:44:37.400,0.087,-0.096,-1.013
2026/06/04 08:44:37.419,0.087,-0.093,-1.008
2026/06/04 08:44:37.438,0.089,-0.095,-1.008
2026/06/04 08:44:37.457,0.094,-0.091,-1.008
2026/06/04 08:44:37.476,0.09,-0.09,-1.009
2026/06/04 08:44:37.496,0.09,-0.091,-1.011
2026/06/04 08:44:37.515,0.092,-0.098,-1.013
2026/06/04 08:44:37.534,0.091,-0.102,-1.011
2026/06/04 08:44:37.553,0.093,-0.096,-1.009
2026/06/04 08:44:37.573,0.086,-0.1,-1.008
2026/06/04 08:44:37.592,0.09,-0.097,-1.01
2026/06/04 08:44:37.611,0.091,-0.097,-1.011
2026/06/04 08:44:37.630,0.084,-0.091,-1.001
2026/06/04 08:44:37.650,0.09,-0.094,-1.006
2026/06/04 08:44:37.669,0.086,-0.093,-1.005
2026/06/04 08:44:37.688,0.087,-0.096,-1.005
2026/06/04 08:44:37.707,0.09,-0.094,-1.01
2026/06/04 08:44:37.726,0.089,-0.094,-1.007
2026/06/04 08:44:37.746,0.092,-0.093,-1.008
2026/06/04 08:44:37.765,0.09,-0.096,-1.005
2026/06/04 08:44:37.784,0.093,-0.094,-1.009
2026/06/04 08:44:37.803,0.088,-0.093,-1.007
2026/06/04 08:44:37.823,0.09,-0.094,-1.008
2026/06/04 08:44:37.842,0.091,-0.096,-1.008
2026/06/04 08:44:37.861,0.09,-0.087,-1.012
2026/06/04 08:44:37.880,0.092,-0.092,-1.011
2026/06/04 08:44:37.900,0.091,-0.096,-1.009
2026/06/04 08:44:37.919,0.09,-0.097,-1.013
2026/06/04 08:44:37.938,0.095,-0.1,-1.011
2026/06/04 08:44:37.957,0.09,-0.098,-1.012
2026/06/04 08:44:37.976,0.096,-0.098,-1.013
2026/06/04 08:44:37.996,0.091,-0.099,-1.012
2026/06/04 08:44:38.015,0.091,-0.093,-1.011
2026/06/04 08:44:38.034,0.089,-0.095,-1.011
2026/06/04 08:44:38.053,0.094,-0.093,-1.01
2026/06/04 08:44:38.073,0.09,-0.095,-1.012
2026/06/04 08:44:38.092,0.092,-0.094,-1.011
2026/06/04 08:44:38.111,0.089,-0.097,-1.007
2026/06/04 08:44:38.130,0.09,-0.095,-1.014
2026/06/04 08:44:38.150,0.092,-0.095,-1.008
2026/06/04 08:44:38.169,0.092,-0.097,-1.009
2026/06/04 08:44:38.188,0.088,-0.097,-1.005
2026/06/04 08:44:38.207,0.094,-0.094,-1.011
2026/06/04 08:44:38.226,0.094,-0.098,-1.007
2026/06/04 08:44:38.246,0.091,-0.095,-1.012
2026/06/04 08:44:38.265,0.092,-0.096,-1.01
2026/06/04 08:44:38.284,0.09,-0.088,-1.004
2026/06/04 08:44:38.303,0.084,-0.082,-1.006
2026/06/04 08:44:38.323,0.09,-0.087,-1.012
2026/06/04 08:44:38.342,0.09,-0.089,-1.008
2026/06/04 08:44:38.361,0.09,-0.089,-1.011
2026/06/04 08:44:38.380,0.09,-0.089,-1.013
2026/06/04 08:44:38.400,0.092,-0.092,-1.01
2026/06/04 08:44:38.419,0.093,-0.094,-1.007
2026/06/04 08:44:38.438,0.091,-0.092,-1.012
2026/06/04 08:44:38.457,0.092,-0.093,-1.005
2026/06/04 08:44:38.476,0.088,-0.099,-1.01
2026/06/04 08:44:38.496,0.087,-0.098,-1.01
2026/06/04 08:44:38.515,0.091,-0.094,-1.01
2026/06/04 08:44:38.534,0.091,-0.093,-1.012
2026/06/04 08:44:38.553,0.087,-0.096,-1.007
2026/06/04 08:44:38.573,0.094,-0.098,-1.007
2026/06/04 08:44:38.592,0.088,-0.092,-1.01
2026/06/04 08:44:38.611,0.085,-0.092,-1.01
2026/06/04 08:44:38.630,0.092,-0.097,-1.005
2026/06/04 08:44:38.650,0.093,-0.093,-1.011
2026/06/04 08:44:38.669,0.088,-0.087,-1.006
2026/06/04 08:44:38.688,0.09,-0.095,-1.009
2026/06/04 08:44:38.707,0.091,-0.093,-1.007
2026/06/04 08:44:38.726,0.092,-0.095,-1.01
2026/06/04 08:44:38.746,0.09,-0.096,-1.015
2026/06/04 08:44:38.765,0.094,-0.097,-1.009
2026/06/04 08:44:38.784,0.091,-0.099,-1.013
2026/06/04 08:44:38.803,0.092,-0.098,-1.011
2026/06/04 08:44:38.823,0.087,-0.102,-1.012
2026/06/04 08:44:38.842,0.096,-0.097,-1.008
2026/06/04 08:44:38.861,0.089,-0.094,-1.008
2026/06/04 08:44:38.880,0.086,-0.095,-1.009
2026/06/04 08:44:38.900,0.093,-0.093,-1.008
2026/06/04 08:44:38.919,0.086,-0.093,-1.017
2026/06/04 08:44:38.938,0.091,-0.103,-1.016
2026/06/04 08:44:38.957,0.091,-0.099,-1.01
2026/06/04 08:44:38.976,0.089,-0.097,-1.008
2026/06/04 08:44:38.996,0.089,-0.095,-1.01
2026/06/04 08:44:39.015,0.085,-0.09,-1.013
2026/06/04 08:44:39.034,0.09,-0.095,-1.01
2026/06/04 08:44:39.053,0.086,-0.103,-1.009
2026/06/04 08:44:39.073,0.088,-0.101,-1.005
2026/06/04 08:44:39.092,0.089,-0.099,-1.01
2026/06/04 08:44:39.111,0.09,-0.096,-1.011
2026/06/04 08:44:39.130,0.088,-0.095,-1.006
2026/06/04 08:44:39.150,0.087,-0.088,-1.008
2026/06/04 08:44:39.169,0.085,-0.089,-1.01
2026/06/04 08:44:39.188,0.085,-0.086,-1.002
2026/06/04 08:44:39.207,0.088,-0.094,-1.009
2026/06/04 08:44:39.226,0.089,-0.091,-1.006
2026/06/04 08:44:39.246,0.089,-0.094,-1.009
2026/06/04 08:44:39.265,0.09,-0.092,-1.011
2026/06/04 08:44:39.284,0.09,-0.089,-1.014
2026/06/04 08:44:39.303,0.09,-0.09,-1.015
2026/06/04 08:44:39.323,0.093,-0.095,-1.003
2026/06/04 08:44:39.342,0.094,-0.098,-1.014
2026/06/04 08:44:39.361,0.088,-0.101,-1.012
2026/06/04 08:44:39.380,0.088,-0.096,-1.011
2026/06/04 08:44:39.400,0.09,-0.102,-1.009
2026/06/04 08:44:39.419,0.091,-0.102,-1.009
2026/06/04 08:44:39.438,0.088,-0.097,-1.011
2026/06/04 08:44:39.457,0.09,-0.09,-1.013
2026/06/04 08:44:39.476,0.089,-0.093,-1.008
2026/06/04 08:44:39.496,0.093,-0.097,-1.01
2026/06/04 08:44:39.515,0.094,-0.104,-1.008
2026/06/04 08:44:39.535,0.092,-0.102,-1.017
2026/06/04 08:44:39.556,0.091,-0.101,-1.013
2026/06/04 08:44:39.576,0.095,-0.104,-1.015
2026/06/04 08:44:39.597,0.086,-0.101,-1.011
2026/06/04 08:44:39.617,0.091,-0.096,-1.013
2026/06/04 08:44:39.637,0.09,-0.098,-1.016
2026/06/04 08:44:39.658,0.087,-0.097,-1.008
2026/06/04 08:44:39.678,0.091,-0.101,-1.011
2026/06/04 08:44:39.699,0.089,-0.095,-1.012
2026/06/04 08:44:39.719,0.089,-0.096,-1.009
2026/06/04 08:44:39.740,0.091,-0.097,-1.002
2026/06/04 08:44:39.760,0.093,-0.093,-1.015
2026/06/04 08:44:39.780,0.091,-0.096,-1.008
2026/06/04 08:44:39.801,0.087,-0.092,-1.01
2026/06/04 08:44:39.821,0.09,-0.095,-1.009
2026/06/04 08:44:39.842,0.094,-0.094,-1.004
2026/06/04 08:44:39.862,0.089,-0.095,-1.01
2026/06/04 08:44:39.882,0.085,-0.096,-1.009
2026/06/04 08:44:39.903,0.085,-0.095,-1.006
2026/06/04 08:44:39.923,0.092,-0.099,-1.005
2026/06/04 08:44:39.944,0.089,-0.094,-1.01
2026/06/04 08:44:39.964,0.092,-0.09,-1.009
2026/06/04 08:44:39.984,0.087,-0.091,-1.01
2026/06/04 08:44:40.005,0.087,-0.09,-1.007
2026/06/04 08:44:40.025,0.086,-0.09,-1.007
2026/06/04 08:44:40.046,0.088,-0.09,-1.014
2026/06/04 08:44:40.066,0.092,-0.091,-1.012
2026/06/04 08:44:40.087,0.089,-0.099,-1.009
2026/06/04 08:44:40.107,0.093,-0.101,-1.008
2026/06/04 08:44:40.127,0.094,-0.097,-1.003
2026/06/04 08:44:40.148,0.091,-0.101,-1.018
2026/06/04 08:44:40.168,0.092,-0.098,-1.018
2026/06/04 08:44:40.189,0.09,-0.097,-1.004
2026/06/04 08:44:40.209,0.091,-0.089,-1.009
2026/06/04 08:44:40.229,0.087,-0.093,-1.009
2026/06/04 08:44:40.250,0.09,-0.091,-1.008
2026/06/04 08:44:40.270,0.089,-0.096,-1.011
2026/06/04 08:44:40.291,0.091,-0.095,-1.007
2026/06/04 08:44:40.311,0.089,-0.096,-1.009
2026/06/04 08:44:40.332,0.085,-0.099,-1.011
2026/06/04 08:44:40.352,0.09,-0.101,-1.012
2026/06/04 08:44:40.372,0.084,-0.094,-1.01
2026/06/04 08:44:40.393,0.084,-0.094,-1.008
2026/06/04 08:44:40.413,0.087,-0.089,-1.008
2026/06/04 08:44:40.434,0.087,-0.093,-1.005
2026/06/04 08:44:40.454,0.089,-0.089,-1.011
2026/06/04 08:44:40.474,0.09,-0.092,-1.007
2026/06/04 08:44:40.495,0.088,-0.094,-1.008
2026/06/04 08:44:40.515,0.093,-0.096,-1.004
2026/06/04 08:44:40.536,0.09,-0.096,-1.011
2026/06/04 08:44:40.556,0.09,-0.092,-1.013
2026/06/04 08:44:40.577,0.086,-0.091,-1.012
2026/06/04 08:44:40.597,0.096,-0.094,-1.012
2026/06/04 08:44:40.617,0.088,-0.095,-1.008
2026/06/04 08:44:40.638,0.088,-0.095,-1.002
2026/06/04 08:44:40.658,0.091,-0.099,-1.01
2026/06/04 08:44:40.679,0.09,-0.098,-1.019
2026/06/04 08:44:40.699,0.086,-0.099,-1.006
2026/06/04 08:44:40.719,0.088,-0.096,-1.016
2026/06/04 08:44:40.740,0.089,-0.097,-1.006
2026/06/04 08:44:40.760,0.086,-0.094,-1.011
2026/06/04 08:44:40.781,0.09,-0.086,-1.009
2026/06/04 08:44:40.801,0.089,-0.09,-1.01
2026/06/04 08:44:40.821,0.089,-0.093,-1.008
2026/06/04 08:44:40.842,0.09,-0.092,-1.007
2026/06/04 08:44:40.862,0.088,-0.093,-1.011
2026/06/04 08:44:40.883,0.091,-0.095,-1.006
2026/06/04 08:44:40.903,0.091,-0.093,-1.009
2026/06/04 08:44:40.924,0.092,-0.091,-1.007
2026/06/04 08:44:40.944,0.089,-0.093,-1.005
2026/06/04 08:44:40.964,0.089,-0.093,-1.008
2026/06/04 08:44:40.985,0.094,-0.095,-1.01
2026/06/04 08:44:41.005,0.09,-0.094,-1.01
2026/06/04 08:44:41.026,0.092,-0.102,-1.015
2026/06/04 08:44:41.046,0.091,-0.099,-1.007
2026/06/04 08:44:41.066,0.087,-0.101,-1.01
2026/06/04 08:44:41.087,0.088,-0.1,-1.01
2026/06/04 08:44:41.107,0.089,-0.096,-1.009
2026/06/04 08:44:41.128,0.094,-0.094,-1.008
2026/06/04 08:44:41.148,0.091,-0.09,-1.007
2026/06/04 08:44:41.169,0.091,-0.089,-1.011
2026/06/04 08:44:41.189,0.091,-0.098,-1.008
2026/06/04 08:44:41.209,0.089,-0.101,-1.015
2026/06/04 08:44:41.230,0.096,-0.106,-1.012
2026/06/04 08:44:41.250,0.089,-0.107,-1.019
2026/06/04 08:44:41.271,0.088,-0.107,-1.005
2026/06/04 08:44:41.291,0.088,-0.107,-1.012
2026/06/04 08:44:41.311,0.09,-0.097,-1.008
2026/06/04 08:44:41.332,0.089,-0.099,-1.006
2026/06/04 08:44:41.352,0.085,-0.096,-1.004
2026/06/04 08:44:41.373,0.085,-0.096,-1.007
2026/06/04 08:44:41.393,0.089,-0.098,-1.006
2026/06/04 08:44:41.414,0.087,-0.096,-1.01
2026/06/04 08:44:41.434,0.09,-0.092,-1.002
2026/06/04 08:44:41.454,0.087,-0.088,-1.012
2026/06/04 08:44:41.475,0.09,-0.096,-1.009
2026/06/04 08:44:41.495,0.086,-0.095,-1.007
2026/06/04 08:44:41.516,0.089,-0.097,-1.006
2026/06/04 08:44:41.536,0.094,-0.094,-1.005
2026/06/04 08:44:41.556,0.092,-0.09,-1.019
2026/06/04 08:44:41.577,0.09,-0.093,-1.006
2026/06/04 08:44:41.597,0.087,-0.1,-1.014
2026/06/04 08:44:41.618,0.091,-0.102,-1.01
2026/06/04 08:44:41.638,0.09,-0.104,-1.01
2026/06/04 08:44:41.658,0.089,-0.102,-1.016
2026/06/04 08:44:41.679,0.09,-0.104,-1.014
2026/06/04 08:44:41.699,0.091,-0.098,-1.02
2026/06/04 08:44:41.720,0.087,-0.093,-1.011
2026/06/04 08:44:41.740,0.089,-0.095,-1.01
2026/06/04 08:44:41.761,0.092,-0.098,-1.007
2026/06/04 08:44:41.781,0.09,-0.093,-1.009
2026/06/04 08:44:41.801,0.09,-0.096,-1.011
2026/06/04 08:44:41.822,0.087,-0.093,-1.002
2026/06/04 08:44:41.842,0.091,-0.097,-1.008
2026/06/04 08:44:41.863,0.088,-0.091,-1.012
2026/06/04 08:44:41.883,0.087,-0.091,-1.003
2026/06/04 08:44:41.903,0.094,-0.096,-1.015
2026/06/04 08:44:41.924,0.09,-0.09,-1.013
2026/06/04 08:44:41.944,0.094,-0.097,-1.011
2026/06/04 08:44:41.965,0.088,-0.096,-1.008
2026/06/04 08:44:41.985,0.089,-0.094,-1.008
2026/06/04 08:44:42.006,0.088,-0.098,-1.014
2026/06/04 08:44:42.026,0.091,-0.098,-1.01
2026/06/04 08:44:42.046,0.089,-0.101,-1.014
2026/06/04 08:44:42.067,0.089,-0.096,-1.003
2026/06/04 08:44:42.087,0.091,-0.091,-1.012
2026/06/04 08:44:42.108,0.09,-0.091,-1.012
2026/06/04 08:44:42.128,0.085,-0.088,-0.999
2026/06/04 08:44:42.148,0.085,-0.086,-1.009
2026/06/04 08:44:42.169,0.086,-0.089,-1.009
2026/06/04 08:44:42.189,0.09,-0.093,-1.014
2026/06/04 08:44:42.210,0.087,-0.088,-1.008
2026/06/04 08:44:42.230,0.089,-0.094,-1.004
2026/06/04 08:44:42.251,0.093,-0.096,-1.01
2026/06/04 08:44:42.271,0.089,-0.089,-1.018
2026/06/04 08:44:42.291,0.088,-0.1,-1.009
2026/06/04 08:44:42.312,0.093,-0.099,-0.999
2026/06/04 08:44:42.332,0.094,-0.092,-1.006
2026/06/04 08:44:42.353,0.085,-0.099,-1.011
2026/06/04 08:44:42.373,0.089,-0.096,-1.007
2026/06/04 08:44:42.393,0.09,-0.094,-1.014
2026/06/04 08:44:42.414,0.091,-0.095,-1.008
2026/06/04 08:44:42.434,0.09,-0.098,-1.007
2026/06/04 08:44:42.455,0.095,-0.089,-1.007
2026/06/04 08:44:42.475,0.092,-0.091,-1.008
2026/06/04 08:44:42.495,0.093,-0.09,-1.011
2026/06/04 08:44:42.516,0.088,-0.093,-1.012
2026/06/04 08:44:42.536,0.093,-0.096,-1.01
2026/06/04 08:44:42.557,0.092,-0.096,-1.017
2026/06/04 08:44:42.577,0.093,-0.098,-1.003
2026/06/04 08:44:42.598,0.092,-0.1,-1.014
2026/06/04 08:44:42.618,0.09,-0.09,-1.016
2026/06/04 08:44:42.638,0.09,-0.104,-1.009
2026/06/04 08:44:42.659,0.09,-0.1,-1.012
2026/06/04 08:44:42.679,0.091,-0.097,-1.01
2026/06/04 08:44:42.700,0.089,-0.094,-1.013
2026/06/04 08:44:42.720,0.09,-0.096,-1.005
2026/06/04 08:44:42.740,0.09,-0.096,-1.007
2026/06/04 08:44:42.761,0.087,-0.096,-1.008
2026/06/04 08:44:42.781,0.089,-0.097,-1.009
2026/06/04 08:44:42.802,0.089,-0.096,-1.018
2026/06/04 08:44:42.822,0.09,-0.092,-1.007
2026/06/04 08:44:42.843,0.093,-0.099,-1.014
2026/06/04 08:44:42.863,0.089,-0.094,-1.008
2026/06/04 08:44:42.883,0.09,-0.09,-1.018
2026/06/04 08:44:42.904,0.09,-0.093,-1.012
2026/06/04 08:44:42.924,0.092,-0.095,-1.004
2026/06/04 08:44:42.945,0.089,-0.1,-1.019
2026/06/04 08:44:42.965,0.089,-0.102,-1.007
2026/06/04 08:44:42.985,0.091,-0.102,-1.015
2026/06/04 08:44:43.006,0.093,-0.103,-1.008
2026/06/04 08:44:43.026,0.089,-0.1,-1.007
2026/06/04 08:44:43.047,0.09,-0.098,-1.016
2026/06/04 08:44:43.067,0.091,-0.094,-1.006
2026/06/04 08:44:43.088,0.089,-0.094,-1.012
2026/06/04 08:44:43.108,0.089,-0.094,-1.004
2026/06/04 08:44:43.128,0.093,-0.095,-1.008
2026/06/04 08:44:43.149,0.092,-0.093,-1.007
2026/06/04 08:44:43.169,0.09,-0.094,-1.005
2026/06/04 08:44:43.190,0.091,-0.092,-1.014
2026/06/04 08:44:43.210,0.089,-0.096,-1.011
2026/06/04 08:44:43.230,0.086,-0.096,-1.011
2026/06/04 08:44:43.251,0.089,-0.095,-1.008
2026/06/04 08:44:43.271,0.091,-0.101,-1.012
2026/06/04 08:44:43.292,0.087,-0.091,-1.007
2026/06/04 08:44:43.312,0.093,-0.094,-1.008
2026/06/04 08:44:43.333,0.091,-0.096,-1.013
2026/06/04 08:44:43.353,0.084,-0.096,-1.007
2026/06/04 08:44:43.373,0.089,-0.092,-1.012
2026/06/04 08:44:43.394,0.087,-0.094,-1.002
2026/06/04 08:44:43.414,0.088,-0.088,-1.015
2026/06/04 08:44:43.435,0.087,-0.088,-1.008
2026/06/04 08:44:43.455,0.089,-0.096,-1.013
2026/06/04 08:44:43.475,0.088,-0.094,-1.01
2026/06/04 08:44:43.496,0.092,-0.094,-1.008
2026/06/04 08:44:43.516,0.088,-0.093,-1.016
2026/06/04 08:44:43.537,0.09,-0.091,-1.01
2026/06/04 08:44:43.557,0.097,-0.096,-1.011
2026/06/04 08:44:43.578,0.091,-0.098,-1.01
2026/06/04 08:44:43.598,0.093,-0.095,-1.003
2026/06/04 08:44:43.618,0.093,-0.095,-1.019
2026/06/04 08:44:43.639,0.08,-0.092,-1.002
2026/06/04 08:44:43.659,0.091,-0.096,-1.008
2026/06/04 08:44:43.680,0.087,-0.096,-1.014
2026/06/04 08:44:43.700,0.086,-0.097,-1.004
2026/06/04 08:44:43.720,0.093,-0.098,-1.011
2026/06/04 08:44:43.741,0.089,-0.095,-1.012
2026/06/04 08:44:43.761,0.093,-0.099,-1.011
2026/06/04 08:44:43.782,0.087,-0.09,-1.01
2026/06/04 08:44:43.802,0.09,-0.089,-1.009
2026/06/04 08:44:43.822,0.092,-0.095,-1.01
2026/06/04 08:44:43.843,0.086,-0.094,-1.005
2026/06/04 08:44:43.863,0.093,-0.095,-1.013
2026/06/04 08:44:43.884,0.094,-0.096,-1.011
2026/06/04 08:44:43.904,0.087,-0.094,-1.008
2026/06/04 08:44:43.925,0.088,-0.097,-1.012
2026/06/04 08:44:43.945,0.091,-0.095,-1.01
2026/06/04 08:44:43.965,0.096,-0.097,-1.017
2026/06/04 08:44:43.986,0.09,-0.1,-1.005
2026/06/04 08:44:44.006,0.086,-0.096,-1.007
2026/06/04 08:44:44.027,0.086,-0.094,-1.015
2026/06/04 08:44:44.047,0.089,-0.096,-1.01
2026/06/04 08:44:44.067,0.095,-0.097,-1.013
2026/06/04 08:44:44.088,0.085,-0.091,-1.004
2026/06/04 08:44:44.108,0.09,-0.096,-1.008
2026/06/04 08:44:44.129,0.091,-0.093,-1.01
2026/06/04 08:44:44.149,0.089,-0.094,-1.01
2026/06/04 08:44:44.170,0.089,-0.099,-1.012
2026/06/04 08:44:44.190,0.091,-0.1,-1.006
2026/06/04 08:44:44.210,0.09,-0.102,-1.018
2026/06/04 08:44:44.231,0.088,-0.103,-1.014
2026/06/04 08:44:44.251,0.09,-0.103,-1.016
2026/06/04 08:44:44.272,0.088,-0.099,-1.014
2026/06/04 08:44:44.292,0.089,-0.098,-1.011
2026/06/04 08:44:44.312,0.091,-0.105,-1.011
2026/06/04 08:44:44.333,0.088,-0.092,-1.007
2026/06/04 08:44:44.353,0.091,-0.091,-1.007
2026/06/04 08:44:44.374,0.091,-0.094,-1.006
2026/06/04 08:44:44.394,0.096,-0.095,-1.008
2026/06/04 08:44:44.415,0.086,-0.096,-1.011
2026/06/04 08:44:44.435,0.094,-0.096,-1.009
2026/06/04 08:44:44.455,0.086,-0.095,-1.007
2026/06/04 08:44:44.476,0.09,-0.094,-1.01
2026/06/04 08:44:44.496,0.09,-0.094,-1.016
2026/06/04 08:44:44.517,0.089,-0.096,-1.008
2026/06/04 08:44:44.537,0.093,-0.093,-1.005
2026/06/04 08:44:44.557,0.087,-0.094,-1.01
2026/06/04 08:44:44.578,0.092,-0.091,-1.013
2026/06/04 08:44:44.598,0.089,-0.091,-1.012
2026/06/04 08:44:44.619,0.088,-0.098,-1.012
2026/06/04 08:44:44.639,0.09,-0.104,-1.012
2026/06/04 08:44:44.659,0.089,-0.103,-1.014
2026/06/04 08:44:44.680,0.091,-0.105,-1.016
2026/06/04 08:44:44.700,0.089,-0.103,-1.018
2026/06/04 08:44:44.721,0.085,-0.1,-1.009
2026/06/04 08:44:44.741,0.093,-0.098,-1.013
2026/06/04 08:44:44.762,0.089,-0.094,-1.002
2026/06/04 08:44:44.782,0.092,-0.1,-1.01
2026/06/04 08:44:44.802,0.089,-0.096,-1.005
2026/06/04 08:44:44.823,0.088,-0.093,-1.008
2026/06/04 08:44:44.843,0.086,-0.095,-1.012
2026/06/04 08:44:44.864,0.091,-0.098,-1.006
2026/06/04 08:44:44.884,0.095,-0.097,-1.004
2026/06/04 08:44:44.904,0.09,-0.096,-1.007
2026/06/04 08:44:44.925,0.089,-0.096,-1.007
2026/06/04 08:44:44.945,0.091,-0.097,-1.005
2026/06/04 08:44:44.966,0.091,-0.097,-1.012
2026/06/04 08:44:44.986,0.087,-0.097,-1.009
2026/06/04 08:44:45.007,0.087,-0.098,-1.004
2026/06/04 08:44:45.027,0.092,-0.089,-1.012
2026/06/04 08:44:45.047,0.092,-0.088,-1.007
2026/06/04 08:44:45.068,0.092,-0.088,-1.007
2026/06/04 08:44:45.088,0.092,-0.09,-1.005
2026/06/04 08:44:45.109,0.089,-0.093,-1.006
2026/06/04 08:44:45.129,0.096,-0.09,-1.009
2026/06/04 08:44:45.149,0.09,-0.095,-1.009
2026/06/04 08:44:45.170,0.092,-0.095,-1.009
2026/06/04 08:44:45.190,0.093,-0.097,-1.015
2026/06/04 08:44:45.211,0.092,-0.101,-1.009
2026/06/04 08:44:45.231,0.089,-0.096,-1.012
2026/06/04 08:44:45.252,0.089,-0.095,-1.009
2026/06/04 08:44:45.272,0.088,-0.104,-1.013
2026/06/04 08:44:45.292,0.091,-0.098,-1.001
2026/06/04 08:44:45.313,0.09,-0.095,-1.014
2026/06/04 08:44:45.333,0.091,-0.095,-1.013
2026/06/04 08:44:45.354,0.089,-0.097,-1.008
2026/06/04 08:44:45.374,0.09,-0.094,-1.012
2026/06/04 08:44:45.394,0.09,-0.094,-1.0
2026/06/04 08:44:45.415,0.089,-0.096,-1.012
2026/06/04 08:44:45.435,0.093,-0.095,-1.014
2026/06/04 08:44:45.456,0.09,-0.089,-1.018
2026/06/04 08:44:45.476,0.09,-0.098,-1.007
2026/06/04 08:44:45.496,0.089,-0.098,-1.017
2026/06/04 08:44:45.517,0.088,-0.103,-1.016
2026/06/04 08:44:45.537,0.093,-0.104,-1.002
2026/06/04 08:44:45.558,0.092,-0.102,-1.007
2026/06/04 08:44:45.578,0.09,-0.102,-1.011
2026/06/04 08:44:45.599,0.093,-0.101,-1.01
2026/06/04 08:44:45.619,0.087,-0.097,-1.014
2026/06/04 08:44:45.639,0.09,-0.098,-1.001
2026/06/04 08:44:45.660,0.094,-0.095,-1.011
2026/06/04 08:44:45.680,0.09,-0.101,-1.013
2026/06/04 08:44:45.701,0.087,-0.099,-1.012
2026/06/04 08:44:45.721,0.091,-0.095,-1.009
2026/06/04 08:44:45.741,0.091,-0.096,-1.004
2026/06/04 08:44:45.762,0.089,-0.101,-1.015
2026/06/04 08:44:45.782,0.084,-0.092,-1.004
2026/06/04 08:44:45.803,0.091,-0.094,-1.013
2026/06/04 08:44:45.823,0.087,-0.09,-1.006
2026/06/04 08:44:45.844,0.087,-0.088,-1.008
2026/06/04 08:44:45.864,0.09,-0.095,-1.012
2026/06/04 08:44:45.884,0.088,-0.099,-1.004
2026/06/04 08:44:45.905,0.091,-0.097,-1.011
2026/06/04 08:44:45.925,0.09,-0.092,-1.007
2026/06/04 08:44:45.946,0.089,-0.088,-1.006
2026/06/04 08:44:45.966,0.089,-0.087,-1.01
2026/06/04 08:44:45.986,0.091,-0.097,-1.011
2026/06/04 08:44:46.007,0.088,-0.094,-1.011
2026/06/04 08:44:46.027,0.09,-0.1,-1.007
2026/06/04 08:44:46.048,0.094,-0.102,-1.013
2026/06/04 08:44:46.068,0.091,-0.096,-1.013
2026/06/04 08:44:46.088,0.09,-0.091,-1.013
2026/06/04 08:44:46.109,0.091,-0.094,-1.014
2026/06/04 08:44:46.129,0.089,-0.099,-1.001
2026/06/04 08:44:46.150,0.091,-0.101,-1.014
2026/06/04 08:44:46.170,0.091,-0.095,-1.009
2026/06/04 08:44:46.191,0.09,-0.098,-1.009
2026/06/04 08:44:46.211,0.092,-0.101,-1.01
2026/06/04 08:44:46.231,0.089,-0.101,-1.004
2026/06/04 08:44:46.252,0.087,-0.096,-1.018
2026/06/04 08:44:46.272,0.087,-0.096,-1.003
2026/06/04 08:44:46.293,0.087,-0.091,-1.016
2026/06/04 08:44:46.313,0.087,-0.09,-1.006
2026/06/04 08:44:46.333,0.088,-0.093,-1.011
2026/06/04 08:44:46.354,0.088,-0.094,-1.013
2026/06/04 08:44:46.374,0.094,-0.101,-1.006
2026/06/04 08:44:46.395,0.09,-0.102,-1.019
2026/06/04 08:44:46.415,0.09,-0.101,-1.007
2026/06/04 08:44:46.436,0.094,-0.107,-1.015
2026/06/04 08:44:46.456,0.088,-0.098,-1.008
2026/06/04 08:44:46.476,0.091,-0.099,-1.006
2026/06/04 08:44:46.497,0.09,-0.094,-1.013
2026/06/04 08:44:46.517,0.088,-0.097,-1.007
2026/06/04 08:44:46.538,0.088,-0.098,-1.008
2026/06/04 08:44:46.558,0.089,-0.093,-1.013
2026/06/04 08:44:46.578,0.09,-0.096,-1.006
2026/06/04 08:44:46.599,0.088,-0.096,-1.009
2026/06/04 08:44:46.619,0.092,-0.091,-1.005
2026/06/04 08:44:46.640,0.089,-0.097,-1.013
2026/06/04 08:44:46.660,0.093,-0.091,-1.014
2026/06/04 08:44:46.681,0.093,-0.094,-1.01
2026/06/04 08:44:46.701,0.091,-0.096,-1.007
2026/06/04 08:44:46.721,0.091,-0.096,-1.01
2026/06/04 08:44:46.742,0.091,-0.096,-1.008
2026/06/04 08:44:46.762,0.091,-0.097,-1.015
2026/06/04 08:44:46.783,0.091,-0.093,-1.005
2026/06/04 08:44:46.803,0.091,-0.091,-1.013
2026/06/04 08:44:46.823,0.087,-0.09,-1.007
2026/06/04 08:44:46.844,0.092,-0.096,-1.011
2026/06/04 08:44:46.864,0.09,-0.098,-1.006
2026/06/04 08:44:46.885,0.09,-0.098,-1.009
2026/06/04 08:44:46.905,0.093,-0.098,-1.017
2026/06/04 08:44:46.925,0.093,-0.1,-0.999
2026/06/04 08:44:46.946,0.091,-0.097,-1.024
2026/06/04 08:44:46.966,0.092,-0.101,-1.004
2026/06/04 08:44:46.987,0.09,-0.097,-1.01
2026/06/04 08:44:47.007,0.088,-0.093,-1.016
2026/06/04 08:44:47.028,0.089,-0.094,-1.008
2026/06/04 08:44:47.048,0.088,-0.092,-1.01
2026/06/04 08:44:47.068,0.088,-0.095,-1.008
2026/06/04 08:44:47.089,0.09,-0.093,-1.005
2026/06/04 08:44:47.109,0.086,-0.093,-1.013
2026/06/04 08:44:47.130,0.089,-0.096,-1.012
2026/06/04 08:44:47.150,0.087,-0.097,-1.01
2026/06/04 08:44:47.170,0.092,-0.096,-1.015
2026/06/04 08:44:47.191,0.089,-0.097,-1.01
2026/06/04 08:44:47.211,0.086,-0.102,-1.016
2026/06/04 08:44:47.232,0.094,-0.1,-1.009
2026/06/04 08:44:47.252,0.09,-0.105,-1.013
2026/06/04 08:44:47.273,0.091,-0.102,-1.016
2026/06/04 08:44:47.293,0.091,-0.1,-1.006
2026/06/04 08:44:47.313,0.088,-0.096,-1.023
2026/06/04 08:44:47.334,0.09,-0.097,-0.997
2026/06/04 08:44:47.354,0.092,-0.098,-1.018
2026/06/04 08:44:47.375,0.091,-0.092,-1.008
2026/06/04 08:44:47.395,0.089,-0.099,-1.003
2026/06/04 08:44:47.415,0.09,-0.1,-1.02
2026/06/04 08:44:47.436,0.09,-0.096,-1.001
2026/06/04 08:44:47.456,0.088,-0.101,-1.012
2026/06/04 08:44:47.477,0.087,-0.096,-1.01
2026/06/04 08:44:47.497,0.09,-0.088,-1.003
2026/06/04 08:44:47.518,0.089,-0.088,-1.013
2026/06/04 08:44:47.538,0.089,-0.094,-1.008
2026/06/04 08:44:47.558,0.091,-0.091,-1.011
2026/06/04 08:44:47.579,0.089,-0.094,-1.015
2026/06/04 08:44:47.599,0.09,-0.095,-1.017
2026/06/04 08:44:47.620,0.094,-0.096,-1.013
2026/06/04 08:44:47.640,0.093,-0.098,-1.011
2026/06/04 08:44:47.660,0.09,-0.102,-1.012
2026/06/04 08:44:47.681,0.088,-0.103,-1.012
2026/06/04 08:44:47.701,0.088,-0.103,-1.009
2026/06/04 08:44:47.722,0.09,-0.092,-1.011
2026/06/04 08:44:47.742,0.087,-0.087,-1.007
2026/06/04 08:44:47.762,0.085,-0.091,-1.005
2026/06/04 08:44:47.783,0.089,-0.089,-1.006
2026/06/04 08:44:47.803,0.089,-0.092,-1.01
2026/06/04 08:44:47.824,0.086,-0.098,-1.011
2026/06/04 08:44:47.844,0.09,-0.105,-1.01
2026/06/04 08:44:47.865,0.094,-0.101,-1.011
2026/06/04 08:44:47.885,0.089,-0.098,-1.016
2026/06/04 08:44:47.905,0.092,-0.095,-1.01
2026/06/04 08:44:47.926,0.091,-0.096,-1.011
2026/06/04 08:44:47.946,0.09,-0.095,-1.005
2026/06/04 08:44:47.967,0.088,-0.096,-1.012
2026/06/04 08:44:47.987,0.089,-0.084,-1.011
2026/06/04 08:44:48.007,0.089,-0.09,-1.01
2026/06/04 08:44:48.028,0.087,-0.095,-1.008
2026/06/04 08:44:48.048,0.091,-0.096,-1.009
2026/06/04 08:44:48.069,0.09,-0.097,-1.011
2026/06/04 08:44:48.089,0.09,-0.095,-1.013
2026/06/04 08:44:48.110,0.092,-0.096,-1.005
2026/06/04 08:44:48.130,0.092,-0.096,-1.009
2026/06/04 08:44:48.150,0.086,-0.097,-1.011
2026/06/04 08:44:48.171,0.089,-0.099,-1.01
2026/06/04 08:44:48.191,0.089,-0.091,-1.005
2026/06/04 08:44:48.212,0.088,-0.097,-1.009
2026/06/04 08:44:48.232,0.089,-0.096,-1.007
2026/06/04 08:44:48.252,0.092,-0.096,-1.019
2026/06/04 08:44:48.273,0.088,-0.098,-1.011
2026/06/04 08:44:48.293,0.091,-0.094,-1.011
2026/06/04 08:44:48.314,0.095,-0.094,-1.017
2026/06/04 08:44:48.334,0.089,-0.099,-0.999
2026/06/04 08:44:48.355,0.088,-0.094,-1.011
2026/06/04 08:44:48.375,0.092,-0.092,-1.01
2026/06/04 08:44:48.395,0.089,-0.095,-1.008
2026/06/04 08:44:48.416,0.089,-0.091,-1.013
2026/06/04 08:44:48.436,0.09,-0.093,-1.003
2026/06/04 08:44:48.457,0.09,-0.099,-1.008
2026/06/04 08:44:48.477,0.092,-0.092,-1.005
2026/06/04 08:44:48.497,0.09,-0.098,-1.014
2026/06/04 08:44:48.518,0.086,-0.098,-1.013
2026/06/04 08:44:48.538,0.09,-0.092,-1.005
2026/06/04 08:44:48.559,0.088,-0.094,-1.022
2026/06/04 08:44:48.579,0.093,-0.093,-1.009
2026/06/04 08:44:48.599,0.091,-0.101,-1.008
2026/06/04 08:44:48.620,0.088,-0.092,-1.007
2026/06/04 08:44:48.640,0.088,-0.086,-1.008
2026/06/04 08:44:48.661,0.089,-0.096,-1.011
2026/06/04 08:44:48.681,0.088,-0.096,-1.008
2026/06/04 08:44:48.702,0.089,-0.096,-1.0
2026/06/04 08:44:48.722,0.094,-0.093,-1.011
2026/06/04 08:44:48.742,0.088,-0.097,-1.004
2026/06/04 08:44:48.763,0.089,-0.094,-1.009
2026/06/04 08:44:48.783,0.088,-0.097,-1.009
2026/06/04 08:44:48.804,0.092,-0.091,-1.012
2026/06/04 08:44:48.824,0.088,-0.097,-1.007
2026/06/04 08:44:48.844,0.089,-0.098,-1.013
2026/06/04 08:44:48.865,0.09,-0.098,-1.002
2026/06/04 08:44:48.885,0.087,-0.097,-1.018
2026/06/04 08:44:48.906,0.09,-0.097,-1.013
2026/06/04 08:44:48.926,0.09,-0.093,-1.004
2026/06/04 08:44:48.947,0.092,-0.096,-1.017
2026/06/04 08:44:48.967,0.09,-0.094,-1.014
2026/06/04 08:44:48.987,0.089,-0.098,-1.005
2026/06/04 08:44:49.008,0.09,-0.101,-1.016
2026/06/04 08:44:49.028,0.094,-0.093,-1.006
2026/06/04 08:44:49.049,0.091,-0.098,-1.016
2026/06/04 08:44:49.069,0.092,-0.09,-1.013
2026/06/04 08:44:49.089,0.093,-0.095,-1.003
2026/06/04 08:44:49.110,0.093,-0.096,-1.021
2026/06/04 08:44:49.130,0.088,-0.092,-1.005
2026/06/04 08:44:49.151,0.091,-0.094,-1.013
2026/06/04 08:44:49.171,0.092,-0.097,-1.009
2026/06/04 08:44:49.192,0.091,-0.092,-1.004
2026/06/04 08:44:49.212,0.086,-0.092,-1.022
2026/06/04 08:44:49.232,0.091,-0.095,-1.0
2026/06/04 08:44:49.253,0.093,-0.099,-1.017
2026/06/04 08:44:49.273,0.087,-0.095,-1.009
2026/06/04 08:44:49.294,0.09,-0.089,-0.999
2026/06/04 08:44:49.314,0.093,-0.095,-1.02
2026/06/04 08:44:49.334,0.091,-0.094,-1.006
2026/06/04 08:44:49.355,0.086,-0.102,-1.016
2026/06/04 08:44:49.375,0.088,-0.105,-1.013
2026/06/04 08:44:49.396,0.091,-0.102,-1.005
2026/06/04 08:44:49.416,0.088,-0.099,-1.014
2026/06/04 08:44:49.437,0.089,-0.1,-1.016
2026/06/04 08:44:49.457,0.089,-0.095,-1.004
2026/06/04 08:44:49.477,0.093,-0.092,-1.011
2026/06/04 08:44:49.498,0.089,-0.096,-1.006
2026/06/04 08:44:49.518,0.089,-0.093,-1.003
2026/06/04 08:44:49.539,0.087,-0.095,-1.012
2026/06/04 08:44:49.559,0.088,-0.096,-1.007
2026/06/04 08:44:49.579,0.09,-0.094,-1.007
2026/06/04 08:44:49.600,0.093,-0.101,-1.019
2026/06/04 08:44:49.620,0.089,-0.094,-1.005
2026/06/04 08:44:49.641,0.092,-0.097,-1.013
2026/06/04 08:44:49.661,0.091,-0.096,-1.011
2026/06/04 08:44:49.681,0.088,-0.095,-1.003
2026/06/04 08:44:49.702,0.091,-0.093,-1.014
2026/06/04 08:44:49.722,0.089,-0.096,-1.002
2026/06/04 08:44:49.743,0.089,-0.098,-1.016
2026/06/04 08:44:49.763,0.084,-0.1,-1.005
2026/06/04 08:44:49.784,0.09,-0.091,-1.011
2026/06/04 08:44:49.804,0.094,-0.094,-1.013
2026/06/04 08:44:49.824,0.089,-0.092,-1.0
2026/06/04 08:44:49.845,0.086,-0.093,-1.012
2026/06/04 08:44:49.865,0.09,-0.093,-0.997
2026/06/04 08:44:49.886,0.088,-0.092,-1.01
2026/06/04 08:44:49.906,0.089,-0.098,-1.011
2026/06/04 08:44:49.926,0.09,-0.095,-1.008
2026/06/04 08:44:49.947,0.094,-0.097,-1.016
2026/06/04 08:44:49.967,0.09,-0.093,-1.003
2026/06/04 08:44:49.988,0.09,-0.099,-1.016
2026/06/04 08:44:50.008,0.087,-0.096,-1.009
2026/06/04 08:44:50.029,0.094,-0.094,-1.007
2026/06/04 08:44:50.049,0.091,-0.098,-1.016
2026/06/04 08:44:50.069,0.087,-0.095,-1.003
2026/06/04 08:44:50.090,0.086,-0.097,-1.015
2026/06/04 08:44:50.110,0.091,-0.095,-1.009
2026/06/04 08:44:50.131,0.091,-0.093,-1.012
2026/06/04 08:44:50.151,0.093,-0.099,-1.016
2026/06/04 08:44:50.171,0.088,-0.089,-1.0
2026/06/04 08:44:50.192,0.091,-0.09,-1.02
2026/06/04 08:44:50.212,0.088,-0.094,-1.001
2026/06/04 08:44:50.233,0.09,-0.092,-1.012
2026/06/04 08:44:50.253,0.089,-0.095,-1.012
2026/06/04 08:44:50.274,0.089,-0.095,-1.01
2026/06/04 08:44:50.294,0.088,-0.095,-1.02
2026/06/04 08:44:50.314,0.089,-0.096,-1.006
2026/06/04 08:44:50.335,0.093,-0.099,-1.019
2026/06/04 08:44:50.355,0.09,-0.095,-1.012
2026/06/04 08:44:50.376,0.092,-0.097,-1.012
2026/06/04 08:44:50.396,0.088,-0.091,-1.009
2026/06/04 08:44:50.416,0.089,-0.092,-0.999
2026/06/04 08:44:50.437,0.088,-0.095,-1.017
2026/06/04 08:44:50.457,0.09,-0.093,-1.004
2026/06/04 08:44:50.478,0.086,-0.1,-1.005
2026/06/04 08:44:50.498,0.091,-0.1,-1.002
2026/06/04 08:44:50.519,0.092,-0.099,-1.011
2026/06/04 08:44:50.539,0.086,-0.094,-1.014
2026/06/04 08:44:50.559,0.091,-0.1,-1.005
2026/06/04 08:44:50.580,0.095,-0.096,-1.014
2026/06/04 08:44:50.600,0.089,-0.088,-1.013
2026/06/04 08:44:50.621,0.091,-0.102,-1.008
2026/06/04 08:44:50.641,0.088,-0.103,-1.016
2026/06/04 08:44:50.661,0.091,-0.097,-1.013
2026/06/04 08:44:50.682,0.091,-0.102,-1.012
2026/06/04 08:44:50.702,0.084,-0.105,-1.017
2026/06/04 08:44:50.723,0.088,-0.097,-1.005
2026/06/04 08:44:50.743,0.086,-0.097,-1.013
2026/06/04 08:44:50.763,0.088,-0.099,-1.011
2026/06/04 08:44:50.784,0.089,-0.094,-1.006
2026/06/04 08:44:50.804,0.09,-0.093,-1.012
2026/06/04 08:44:50.825,0.093,-0.096,-1.007
2026/06/04 08:44:50.845,0.089,-0.096,-1.009
2026/06/04 08:44:50.866,0.091,-0.099,-1.005
2026/06/04 08:44:50.886,0.09,-0.094,-1.014
2026/06/04 08:44:50.906,0.093,-0.095,-1.008
2026/06/04 08:44:50.927,0.088,-0.094,-1.012
2026/06/04 08:44:50.947,0.087,-0.092,-1.014
2026/06/04 08:44:50.968,0.091,-0.095,-1.006
2026/06/04 08:44:50.988,0.093,-0.096,-1.014
2026/06/04 08:44:51.008,0.09,-0.099,-1.007
2026/06/04 08:44:51.029,0.083,-0.1,-1.017
2026/06/04 08:44:51.049,0.091,-0.106,-1.008
2026/06/04 08:44:51.070,0.09,-0.105,-1.008
2026/06/04 08:44:51.090,0.086,-0.097,-1.018
2026/06/04 08:44:51.111,0.083,-0.094,-1.004
2026/06/04 08:44:51.131,0.09,-0.09,-1.009
2026/06/04 08:44:51.151,0.084,-0.092,-1.0
2026/06/04 08:44:51.172,0.089,-0.092,-1.007
2026/06/04 08:44:51.192,0.089,-0.095,-1.01
2026/06/04 08:44:51.213,0.089,-0.097,-1.004
2026/06/04 08:44:51.233,0.089,-0.094,-1.018
2026/06/04 08:44:51.253,0.09,-0.094,-1.001
2026/06/04 08:44:51.274,0.087,-0.091,-1.015
2026/06/04 08:44:51.294,0.089,-0.093,-1.007
2026/06/04 08:44:51.315,0.09,-0.095,-1.011
2026/06/04 08:44:51.335,0.093,-0.097,-1.012
2026/06/04 08:44:51.356,0.09,-0.093,-1.005
2026/06/04 08:44:51.376,0.085,-0.097,-1.01
2026/06/04 08:44:51.396,0.093,-0.095,-1.007
2026/06/04 08:44:51.417,0.089,-0.098,-1.008
2026/06/04 08:44:51.437,0.092,-0.099,-1.008
2026/06/04 08:44:51.458,0.086,-0.094,-1.005
2026/06/04 08:44:51.478,0.09,-0.092,-1.008
2026/06/04 08:44:51.498,0.086,-0.084,-1.008
2026/06/04 08:44:51.519,0.088,-0.084,-1.007
2026/06/04 08:44:51.539,0.085,-0.09,-1.003
2026/06/04 08:44:51.560,0.089,-0.087,-1.007
2026/06/04 08:44:51.580,0.091,-0.092,-1.009
2026/06/04 08:44:51.601,0.089,-0.096,-1.009
2026/06/04 08:44:51.621,0.086,-0.094,-1.011
2026/06/04 08:44:51.641,0.093,-0.098,-1.005
2026/06/04 08:44:51.662,0.09,-0.097,-1.017
2026/06/04 08:44:51.682,0.09,-0.097,-1.011
2026/06/04 08:44:51.703,0.094,-0.095,-1.014
2026/06/04 08:44:51.723,0.091,-0.094,-1.011
2026/06/04 08:44:51.743,0.092,-0.096,-1.011
2026/06/04 08:44:51.764,0.09,-0.097,-1.01
2026/06/04 08:44:51.784,0.089,-0.094,-1.009
2026/06/04 08:44:51.805,0.089,-0.097,-1.007
2026/06/04 08:44:51.825,0.09,-0.099,-1.006
2026/06/04 08:44:51.845,0.089,-0.098,-1.009
2026/06/04 08:44:51.866,0.089,-0.094,-1.015
2026/06/04 08:44:51.886,0.088,-0.094,-1.011
2026/06/04 08:44:51.907,0.09,-0.097,-1.0
2026/06/04 08:44:51.927,0.091,-0.1,-1.009
2026/06/04 08:44:51.948,0.091,-0.101,-1.011
2026/06/04 08:44:51.968,0.089,-0.101,-1.01
2026/06/04 08:44:51.988,0.09,-0.102,-1.012
2026/06/04 08:44:52.009,0.092,-0.098,-1.008
2026/06/04 08:44:52.029,0.091,-0.094,-1.014
2026/06/04 08:44:52.050,0.085,-0.096,-1.003
2026/06/04 08:44:52.070,0.09,-0.095,-1.008
2026/06/04 08:44:52.090,0.091,-0.097,-1.007
2026/06/04 08:44:52.111,0.091,-0.096,-1.013
2026/06/04 08:44:52.131,0.093,-0.096,-1.012
2026/06/04 08:44:52.152,0.092,-0.096,-1.007
2026/06/04 08:44:52.172,0.089,-0.096,-1.011
2026/06/04 08:44:52.193,0.092,-0.09,-1.013
2026/06/04 08:44:52.213,0.088,-0.101,-1.002
2026/06/04 08:44:52.233,0.088,-0.096,-1.014
2026/06/04 08:44:52.254,0.092,-0.093,-1.009
2026/06/04 08:44:52.274,0.09,-0.094,-1.01
2026/06/04 08:44:52.295,0.09,-0.095,-1.009
2026/06/04 08:44:52.315,0.09,-0.096,-1.008
2026/06/04 08:44:52.335,0.089,-0.101,-1.016
2026/06/04 08:44:52.356,0.089,-0.104,-1.005
2026/06/04 08:44:52.376,0.09,-0.094,-1.01
2026/06/04 08:44:52.397,0.086,-0.094,-1.01
2026/06/04 08:44:52.417,0.088,-0.093,-1.011
2026/06/04 08:44:52.438,0.088,-0.089,-1.005
2026/06/04 08:44:52.458,0.09,-0.091,-1.006
2026/06/04 08:44:52.478,0.083,-0.096,-1.014
2026/06/04 08:44:52.499,0.091,-0.099,-1.006
2026/06/04 08:44:52.519,0.09,-0.094,-1.008
2026/06/04 08:44:52.540,0.088,-0.094,-1.008
2026/06/04 08:44:52.560,0.09,-0.097,-1.011
2026/06/04 08:44:52.580,0.087,-0.094,-1.003
2026/06/04 08:44:52.601,0.089,-0.096,-1.012
2026/06/04 08:44:52.621,0.09,-0.096,-1.006
2026/06/04 08:44:52.642,0.091,-0.093,-1.01
2026/06/04 08:44:52.662,0.09,-0.096,-1.007
2026/06/04 08:44:52.682,0.087,-0.095,-1.003
2026/06/04 08:44:52.703,0.09,-0.096,-1.011
2026/06/04 08:44:52.723,0.088,-0.095,-1.004
2026/06/04 08:44:52.744,0.086,-0.089,-1.01
2026/06/04 08:44:52.764,0.09,-0.089,-1.01
2026/06/04 08:44:52.785,0.085,-0.09,-1.004
2026/06/04 08:44:52.805,0.096,-0.09,-1.009
2026/06/04 08:44:52.825,0.091,-0.092,-1.013
2026/06/04 08:44:52.846,0.088,-0.093,-1.022
2026/06/04 08:44:52.866,0.091,-0.093,-1.007
2026/06/04 08:44:52.887,0.089,-0.095,-1.006
2026/06/04 08:44:52.907,0.095,-0.094,-1.01
2026/06/04 08:44:52.927,0.091,-0.095,-1.013
2026/06/04 08:44:52.948,0.088,-0.095,-1.013
2026/06/04 08:44:52.968,0.094,-0.094,-1.004
2026/06/04 08:44:52.989,0.09,-0.096,-1.018
2026/06/04 08:44:53.009,0.088,-0.098,-1.012
2026/06/04 08:44:53.030,0.088,-0.095,-1.013
2026/06/04 08:44:53.050,0.092,-0.096,-1.007
2026/06/04 08:44:53.070,0.091,-0.093,-1.007
2026/06/04 08:44:53.091,0.089,-0.094,-1.01
2026/06/04 08:44:53.111,0.09,-0.092,-1.015
2026/06/04 08:44:53.132,0.089,-0.093,-1.008
2026/06/04 08:44:53.152,0.092,-0.095,-1.01
2026/06/04 08:44:53.172,0.09,-0.092,-1.01
2026/06/04 08:44:53.193,0.087,-0.092,-1.007
2026/06/04 08:44:53.213,0.09,-0.098,-1.01
2026/06/04 08:44:53.234,0.09,-0.097,-1.01
2026/06/04 08:44:53.254,0.097,-0.102,-1.011
2026/06/04 08:44:53.275,0.092,-0.1,-1.013
2026/06/04 08:44:53.295,0.091,-0.103,-1.004
2026/06/04 08:44:53.315,0.093,-0.099,-1.011
2026/06/04 08:44:53.336,0.091,-0.097,-1.007
2026/06/04 08:44:53.356,0.097,-0.097,-1.009
2026/06/04 08:44:53.377,0.089,-0.093,-1.007
2026/06/04 08:44:53.397,0.088,-0.101,-1.015
2026/06/04 08:44:53.417,0.091,-0.097,-1.014
2026/06/04 08:44:53.438,0.086,-0.094,-1.017
2026/06/04 08:44:53.458,0.089,-0.096,-1.009
2026/06/04 08:44:53.479,0.089,-0.098,-1.016
2026/06/04 08:44:53.499,0.09,-0.091,-1.011
2026/06/04 08:44:53.520,0.089,-0.089,-1.005
2026/06/04 08:44:53.540,0.091,-0.091,-1.011
2026/06/04 08:44:53.560,0.09,-0.098,-1.005
2026/06/04 08:44:53.581,0.091,-0.097,-1.009
2026/06/04 08:44:53.601,0.091,-0.091,-1.012
2026/06/04 08:44:53.622,0.09,-0.088,-1.016
2026/06/04 08:44:53.642,0.091,-0.085,-1.009
2026/06/04 08:44:53.662,0.086,-0.09,-1.007
2026/06/04 08:44:53.683,0.09,-0.089,-1.008
2026/06/04 08:44:53.703,0.093,-0.093,-1.011
2026/06/04 08:44:53.724,0.095,-0.095,-1.007
2026/06/04 08:44:53.744,0.091,-0.093,-1.01
2026/06/04 08:44:53.764,0.092,-0.089,-1.011
2026/06/04 08:44:53.785,0.089,-0.093,-1.012
2026/06/04 08:44:53.805,0.089,-0.094,-1.009
2026/06/04 08:44:53.826,0.092,-0.102,-1.015
2026/06/04 08:44:53.846,0.091,-0.096,-1.012
2026/06/04 08:44:53.867,0.09,-0.103,-1.013
2026/06/04 08:44:53.887,0.089,-0.099,-1.012
2026/06/04 08:44:53.907,0.093,-0.094,-1.011
2026/06/04 08:44:53.928,0.09,-0.094,-1.011
2026/06/04 08:44:53.948,0.089,-0.093,-1.006
2026/06/04 08:44:53.969,0.089,-0.09,-1.006
2026/06/04 08:44:53.989,0.091,-0.096,-1.007
2026/06/04 08:44:54.009,0.088,-0.093,-1.011
2026/06/04 08:44:54.030,0.092,-0.093,-1.006
2026/06/04 08:44:54.050,0.088,-0.089,-1.004
2026/06/04 08:44:54.071,0.094,-0.087,-1.011
2026/06/04 08:44:54.091,0.087,-0.085,-1.012
2026/06/04 08:44:54.112,0.091,-0.087,-1.011
2026/06/04 08:44:54.132,0.093,-0.092,-1.009
2026/06/04 08:44:54.152,0.088,-0.093,-1.011
2026/06/04 08:44:54.173,0.094,-0.098,-1.009
2026/06/04 08:44:54.193,0.09,-0.096,-1.014
2026/06/04 08:44:54.214,0.094,-0.096,-1.012
2026/06/04 08:44:54.234,0.09,-0.096,-1.007
2026/06/04 08:44:54.254,0.09,-0.093,-1.015
2026/06/04 08:44:54.275,0.091,-0.094,-1.01
2026/06/04 08:44:54.295,0.091,-0.094,-1.004
2026/06/04 08:44:54.316,0.095,-0.097,-1.009
2026/06/04 08:44:54.336,0.086,-0.098,-1.011
2026/06/04 08:44:54.357,0.093,-0.1,-1.017
2026/06/04 08:44:54.377,0.091,-0.099,-1.005
2026/06/04 08:44:54.397,0.089,-0.093,-1.009
2026/06/04 08:44:54.418,0.086,-0.096,-1.01
2026/06/04 08:44:54.438,0.083,-0.093,-1.009
2026/06/04 08:44:54.459,0.093,-0.094,-1.011
2026/06/04 08:44:54.479,0.089,-0.09,-1.008
2026/06/04 08:44:54.499,0.091,-0.087,-1.009
2026/06/04 08:44:54.520,0.088,-0.088,-1.005
2026/06/04 08:44:54.540,0.092,-0.089,-1.01
2026/06/04 08:44:54.561,0.088,-0.09,-1.009
2026/06/04 08:44:54.581,0.09,-0.093,-1.011
2026/06/04 08:44:54.601,0.09,-0.094,-1.012
2026/06/04 08:44:54.622,0.09,-0.098,-1.008
2026/06/04 08:44:54.642,0.091,-0.099,-1.007
2026/06/04 08:44:54.663,0.089,-0.101,-1.017
2026/06/04 08:44:54.683,0.089,-0.089,-1.009
2026/06/04 08:44:54.704,0.087,-0.095,-1.009
2026/06/04 08:44:54.724,0.09,-0.098,-1.012
2026/06/04 08:44:54.744,0.092,-0.096,-1.013
2026/06/04 08:44:54.765,0.09,-0.096,-1.009
2026/06/04 08:44:54.785,0.089,-0.101,-0.996
2026/06/04 08:44:54.806,0.09,-0.095,-1.01
2026/06/04 08:44:54.826,0.091,-0.092,-1.009
2026/06/04 08:44:54.846,0.089,-0.092,-1.011
2026/06/04 08:44:54.867,0.094,-0.092,-1.009
2026/06/04 08:44:54.887,0.09,-0.098,-1.013
2026/06/04 08:44:54.908,0.092,-0.101,-1.012
2026/06/04 08:44:54.928,0.089,-0.104,-1.008
2026/06/04 08:44:54.949,0.091,-0.101,-1.012
2026/06/04 08:44:54.969,0.091,-0.1,-1.011
2026/06/04 08:44:54.989,0.089,-0.101,-1.009
2026/06/04 08:44:55.010,0.086,-0.096,-1.005
2026/06/04 08:44:55.030,0.092,-0.093,-1.01
2026/06/04 08:44:55.051,0.088,-0.097,-1.013
2026/06/04 08:44:55.071,0.089,-0.097,-1.011
2026/06/04 08:44:55.091,0.089,-0.095,-1.006
2026/06/04 08:44:55.112,0.088,-0.094,-1.01
2026/06/04 08:44:55.132,0.09,-0.094,-1.01
2026/06/04 08:44:55.153,0.091,-0.1,-1.008
2026/06/04 08:44:55.173,0.088,-0.095,-1.008
2026/06/04 08:44:55.193,0.088,-0.099,-1.008
2026/06/04 08:44:55.214,0.092,-0.094,-1.008
2026/06/04 08:44:55.234,0.09,-0.096,-1.009
2026/06/04 08:44:55.255,0.093,-0.094,-1.009
2026/06/04 08:44:55.275,0.086,-0.099,-1.005
2026/06/04 08:44:55.296,0.089,-0.097,-1.011
2026/06/04 08:44:55.316,0.087,-0.098,-1.012
2026/06/04 08:44:55.336,0.086,-0.093,-1.006
2026/06/04 08:44:55.357,0.09,-0.09,-1.009
2026/06/04 08:44:55.377,0.09,-0.089,-1.006
2026/06/04 08:44:55.398,0.084,-0.091,-1.008
2026/06/04 08:44:55.418,0.091,-0.092,-1.011
2026/06/04 08:44:55.438,0.093,-0.091,-1.01
2026/06/04 08:44:55.459,0.092,-0.097,-1.008
2026/06/04 08:44:55.479,0.092,-0.091,-1.009
2026/06/04 08:44:55.500,0.089,-0.097,-1.009
2026/06/04 08:44:55.520,0.092,-0.098,-1.005
2026/06/04 08:44:55.541,0.09,-0.095,-1.013
2026/06/04 08:44:55.561,0.09,-0.097,-1.012
2026/06/04 08:44:55.581,0.094,-0.093,-1.012
2026/06/04 08:44:55.602,0.09,-0.094,-1.012
2026/06/04 08:44:55.622,0.089,-0.1,-1.011
2026/06/04 08:44:55.643,0.089,-0.094,-1.008
2026/06/04 08:44:55.663,0.089,-0.091,-1.01
2026/06/04 08:44:55.683,0.09,-0.096,-1.015
2026/06/04 08:44:55.704,0.09,-0.096,-1.009
2026/06/04 08:44:55.724,0.089,-0.094,-1.006
2026/06/04 08:44:55.745,0.087,-0.091,-1.01
2026/06/04 08:44:55.765,0.093,-0.092,-1.008
2026/06/04 08:44:55.786,0.088,-0.094,-1.008
2026/06/04 08:44:55.806,0.093,-0.101,-1.007
2026/06/04 08:44:55.826,0.092,-0.101,-1.01
2026/06/04 08:44:55.847,0.09,-0.098,-1.012
2026/06/04 08:44:55.867,0.09,-0.1,-1.009
2026/06/04 08:44:55.888,0.091,-0.096,-1.009
2026/06/04 08:44:55.908,0.091,-0.096,-1.008
2026/06/04 08:44:55.928,0.088,-0.093,-1.007
2026/06/04 08:44:55.949,0.089,-0.094,-1.009
2026/06/04 08:44:55.969,0.087,-0.093,-1.007
2026/06/04 08:44:55.990,0.09,-0.097,-1.006
2026/06/04 08:44:56.010,0.089,-0.098,-1.009
2026/06/04 08:44:56.030,0.095,-0.093,-1.011
2026/06/04 08:44:56.051,0.088,-0.096,-1.012
2026/06/04 08:44:56.071,0.091,-0.095,-1.009
2026/06/04 08:44:56.092,0.09,-0.096,-1.006
2026/06/04 08:44:56.112,0.086,-0.093,-1.011
2026/06/04 08:44:56.133,0.092,-0.096,-1.015
2026/06/04 08:44:56.153,0.091,-0.1,-1.011
2026/06/04 08:44:56.173,0.089,-0.096,-1.01
2026/06/04 08:44:56.194,0.09,-0.097,-1.012
2026/06/04 08:44:56.214,0.088,-0.105,-1.012
2026/06/04 08:44:56.235,0.087,-0.101,-1.007
2026/06/04 08:44:56.255,0.091,-0.095,-1.008
2026/06/04 08:44:56.275,0.085,-0.093,-1.005
2026/06/04 08:44:56.296,0.09,-0.099,-1.011
2026/06/04 08:44:56.316,0.094,-0.094,-1.005
2026/06/04 08:44:56.337,0.087,-0.098,-1.013
2026/06/04 08:44:56.357,0.091,-0.091,-1.027
2026/06/04 08:44:56.378,0.091,-0.098,-1.018
2026/06/04 08:44:56.398,0.088,-0.09,-1.012
2026/06/04 08:44:56.418,0.092,-0.086,-1.017
2026/06/04 08:44:56.439,0.093,-0.103,-0.999
2026/06/04 08:44:56.459,0.089,-0.094,-1.021
2026/06/04 08:44:56.480,0.091,-0.093,-1.008
2026/06/04 08:44:56.500,0.087,-0.1,-1.014
2026/06/04 08:44:56.520,0.088,-0.093,-1.008
2026/06/04 08:44:56.541,0.092,-0.094,-1.013
2026/06/04 08:44:56.561,0.09,-0.095,-1.015
2026/06/04 08:44:56.582,0.093,-0.097,-1.01
2026/06/04 08:44:56.602,0.09,-0.089,-1.012
2026/06/04 08:44:56.623,0.088,-0.092,-1.01
2026/06/04 08:44:56.643,0.087,-0.088,-1.01
2026/06/04 08:44:56.663,0.089,-0.086,-1.007
2026/06/04 08:44:56.684,0.088,-0.089,-1.007
2026/06/04 08:44:56.704,0.089,-0.089,-1.009
2026/06/04 08:44:56.725,0.09,-0.092,-1.011
2026/06/04 08:44:56.745,0.094,-0.091,-1.018
2026/06/04 08:44:56.765,0.09,-0.094,-1.011
2026/06/04 08:44:56.786,0.089,-0.097,-1.008
2026/06/04 08:44:56.806,0.091,-0.098,-1.012
2026/06/04 08:44:56.827,0.091,-0.095,-1.01
2026/06/04 08:44:56.847,0.093,-0.092,-1.009
2026/06/04 08:44:56.867,0.09,-0.096,-1.007
2026/06/04 08:44:56.888,0.088,-0.098,-1.009
2026/06/04 08:44:56.908,0.088,-0.096,-1.008
2026/06/04 08:44:56.929,0.084,-0.096,-1.007
2026/06/04 08:44:56.949,0.089,-0.095,-1.009
2026/06/04 08:44:56.970,0.093,-0.098,-1.006
2026/06/04 08:44:56.990,0.092,-0.095,-1.007
2026/06/04 08:44:57.010,0.089,-0.092,-1.007
2026/06/04 08:44:57.031,0.09,-0.095,-1.008
2026/06/04 08:44:57.051,0.092,-0.09,-1.011
2026/06/04 08:44:57.072,0.09,-0.093,-1.007
2026/06/04 08:44:57.092,0.088,-0.096,-1.007
2026/06/04 08:44:57.112,0.093,-0.099,-1.01
2026/06/04 08:44:57.133,0.092,-0.094,-1.012
2026/06/04 08:44:57.153,0.093,-0.098,-1.008
2026/06/04 08:44:57.174,0.089,-0.097,-1.013
2026/06/04 08:44:57.194,0.09,-0.098,-1.008
2026/06/04 08:44:57.215,0.093,-0.095,-1.01
2026/06/04 08:44:57.235,0.09,-0.097,-1.006
2026/06/04 08:44:57.255,0.09,-0.097,-1.008
2026/06/04 08:44:57.276,0.092,-0.094,-1.007
2026/06/04 08:44:57.296,0.09,-0.098,-1.004
2026/06/04 08:44:57.317,0.089,-0.097,-1.006
2026/06/04 08:44:57.337,0.088,-0.099,-1.013
2026/06/04 08:44:57.357,0.094,-0.095,-1.01
2026/06/04 08:44:57.378,0.085,-0.098,-1.011
2026/06/04 08:44:57.398,0.084,-0.096,-1.007
2026/06/04 08:44:57.419,0.09,-0.096,-1.013
2026/06/04 08:44:57.439,0.087,-0.098,-1.009
2026/06/04 08:44:57.460,0.088,-0.101,-1.008
2026/06/04 08:44:57.480,0.088,-0.106,-1.005
2026/06/04 08:44:57.500,0.086,-0.101,-1.012
2026/06/04 08:44:57.521,0.086,-0.098,-1.01
2026/06/04 08:44:57.541,0.089,-0.099,-1.01
2026/06/04 08:44:57.562,0.087,-0.093,-1.01
2026/06/04 08:44:57.582,0.092,-0.091,-1.007
2026/06/04 08:44:57.602,0.09,-0.095,-1.003
2026/06/04 08:44:57.623,0.089,-0.095,-1.005
2026/06/04 08:44:57.643,0.09,-0.094,-1.01
2026/06/04 08:44:57.664,0.088,-0.09,-1.007
2026/06/04 08:44:57.684,0.089,-0.093,-1.011
2026/06/04 08:44:57.704,0.087,-0.095,-1.008
2026/06/04 08:44:57.725,0.094,-0.097,-1.008
2026/06/04 08:44:57.745,0.091,-0.095,-1.008
2026/06/04 08:44:57.766,0.09,-0.097,-1.012
2026/06/04 08:44:57.786,0.089,-0.092,-1.006
2026/06/04 08:44:57.807,0.091,-0.096,-1.015
2026/06/04 08:44:57.827,0.093,-0.096,-1.011
2026/06/04 08:44:57.847,0.093,-0.095,-1.01
2026/06/04 08:44:57.868,0.086,-0.101,-1.007
2026/06/04 08:44:57.888,0.088,-0.1,-1.006
2026/06/04 08:44:57.909,0.091,-0.097,-1.009
2026/06/04 08:44:57.929,0.091,-0.093,-1.008
2026/06/04 08:44:57.949,0.086,-0.092,-1.01
2026/06/04 08:44:57.970,0.087,-0.086,-1.008
2026/06/04 08:44:57.990,0.088,-0.09,-1.007
2026/06/04 08:44:58.011,0.087,-0.088,-1.003
2026/06/04 08:44:58.031,0.09,-0.093,-1.007
2026/06/04 08:44:58.052,0.092,-0.095,-1.007
2026/06/04 08:44:58.072,0.088,-0.095,-1.01
2026/06/04 08:44:58.092,0.09,-0.092,-1.015
2026/06/04 08:44:58.113,0.09,-0.098,-1.008
2026/06/04 08:44:58.133,0.088,-0.095,-1.011
2026/06/04 08:44:58.154,0.093,-0.095,-1.01
2026/06/04 08:44:58.174,0.092,-0.098,-1.011
2026/06/04 08:44:58.194,0.089,-0.098,-1.01
2026/06/04 08:44:58.215,0.091,-0.097,-1.01
2026/06/04 08:44:58.235,0.09,-0.098,-1.009
2026/06/04 08:44:58.256,0.09,-0.096,-1.008
2026/06/04 08:44:58.276,0.09,-0.098,-1.009
2026/06/04 08:44:58.297,0.089,-0.096,-1.008
2026/06/04 08:44:58.317,0.086,-0.086,-1.008
2026/06/04 08:44:58.337,0.088,-0.087,-1.012
2026/06/04 08:44:58.358,0.092,-0.094,-1.008
2026/06/04 08:44:58.378,0.091,-0.099,-1.01
2026/06/04 08:44:58.399,0.093,-0.102,-1.013
2026/06/04 08:44:58.419,0.094,-0.105,-1.014
2026/06/04 08:44:58.439,0.092,-0.101,-1.014
2026/06/04 08:44:58.460,0.089,-0.097,-1.01
2026/06/04 08:44:58.480,0.087,-0.095,-1.012
2026/06/04 08:44:58.501,0.09,-0.098,-1.009
2026/06/04 08:44:58.521,0.09,-0.094,-1.009
2026/06/04 08:44:58.541,0.09,-0.095,-1.013
2026/06/04 08:44:58.562,0.087,-0.096,-1.01
2026/06/04 08:44:58.582,0.093,-0.094,-1.012
2026/06/04 08:44:58.603,0.087,-0.094,-1.003
2026/06/04 08:44:58.623,0.09,-0.098,-1.011
2026/06/04 08:44:58.644,0.093,-0.098,-1.007
2026/06/04 08:44:58.664,0.091,-0.093,-1.01
2026/06/04 08:44:58.684,0.09,-0.093,-1.012
2026/06/04 08:44:58.705,0.093,-0.095,-1.01
2026/06/04 08:44:58.725,0.096,-0.097,-1.013
2026/06/04 08:44:58.746,0.085,-0.099,-1.006
2026/06/04 08:44:58.766,0.091,-0.101,-1.01
2026/06/04 08:44:58.786,0.091,-0.099,-1.01
2026/06/04 08:44:58.807,0.087,-0.1,-1.009
2026/06/04 08:44:58.827,0.09,-0.092,-1.006
2026/06/04 08:44:58.848,0.092,-0.095,-1.007
2026/06/04 08:44:58.868,0.088,-0.089,-1.003
2026/06/04 08:44:58.889,0.081,-0.094,-1.005
2026/06/04 08:44:58.909,0.088,-0.098,-1.012
2026/06/04 08:44:58.929,0.09,-0.091,-1.004
2026/06/04 08:44:58.950,0.082,-0.087,-1.004
2026/06/04 08:44:58.970,0.089,-0.09,-1.009
2026/06/04 08:44:58.991,0.089,-0.1,-1.008
2026/06/04 08:44:59.011,0.089,-0.098,-1.005
2026/06/04 08:44:59.031,0.09,-0.089,-1.013
2026/06/04 08:44:59.052,0.096,-0.101,-1.013
2026/06/04 08:44:59.072,0.087,-0.095,-1.016
2026/06/04 08:44:59.093,0.085,-0.096,-1.003
2026/06/04 08:44:59.113,0.089,-0.09,-1.007
2026/06/04 08:44:59.134,0.088,-0.092,-1.009
2026/06/04 08:44:59.154,0.086,-0.101,-1.012
2026/06/04 08:44:59.174,0.087,-0.094,-1.007
2026/06/04 08:44:59.195,0.091,-0.094,-1.008
2026/06/04 08:44:59.215,0.093,-0.087,-1.005
2026/06/04 08:44:59.236,0.091,-0.092,-1.012
2026/06/04 08:44:59.256,0.091,-0.089,-0.998
2026/06/04 08:44:59.276,0.09,-0.086,-1.009
2026/06/04 08:44:59.297,0.084,-0.092,-1.007
2026/06/04 08:44:59.317,0.091,-0.091,-1.01
2026/06/04 08:44:59.338,0.092,-0.096,-1.011
2026/06/04 08:44:59.358,0.092,-0.096,-1.013
2026/06/04 08:44:59.378,0.089,-0.091,-1.006
2026/06/04 08:44:59.399,0.089,-0.093,-1.01
2026/06/04 08:44:59.419,0.093,-0.096,-1.01
2026/06/04 08:44:59.440,0.09,-0.099,-1.007
2026/06/04 08:44:59.460,0.092,-0.101,-1.006
2026/06/04 08:44:59.481,0.087,-0.093,-1.015
2026/06/04 08:44:59.501,0.093,-0.096,-1.016
2026/06/04 08:44:59.521,0.087,-0.1,-1.007
2026/06/04 08:44:59.542,0.089,-0.096,-1.011
2026/06/04 08:44:59.562,0.09,-0.091,-1.016
2026/06/04 08:44:59.583,0.085,-0.093,-1.012
2026/06/04 08:44:59.603,0.092,-0.096,-1.012
2026/06/04 08:44:59.623,0.088,-0.099,-1.009
2026/06/04 08:44:59.644,0.091,-0.104,-1.013
2026/06/04 08:44:59.664,0.092,-0.101,-1.012
2026/06/04 08:44:59.685,0.093,-0.104,-1.012
2026/06/04 08:44:59.705,0.09,-0.102,-1.004
2026/06/04 08:44:59.726,0.089,-0.102,-1.018
2026/06/04 08:44:59.746,0.088,-0.096,-1.013
2026/06/04 08:44:59.766,0.087,-0.09,-1.007
2026/06/04 08:44:59.787,0.089,-0.094,-1.009
2026/06/04 08:44:59.807,0.086,-0.094,-1.013
2026/06/04 08:44:59.828,0.09,-0.101,-1.01
2026/06/04 08:44:59.848,0.088,-0.101,-1.007
2026/06/04 08:44:59.868,0.091,-0.099,-1.01
2026/06/04 08:44:59.889,0.089,-0.094,-1.01
2026/06/04 08:44:59.909,0.088,-0.091,-1.011
2026/06/04 08:44:59.930,0.086,-0.091,-1.005
2026/06/04 08:44:59.950,0.084,-0.09,-1.006
2026/06/04 08:44:59.970,0.091,-0.089,-1.005
2026/06/04 08:44:59.991,0.086,-0.098,-1.009
2026/06/04 08:45:00.011,0.089,-0.097,-1.008
2026/06/04 08:45:00.032,0.091,-0.098,-1.013
2026/06/04 08:45:00.052,0.09,-0.104,-1.014
2026/06/04 08:45:00.073,0.093,-0.105,-1.011
2026/06/04 08:45:00.093,0.086,-0.101,-1.014
2026/06/04 08:45:00.113,0.086,-0.097,-1.012
2026/06/04 08:45:00.134,0.091,-0.1,-1.011
2026/06/04 08:45:00.154,0.087,-0.098,-1.012
2026/06/04 08:45:00.175,0.093,-0.095,-1.007
2026/06/04 08:45:00.195,0.09,-0.091,-1.007
2026/06/04 08:45:00.215,0.085,-0.102,-1.004
2026/06/04 08:45:00.236,0.091,-0.095,-1.012
2026/06/04 08:45:00.256,0.09,-0.094,-1.001
2026/06/04 08:45:00.277,0.087,-0.09,-1.007
2026/06/04 08:45:00.297,0.09,-0.09,-1.008
2026/06/04 08:45:00.318,0.088,-0.087,-1.01
2026/06/04 08:45:00.338,0.093,-0.095,-1.007
2026/06/04 08:45:00.358,0.09,-0.101,-1.01
2026/06/04 08:45:00.379,0.09,-0.096,-1.007
2026/06/04 08:45:00.399,0.092,-0.101,-1.017
2026/06/04 08:45:00.420,0.092,-0.095,-1.012
2026/06/04 08:45:00.440,0.088,-0.099,-1.007
2026/06/04 08:45:00.460,0.088,-0.101,-1.007
2026/06/04 08:45:00.481,0.088,-0.099,-1.005
2026/06/04 08:45:00.501,0.089,-0.092,-1.01
2026/06/04 08:45:00.522,0.088,-0.092,-1.007
2026/06/04 08:45:00.542,0.084,-0.09,-1.004
2026/06/04 08:45:00.562,0.089,-0.091,-1.006
2026/06/04 08:45:00.583,0.089,-0.086,-1.007
2026/06/04 08:45:00.603,0.09,-0.092,-1.006
2026/06/04 08:45:00.624,0.09,-0.091,-1.009
2026/06/04 08:45:00.644,0.09,-0.094,-1.011
2026/06/04 08:45:00.665,0.09,-0.091,-1.012
2026/06/04 08:45:00.685,0.092,-0.098,-1.005
2026/06/04 08:45:00.705,0.093,-0.099,-1.01
2026/06/04 08:45:00.726,0.09,-0.1,-1.006
2026/06/04 08:45:00.746,0.091,-0.098,-1.01
2026/06/04 08:45:00.767,0.093,-0.099,-1.008
2026/06/04 08:45:00.787,0.087,-0.103,-1.005
2026/06/04 08:45:00.807,0.093,-0.099,-1.017
2026/06/04 08:45:00.828,0.093,-0.094,-1.012
2026/06/04 08:45:00.848,0.089,-0.096,-1.01
2026/06/04 08:45:00.869,0.09,-0.093,-1.013
2026/06/04 08:45:00.889,0.094,-0.091,-1.014
2026/06/04 08:45:00.910,0.089,-0.087,-1.011
2026/06/04 08:45:00.930,0.091,-0.093,-1.007
2026/06/04 08:45:00.950,0.091,-0.099,-1.009
2026/06/04 08:45:00.971,0.095,-0.098,-1.008
2026/06/04 08:45:00.991,0.09,-0.099,-1.009
2026/06/04 08:45:01.012,0.09,-0.094,-1.01
2026/06/04 08:45:01.032,0.09,-0.097,-1.013
2026/06/04 08:45:01.052,0.092,-0.096,-1.011
2026/06/04 08:45:01.073,0.087,-0.097,-1.013
2026/06/04 08:45:01.093,0.091,-0.093,-1.006
2026/06/04 08:45:01.114,0.091,-0.098,-1.013
2026/06/04 08:45:01.134,0.09,-0.099,-1.009
2026/06/04 08:45:01.154,0.092,-0.096,-1.015
2026/06/04 08:45:01.175,0.095,-0.09,-1.011
2026/06/04 08:45:01.195,0.091,-0.092,-1.007
2026/06/04 08:45:01.216,0.085,-0.095,-1.008
2026/06/04 08:45:01.236,0.089,-0.091,-1.007
2026/06/04 08:45:01.257,0.089,-0.094,-1.013
2026/06/04 08:45:01.277,0.088,-0.096,-1.011
2026/06/04 08:45:01.297,0.091,-0.096,-1.016
2026/06/04 08:45:01.318,0.092,-0.094,-1.009
2026/06/04 08:45:01.338,0.09,-0.087,-1.014
2026/06/04 08:45:01.359,0.09,-0.091,-1.007
2026/06/04 08:45:01.379,0.086,-0.09,-1.006
2026/06/04 08:45:01.399,0.091,-0.094,-1.011
2026/06/04 08:45:01.420,0.091,-0.092,-1.014
2026/06/04 08:45:01.440,0.092,-0.095,-1.017
2026/06/04 08:45:01.461,0.093,-0.102,-1.013
2026/06/04 08:45:01.481,0.09,-0.095,-1.01
2026/06/04 08:45:01.502,0.089,-0.095,-1.009
2026/06/04 08:45:01.522,0.089,-0.093,-1.009
2026/06/04 08:45:01.542,0.093,-0.096,-1.012
2026/06/04 08:45:01.563,0.089,-0.091,-1.006
2026/06/04 08:45:01.583,0.09,-0.086,-1.012
2026/06/04 08:45:01.604,0.091,-0.09,-1.011
2026/06/04 08:45:01.624,0.09,-0.092,-1.012
2026/06/04 08:45:01.644,0.088,-0.094,-1.009
2026/06/04 08:45:01.665,0.093,-0.102,-1.008
2026/06/04 08:45:01.685,0.093,-0.101,-1.012
2026/06/04 08:45:01.706,0.09,-0.093,-1.014
2026/06/04 08:45:01.726,0.09,-0.095,-1.015
2026/06/04 08:45:01.747,0.084,-0.102,-1.011
2026/06/04 08:45:01.767,0.093,-0.1,-1.014
2026/06/04 08:45:01.787,0.088,-0.094,-1.011
2026/06/04 08:45:01.808,0.086,-0.091,-1.014
2026/06/04 08:45:01.828,0.089,-0.092,-1.005
2026/06/04 08:45:01.849,0.09,-0.087,-1.012
2026/06/04 08:45:01.869,0.087,-0.09,-1.006
2026/06/04 08:45:01.889,0.09,-0.089,-1.009
2026/06/04 08:45:01.910,0.089,-0.093,-1.005
2026/06/04 08:45:01.930,0.089,-0.095,-1.008
2026/06/04 08:45:01.951,0.092,-0.097,-1.009
2026/06/04 08:45:01.971,0.088,-0.089,-1.013
2026/06/04 08:45:01.991,0.091,-0.091,-1.007
2026/06/04 08:45:02.012,0.088,-0.1,-1.01
2026/06/04 08:45:02.032,0.093,-0.102,-1.005
2026/06/04 08:45:02.053,0.091,-0.089,-1.012
2026/06/04 08:45:02.073,0.092,-0.096,-1.011
2026/06/04 08:45:02.094,0.088,-0.099,-1.005
2026/06/04 08:45:02.114,0.088,-0.097,-1.007
2026/06/04 08:45:02.134,0.09,-0.094,-1.009
2026/06/04 08:45:02.155,0.091,-0.097,-1.011
2026/06/04 08:45:02.175,0.089,-0.097,-1.008
2026/06/04 08:45:02.196,0.092,-0.096,-1.012
2026/06/04 08:45:02.216,0.089,-0.093,-1.01
2026/06/04 08:45:02.236,0.089,-0.092,-1.015
2026/06/04 08:45:02.257,0.092,-0.095,-1.008
2026/06/04 08:45:02.277,0.085,-0.093,-1.01
2026/06/04 08:45:02.298,0.084,-0.095,-1.011
2026/06/04 08:45:02.318,0.091,-0.099,-1.013
2026/06/04 08:45:02.339,0.093,-0.096,-1.016
2026/06/04 08:45:02.359,0.09,-0.098,-1.011
2026/06/04 08:45:02.379,0.093,-0.091,-1.013
2026/06/04 08:45:02.400,0.087,-0.092,-1.014
2026/06/04 08:45:02.420,0.092,-0.099,-1.008
2026/06/04 08:45:02.441,0.094,-0.095,-1.007
2026/06/04 08:45:02.461,0.087,-0.096,-1.009
2026/06/04 08:45:02.481,0.089,-0.095,-1.014
2026/06/04 08:45:02.502,0.087,-0.096,-1.007
2026/06/04 08:45:02.522,0.089,-0.097,-1.003
2026/06/04 08:45:02.543,0.091,-0.091,-1.011
2026/06/04 08:45:02.563,0.095,-0.099,-1.012
2026/06/04 08:45:02.584,0.087,-0.1,-1.007
2026/06/04 08:45:02.604,0.09,-0.096,-1.007
2026/06/04 08:45:02.624,0.089,-0.091,-1.015
2026/06/04 08:45:02.645,0.094,-0.094,-1.011
2026/06/04 08:45:02.665,0.09,-0.096,-1.011
2026/06/04 08:45:02.686,0.088,-0.092,-1.007
2026/06/04 08:45:02.706,0.088,-0.093,-1.011
2026/06/04 08:45:02.726,0.095,-0.096,-1.009
2026/06/04 08:45:02.747,0.09,-0.094,-1.014
2026/06/04 08:45:02.767,0.093,-0.097,-1.003
2026/06/04 08:45:02.788,0.091,-0.097,-1.01
2026/06/04 08:45:02.808,0.087,-0.093,-1.006
2026/06/04 08:45:02.829,0.092,-0.094,-1.012
2026/06/04 08:45:02.849,0.09,-0.1,-1.008
2026/06/04 08:45:02.869,0.086,-0.096,-1.011
2026/06/04 08:45:02.890,0.088,-0.092,-1.012
2026/06/04 08:45:02.910,0.09,-0.097,-1.007
2026/06/04 08:45:02.931,0.09,-0.094,-1.01
2026/06/04 08:45:02.951,0.088,-0.095,-1.005
2026/06/04 08:45:02.971,0.088,-0.093,-1.01
2026/06/04 08:45:02.992,0.089,-0.094,-1.01
2026/06/04 08:45:03.012,0.088,-0.102,-1.012
2026/06/04 08:45:03.033,0.092,-0.1,-1.013
2026/06/04 08:45:03.053,0.088,-0.096,-1.01
2026/06/04 08:45:03.073,0.089,-0.093,-1.012
2026/06/04 08:45:03.094,0.091,-0.092,-1.01
2026/06/04 08:45:03.114,0.089,-0.092,-1.013
2026/06/04 08:45:03.135,0.088,-0.092,-1.008
2026/06/04 08:45:03.155,0.09,-0.092,-1.0
2026/06/04 08:45:03.176,0.09,-0.093,-1.012
2026/06/04 08:45:03.196,0.09,-0.095,-1.007
2026/06/04 08:45:03.216,0.09,-0.093,-1.013
2026/06/04 08:45:03.237,0.085,-0.092,-1.011
2026/06/04 08:45:03.257,0.088,-0.096,-1.011
2026/06/04 08:45:03.278,0.09,-0.096,-1.008
2026/06/04 08:45:03.298,0.096,-0.097,-1.011
2026/06/04 08:45:03.318,0.09,-0.096,-1.008
2026/06/04 08:45:03.339,0.089,-0.098,-1.014
2026/06/04 08:45:03.359,0.088,-0.095,-1.01
2026/06/04 08:45:03.380,0.091,-0.094,-1.01
2026/06/04 08:45:03.400,0.092,-0.098,-1.014
2026/06/04 08:45:03.421,0.085,-0.1,-1.002
2026/06/04 08:45:03.441,0.089,-0.098,-1.008
2026/06/04 08:45:03.461,0.091,-0.094,-1.008
2026/06/04 08:45:03.482,0.086,-0.088,-1.007
2026/06/04 08:45:03.502,0.092,-0.093,-1.014
2026/06/04 08:45:03.523,0.088,-0.083,-1.008
2026/06/04 08:45:03.543,0.087,-0.086,-1.012
2026/06/04 08:45:03.563,0.092,-0.091,-1.005
2026/06/04 08:45:03.584,0.092,-0.096,-1.009
2026/06/04 08:45:03.604,0.09,-0.091,-1.009
2026/06/04 08:45:03.625,0.09,-0.092,-1.004
2026/06/04 08:45:03.645,0.089,-0.094,-1.009
2026/06/04 08:45:03.666,0.088,-0.091,-1.011
2026/06/04 08:45:03.686,0.09,-0.095,-1.018
2026/06/04 08:45:03.706,0.092,-0.094,-1.006
2026/06/04 08:45:03.727,0.093,-0.095,-1.014
2026/06/04 08:45:03.747,0.095,-0.097,-1.012
2026/06/04 08:45:03.768,0.087,-0.092,-1.012
2026/06/04 08:45:03.788,0.088,-0.095,-1.014
2026/06/04 08:45:03.808,0.088,-0.096,-1.011
2026/06/04 08:45:03.829,0.087,-0.099,-1.005
2026/06/04 08:45:03.849,0.094,-0.094,-1.015
2026/06/04 08:45:03.870,0.091,-0.091,-1.012
2026/06/04 08:45:03.890,0.092,-0.095,-1.008
2026/06/04 08:45:03.910,0.088,-0.098,-1.009
2026/06/04 08:45:03.931,0.082,-0.1,-1.01
2026/06/04 08:45:03.951,0.095,-0.103,-1.014
2026/06/04 08:45:03.972,0.093,-0.103,-1.013
2026/06/04 08:45:03.992,0.089,-0.1,-1.014
2026/06/04 08:45:04.013,0.089,-0.097,-1.008
2026/06/04 08:45:04.033,0.087,-0.098,-1.01
2026/06/04 08:45:04.053,0.088,-0.093,-1.011
2026/06/04 08:45:04.074,0.091,-0.095,-1.004
2026/06/04 08:45:04.094,0.091,-0.093,-1.011
2026/06/04 08:45:04.115,0.09,-0.097,-1.013
2026/06/04 08:45:04.135,0.087,-0.095,-1.012
2026/06/04 08:45:04.155,0.084,-0.099,-1.012
2026/06/04 08:45:04.176,0.091,-0.096,-1.013
2026/06/04 08:45:04.196,0.086,-0.097,-1.003
2026/06/04 08:45:04.217,0.089,-0.094,-1.012
2026/06/04 08:45:04.237,0.095,-0.096,-1.009
2026/06/04 08:45:04.258,0.091,-0.091,-1.008
2026/06/04 08:45:04.278,0.092,-0.096,-1.01
2026/06/04 08:45:04.298,0.089,-0.099,-1.006
2026/06/04 08:45:04.319,0.089,-0.1,-1.012
2026/06/04 08:45:04.339,0.093,-0.096,-1.008
2026/06/04 08:45:04.360,0.094,-0.092,-1.005
2026/06/04 08:45:04.380,0.084,-0.091,-1.014
2026/06/04 08:45:04.400,0.087,-0.087,-1.007
2026/06/04 08:45:04.421,0.091,-0.09,-1.007
2026/06/04 08:45:04.441,0.086,-0.092,-1.006
2026/06/04 08:45:04.462,0.087,-0.091,-1.009
2026/06/04 08:45:04.482,0.088,-0.095,-1.011
2026/06/04 08:45:04.503,0.093,-0.096,-1.012
2026/06/04 08:45:04.523,0.091,-0.095,-1.009
2026/06/04 08:45:04.543,0.087,-0.096,-1.009
2026/06/04 08:45:04.564,0.09,-0.096,-1.011
2026/06/04 08:45:04.584,0.089,-0.095,-1.009
2026/06/04 08:45:04.605,0.09,-0.097,-1.014
2026/06/04 08:45:04.625,0.09,-0.092,-1.007
2026/06/04 08:45:04.645,0.088,-0.097,-1.016
2026/06/04 08:45:04.666,0.089,-0.096,-1.009
2026/06/04 08:45:04.686,0.093,-0.095,-1.011
2026/06/04 08:45:04.707,0.088,-0.096,-1.016
2026/06/04 08:45:04.727,0.091,-0.097,-1.011
2026/06/04 08:45:04.748,0.093,-0.092,-1.021
2026/06/04 08:45:04.768,0.089,-0.088,-1.005
2026/06/04 08:45:04.788,0.089,-0.088,-1.01
2026/06/04 08:45:04.809,0.09,-0.09,-1.009
2026/06/04 08:45:04.829,0.088,-0.094,-1.008
2026/06/04 08:45:04.850,0.094,-0.095,-1.014
2026/06/04 08:45:04.870,0.09,-0.1,-1.011
2026/06/04 08:45:04.890,0.093,-0.096,-1.009
2026/06/04 08:45:04.911,0.091,-0.096,-1.009
2026/06/04 08:45:04.931,0.09,-0.094,-1.011
2026/06/04 08:45:04.952,0.09,-0.093,-1.01
2026/06/04 08:45:04.972,0.09,-0.096,-1.009
2026/06/04 08:45:04.993,0.09,-0.092,-1.008
2026/06/04 08:45:05.013,0.088,-0.093,-1.01
2026/06/04 08:45:05.033,0.088,-0.097,-1.009
2026/06/04 08:45:05.054,0.089,-0.097,-1.011
2026/06/04 08:45:05.074,0.091,-0.093,-1.011
2026/06/04 08:45:05.095,0.09,-0.096,-1.009
2026/06/04 08:45:05.115,0.089,-0.095,-1.01
2026/06/04 08:45:05.135,0.092,-0.095,-1.013
2026/06/04 08:45:05.156,0.088,-0.097,-1.01
2026/06/04 08:45:05.176,0.09,-0.096,-1.011
2026/06/04 08:45:05.197,0.09,-0.097,-1.014
2026/06/04 08:45:05.217,0.089,-0.105,-1.015
2026/06/04 08:45:05.238,0.089,-0.099,-1.013
2026/06/04 08:45:05.258,0.088,-0.1,-1.018
2026/06/04 08:45:05.278,0.09,-0.1,-1.01
2026/06/04 08:45:05.299,0.087,-0.097,-1.011
2026/06/04 08:45:05.319,0.091,-0.105,-1.01
2026/06/04 08:45:05.340,0.093,-0.101,-1.012
2026/06/04 08:45:05.360,0.086,-0.096,-1.003
2026/06/04 08:45:05.380,0.093,-0.091,-1.005
2026/06/04 08:45:05.401,0.093,-0.095,-1.004
2026/06/04 08:45:05.421,0.085,-0.103,-1.016
2026/06/04 08:45:05.442,0.092,-0.093,-1.009
2026/06/04 08:45:05.462,0.088,-0.093,-1.018
2026/06/04 08:45:05.482,0.094,-0.097,-1.012
2026/06/04 08:45:05.503,0.091,-0.091,-1.006
2026/06/04 08:45:05.523,0.091,-0.095,-1.013
2026/06/04 08:45:05.544,0.09,-0.102,-1.001
2026/06/04 08:45:05.564,0.09,-0.096,-1.015
2026/06/04 08:45:05.585,0.088,-0.1,-1.009
2026/06/04 08:45:05.605,0.094,-0.099,-1.015
2026/06/04 08:45:05.625,0.087,-0.097,-1.007
2026/06/04 08:45:05.646,0.088,-0.096,-1.011
2026/06/04 08:45:05.666,0.09,-0.091,-1.009
2026/06/04 08:45:05.687,0.087,-0.091,-1.011
2026/06/04 08:45:05.707,0.084,-0.095,-1.008
2026/06/04 08:45:05.727,0.088,-0.094,-1.01
2026/06/04 08:45:05.748,0.086,-0.091,-1.012
2026/06/04 08:45:05.768,0.081,-0.095,-0.999
2026/06/04 08:45:05.789,0.093,-0.094,-1.016
2026/06/04 08:45:05.809,0.091,-0.095,-1.011
2026/06/04 08:45:05.830,0.089,-0.099,-1.011
2026/06/04 08:45:05.850,0.089,-0.094,-1.009
2026/06/04 08:45:05.870,0.09,-0.097,-1.008
2026/06/04 08:45:05.891,0.088,-0.089,-1.013
2026/06/04 08:45:05.911,0.088,-0.097,-1.002
2026/06/04 08:45:05.932,0.087,-0.094,-1.009
2026/06/04 08:45:05.952,0.09,-0.098,-1.013
2026/06/04 08:45:05.972,0.093,-0.094,-1.011
2026/06/04 08:45:05.993,0.087,-0.094,-1.011
2026/06/04 08:45:06.013,0.094,-0.092,-1.008
2026/06/04 08:45:06.034,0.087,-0.087,-1.01
2026/06/04 08:45:06.054,0.087,-0.085,-1.008
2026/06/04 08:45:06.075,0.091,-0.088,-1.009
2026/06/04 08:45:06.095,0.091,-0.087,-1.013
2026/06/04 08:45:06.115,0.094,-0.094,-1.003
2026/06/04 08:45:06.136,0.088,-0.093,-1.01
2026/06/04 08:45:06.156,0.088,-0.096,-1.013
2026/06/04 08:45:06.177,0.088,-0.095,-1.008
2026/06/04 08:45:06.197,0.092,-0.096,-1.004
2026/06/04 08:45:06.217,0.09,-0.097,-1.006
2026/06/04 08:45:06.238,0.089,-0.094,-1.01
2026/06/04 08:45:06.258,0.086,-0.094,-1.008
2026/06/04 08:45:06.279,0.089,-0.096,-1.012
2026/06/04 08:45:06.299,0.095,-0.097,-1.002
2026/06/04 08:45:06.320,0.088,-0.1,-1.011
2026/06/04 08:45:06.340,0.093,-0.1,-1.014
2026/06/04 08:45:06.360,0.093,-0.101,-1.009
2026/06/04 08:45:06.381,0.088,-0.095,-1.014
2026/06/04 08:45:06.401,0.09,-0.098,-1.009
2026/06/04 08:45:06.422,0.091,-0.097,-1.002
2026/06/04 08:45:06.442,0.091,-0.096,-1.009
2026/06/04 08:45:06.462,0.09,-0.091,-1.01
2026/06/04 08:45:06.483,0.09,-0.091,-1.008
2026/06/04 08:45:06.503,0.088,-0.087,-1.016
2026/06/04 08:45:06.524,0.089,-0.082,-1.016
2026/06/04 08:45:06.544,0.085,-0.086,-1.001
2026/06/04 08:45:06.565,0.081,-0.093,-1.004
2026/06/04 08:45:06.585,0.091,-0.096,-1.017
2026/06/04 08:45:06.605,0.09,-0.089,-1.017
2026/06/04 08:45:06.626,0.094,-0.091,-1.011
2026/06/04 08:45:06.646,0.093,-0.094,-1.007
2026/06/04 08:45:06.667,0.092,-0.089,-1.011
2026/06/04 08:45:06.687,0.092,-0.093,-1.013
2026/06/04 08:45:06.707,0.091,-0.093,-1.016
2026/06/04 08:45:06.728,0.087,-0.098,-1.007
2026/06/04 08:45:06.748,0.089,-0.099,-1.009
2026/06/04 08:45:06.769,0.087,-0.101,-1.014
2026/06/04 08:45:06.789,0.093,-0.101,-1.012
2026/06/04 08:45:06.809,0.087,-0.103,-1.011
2026/06/04 08:45:06.830,0.089,-0.098,-1.007
2026/06/04 08:45:06.850,0.089,-0.09,-1.007
2026/06/04 08:45:06.871,0.091,-0.087,-1.012
2026/06/04 08:45:06.891,0.088,-0.089,-1.009
2026/06/04 08:45:06.912,0.09,-0.09,-1.012
2026/06/04 08:45:06.932,0.089,-0.092,-1.009
2026/06/04 08:45:06.952,0.089,-0.098,-1.007
2026/06/04 08:45:06.973,0.091,-0.097,-1.012
2026/06/04 08:45:06.993,0.094,-0.097,-1.012
2026/06/04 08:45:07.014,0.093,-0.099,-1.016
2026/06/04 08:45:07.034,0.092,-0.101,-1.014
2026/06/04 08:45:07.054,0.09,-0.097,-1.013
2026/06/04 08:45:07.075,0.091,-0.093,-1.012
2026/06/04 08:45:07.095,0.088,-0.093,-1.014
2026/06/04 08:45:07.116,0.085,-0.096,-1.005
2026/06/04 08:45:07.136,0.091,-0.097,-1.015
2026/06/04 08:45:07.157,0.096,-0.096,-1.009
2026/06/04 08:45:07.177,0.083,-0.096,-1.007
2026/06/04 08:45:07.197,0.089,-0.095,-1.006
2026/06/04 08:45:07.218,0.083,-0.094,-1.002
2026/06/04 08:45:07.238,0.09,-0.095,-1.001
2026/06/04 08:45:07.259,0.1,-0.092,-1.015
2026/06/04 08:45:07.279,0.087,-0.094,-1.017
2026/06/04 08:45:07.299,0.085,-0.098,-1.014
2026/06/04 08:45:07.320,0.088,-0.097,-1.009
2026/06/04 08:45:07.340,0.088,-0.099,-1.013
2026/06/04 08:45:07.361,0.091,-0.094,-1.008
2026/06/04 08:45:07.381,0.096,-0.091,-1.009
2026/06/04 08:45:07.402,0.09,-0.093,-1.007
2026/06/04 08:45:07.422,0.089,-0.088,-1.008
2026/06/04 08:45:07.442,0.087,-0.09,-1.004
2026/06/04 08:45:07.463,0.086,-0.091,-1.006
2026/06/04 08:45:07.483,0.091,-0.094,-1.014
2026/06/04 08:45:07.504,0.09,-0.095,-1.011
2026/06/04 08:45:07.524,0.093,-0.097,-1.004
2026/06/04 08:45:07.544,0.088,-0.095,-1.008
2026/06/04 08:45:07.565,0.09,-0.089,-1.013
2026/06/04 08:45:07.585,0.087,-0.092,-1.007
2026/06/04 08:45:07.606,0.09,-0.093,-1.009
2026/06/04 08:45:07.626,0.091,-0.1,-1.007
2026/06/04 08:45:07.647,0.093,-0.099,-1.01
2026/06/04 08:45:07.667,0.093,-0.101,-1.009
2026/06/04 08:45:07.687,0.088,-0.1,-1.015
2026/06/04 08:45:07.708,0.089,-0.099,-1.007
2026/06/04 08:45:07.728,0.092,-0.095,-1.009
2026/06/04 08:45:07.749,0.092,-0.089,-1.009
2026/06/04 08:45:07.769,0.091,-0.095,-1.012
2026/06/04 08:45:07.789,0.087,-0.104,-1.009
2026/06/04 08:45:07.810,0.091,-0.099,-1.009
2026/06/04 08:45:07.830,0.089,-0.101,-1.017
2026/06/04 08:45:07.851,0.09,-0.108,-1.013
2026/06/04 08:45:07.871,0.089,-0.096,-1.008
2026/06/04 08:45:07.891,0.09,-0.089,-1.012
2026/06/04 08:45:07.912,0.092,-0.096,-1.009
2026/06/04 08:45:07.932,0.09,-0.095,-1.01
2026/06/04 08:45:07.953,0.089,-0.098,-1.005
2026/06/04 08:45:07.973,0.089,-0.097,-1.002
2026/06/04 08:45:07.994,0.09,-0.095,-1.015
2026/06/04 08:45:08.014,0.088,-0.099,-1.006
2026/06/04 08:45:08.034,0.089,-0.095,-1.011
2026/06/04 08:45:08.055,0.089,-0.089,-1.009
2026/06/04 08:45:08.075,0.09,-0.093,-1.009
2026/06/04 08:45:08.096,0.087,-0.094,-1.008
2026/06/04 08:45:08.116,0.09,-0.094,-1.011
2026/06/04 08:45:08.136,0.094,-0.096,-1.011
2026/06/04 08:45:08.157,0.09,-0.095,-1.011
2026/06/04 08:45:08.177,0.088,-0.099,-1.008
2026/06/04 08:45:08.198,0.09,-0.094,-1.014
2026/06/04 08:45:08.218,0.089,-0.085,-1.001
2026/06/04 08:45:08.239,0.092,-0.088,-1.006
2026/06/04 08:45:08.259,0.089,-0.096,-1.007
2026/06/04 08:45:08.279,0.086,-0.097,-1.002
2026/06/04 08:45:08.300,0.09,-0.096,-1.013
2026/06/04 08:45:08.320,0.089,-0.095,-1.005
2026/06/04 08:45:08.341,0.094,-0.093,-1.012
2026/06/04 08:45:08.361,0.087,-0.09,-1.011
2026/06/04 08:45:08.381,0.086,-0.094,-1.012
2026/06/04 08:45:08.402,0.089,-0.096,-1.011
2026/06/04 08:45:08.422,0.088,-0.096,-1.011
2026/06/04 08:45:08.443,0.092,-0.101,-1.008
2026/06/04 08:45:08.463,0.09,-0.103,-1.01
2026/06/04 08:45:08.484,0.087,-0.095,-1.016
2026/06/04 08:45:08.504,0.086,-0.096,-1.007
2026/06/04 08:45:08.524,0.087,-0.097,-1.01
2026/06/04 08:45:08.545,0.089,-0.094,-1.01
2026/06/04 08:45:08.565,0.085,-0.098,-1.016
2026/06/04 08:45:08.586,0.091,-0.097,-1.004
2026/06/04 08:45:08.606,0.088,-0.099,-1.011
2026/06/04 08:45:08.626,0.088,-0.096,-1.008
2026/06/04 08:45:08.647,0.092,-0.095,-1.005
2026/06/04 08:45:08.667,0.088,-0.092,-1.008
2026/06/04 08:45:08.688,0.089,-0.087,-1.01
2026/06/04 08:45:08.708,0.087,-0.09,-1.004
2026/06/04 08:45:08.729,0.086,-0.093,-1.011
2026/06/04 08:45:08.749,0.088,-0.092,-1.007
2026/06/04 08:45:08.769,0.087,-0.093,-1.008
2026/06/04 08:45:08.790,0.092,-0.093,-1.012
2026/06/04 08:45:08.810,0.089,-0.094,-1.014
2026/06/04 08:45:08.831,0.093,-0.096,-1.008
2026/06/04 08:45:08.851,0.092,-0.097,-1.01
2026/06/04 08:45:08.871,0.088,-0.097,-1.008
2026/06/04 08:45:08.892,0.09,-0.096,-1.01
2026/06/04 08:45:08.912,0.084,-0.094,-1.007
2026/06/04 08:45:08.933,0.089,-0.094,-1.007
2026/06/04 08:45:08.953,0.089,-0.098,-1.009
2026/06/04 08:45:08.973,0.087,-0.097,-1.007
2026/06/04 08:45:08.994,0.09,-0.091,-1.012
2026/06/04 08:45:09.014,0.086,-0.09,-1.006
2026/06/04 08:45:09.035,0.086,-0.092,-1.004
2026/06/04 08:45:09.055,0.097,-0.098,-1.014
2026/06/04 08:45:09.076,0.092,-0.099,-1.011
2026/06/04 08:45:09.096,0.096,-0.101,-1.012
2026/06/04 08:45:09.116,0.095,-0.101,-1.014
2026/06/04 08:45:09.137,0.093,-0.1,-1.011
2026/06/04 08:45:09.157,0.091,-0.097,-1.006
2026/06/04 08:45:09.178,0.087,-0.098,-1.012
2026/06/04 08:45:09.198,0.091,-0.094,-1.013
2026/06/04 08:45:09.218,0.092,-0.098,-1.012
2026/06/04 08:45:09.239,0.089,-0.098,-1.005
2026/06/04 08:45:09.259,0.09,-0.092,-1.012
2026/06/04 08:45:09.280,0.092,-0.091,-1.011
2026/06/04 08:45:09.300,0.09,-0.094,-1.011
2026/06/04 08:45:09.321,0.089,-0.091,-1.004
2026/06/04 08:45:09.341,0.091,-0.098,-1.016
2026/06/04 08:45:09.361,0.089,-0.096,-1.007
2026/06/04 08:45:09.382,0.09,-0.099,-1.016
2026/06/04 08:45:09.402,0.091,-0.094,-1.005
2026/06/04 08:45:09.423,0.088,-0.096,-1.019
2026/06/04 08:45:09.443,0.091,-0.099,-1.014
2026/06/04 08:45:09.463,0.091,-0.104,-1.013
2026/06/04 08:45:09.484,0.092,-0.1,-1.013
2026/06/04 08:45:09.504,0.09,-0.1,-1.013
2026/06/04 08:45:09.525,0.088,-0.101,-1.009
2026/06/04 08:45:09.545,0.086,-0.096,-1.013
2026/06/04 08:45:09.566,0.086,-0.091,-1.013
2026/06/04 08:45:09.586,0.091,-0.096,-0.999
2026/06/04 08:45:09.606,0.084,-0.094,-1.011
2026/06/04 08:45:09.627,0.09,-0.098,-1.007
2026/06/04 08:45:09.647,0.089,-0.094,-1.004
2026/06/04 08:45:09.668,0.082,-0.091,-1.012
2026/06/04 08:45:09.688,0.097,-0.096,-1.008
2026/06/04 08:45:09.708,0.089,-0.091,-1.015
2026/06/04 08:45:09.729,0.09,-0.097,-1.01
2026/06/04 08:45:09.749,0.089,-0.097,-1.009
2026/06/04 08:45:09.770,0.084,-0.094,-1.012
2026/06/04 08:45:09.790,0.086,-0.095,-1.014
2026/06/04 08:45:09.811,0.084,-0.097,-1.012
2026/06/04 08:45:09.831,0.09,-0.099,-1.015
2026/06/04 08:45:09.851,0.087,-0.102,-1.008
2026/06/04 08:45:09.872,0.09,-0.1,-1.011
2026/06/04 08:45:09.892,0.092,-0.088,-1.013
2026/06/04 08:45:09.913,0.087,-0.091,-1.006
2026/06/04 08:45:09.933,0.087,-0.086,-1.005
2026/06/04 08:45:09.953,0.084,-0.089,-1.01
2026/06/04 08:45:09.974,0.092,-0.095,-1.011
2026/06/04 08:45:09.994,0.091,-0.093,-1.007
2026/06/04 08:45:10.015,0.092,-0.096,-1.011
2026/06/04 08:45:10.035,0.093,-0.095,-1.015
2026/06/04 08:45:10.056,0.097,-0.094,-1.011
2026/06/04 08:45:10.076,0.094,-0.096,-1.008
2026/06/04 08:45:10.096,0.094,-0.099,-1.011
2026/06/04 08:45:10.117,0.096,-0.097,-1.017
2026/06/04 08:45:10.137,0.091,-0.094,-1.008
2026/06/04 08:45:10.158,0.09,-0.096,-1.004
2026/06/04 08:45:10.178,0.091,-0.095,-1.004
2026/06/04 08:45:10.198,0.093,-0.095,-1.009
2026/06/04 08:45:10.219,0.093,-0.092,-1.008
2026/06/04 08:45:10.239,0.09,-0.095,-1.015
2026/06/04 08:45:10.260,0.09,-0.096,-1.004
2026/06/04 08:45:10.280,0.092,-0.095,-1.005
2026/06/04 08:45:10.300,0.097,-0.093,-1.011
2026/06/04 08:45:10.321,0.084,-0.089,-1.012
2026/06/04 08:45:10.341,0.092,-0.094,-1.011
2026/06/04 08:45:10.362,0.091,-0.1,-1.009
2026/06/04 08:45:10.382,0.087,-0.101,-1.017
2026/06/04 08:45:10.403,0.093,-0.103,-1.007
2026/06/04 08:45:10.423,0.092,-0.104,-1.011
2026/06/04 08:45:10.443,0.098,-0.103,-1.015
2026/06/04 08:45:10.464,0.087,-0.094,-1.012
2026/06/04 08:45:10.484,0.09,-0.097,-1.007
2026/06/04 08:45:10.505,0.093,-0.096,-1.008
2026/06/04 08:45:10.525,0.091,-0.089,-1.017
2026/06/04 08:45:10.545,0.087,-0.096,-1.013
2026/06/04 08:45:10.566,0.092,-0.095,-1.008
2026/06/04 08:45:10.586,0.091,-0.098,-1.015
2026/06/04 08:45:10.607,0.087,-0.093,-1.008
2026/06/04 08:45:10.627,0.088,-0.093,-1.011
2026/06/04 08:45:10.648,0.088,-0.093,-1.014
2026/06/04 08:45:10.668,0.093,-0.099,-1.01
2026/06/04 08:45:10.688,0.092,-0.096,-1.009
2026/06/04 08:45:10.709,0.09,-0.095,-1.014
2026/06/04 08:45:10.729,0.095,-0.096,-1.009
2026/06/04 08:45:10.750,0.09,-0.098,-1.008
2026/06/04 08:45:10.770,0.095,-0.105,-1.016
2026/06/04 08:45:10.790,0.086,-0.1,-1.012
2026/06/04 08:45:10.811,0.09,-0.097,-1.007
2026/06/04 08:45:10.831,0.086,-0.097,-1.005
2026/06/04 08:45:10.852,0.089,-0.095,-1.011
2026/06/04 08:45:10.872,0.085,-0.093,-1.005
2026/06/04 08:45:10.893,0.083,-0.091,-1.008
2026/06/04 08:45:10.913,0.084,-0.095,-1.011
2026/06/04 08:45:10.933,0.093,-0.093,-1.003
2026/06/04 08:45:10.954,0.088,-0.092,-1.009
2026/06/04 08:45:10.974,0.09,-0.095,-1.006
2026/06/04 08:45:10.995,0.083,-0.092,-1.012
2026/06/04 08:45:11.015,0.095,-0.1,-1.018
2026/06/04 08:45:11.035,0.094,-0.096,-1.008
2026/06/04 08:45:11.056,0.088,-0.098,-1.011
2026/06/04 08:45:11.076,0.089,-0.1,-1.008
2026/06/04 08:45:11.097,0.087,-0.092,-1.005
2026/06/04 08:45:11.117,0.093,-0.099,-1.011
2026/06/04 08:45:11.138,0.084,-0.097,-1.006
2026/06/04 08:45:11.158,0.091,-0.095,-1.005
2026/06/04 08:45:11.178,0.092,-0.094,-1.009
2026/06/04 08:45:11.199,0.093,-0.087,-1.011
2026/06/04 08:45:11.219,0.089,-0.087,-1.007
2026/06/04 08:45:11.240,0.09,-0.094,-1.007
2026/06/04 08:45:11.260,0.09,-0.091,-1.013
2026/06/04 08:45:11.280,0.089,-0.093,-1.002
2026/06/04 08:45:11.301,0.089,-0.096,-1.016
2026/06/04 08:45:11.321,0.094,-0.095,-1.008
2026/06/04 08:45:11.342,0.093,-0.099,-1.011
2026/06/04 08:45:11.362,0.086,-0.099,-1.014
2026/06/04 08:45:11.382,0.088,-0.098,-1.005
2026/06/04 08:45:11.403,0.09,-0.096,-1.011
2026/06/04 08:45:11.423,0.093,-0.095,-1.01
2026/06/04 08:45:11.444,0.091,-0.093,-1.008
2026/06/04 08:45:11.464,0.087,-0.092,-1.01
2026/06/04 08:45:11.485,0.095,-0.095,-1.002
2026/06/04 08:45:11.505,0.088,-0.092,-1.006
2026/06/04 08:45:11.525,0.09,-0.096,-1.008
2026/06/04 08:45:11.546,0.094,-0.1,-1.011
2026/06/04 08:45:11.566,0.085,-0.097,-1.011
2026/06/04 08:45:11.587,0.09,-0.098,-1.006
2026/06/04 08:45:11.607,0.087,-0.093,-1.016
2026/06/04 08:45:11.627,0.091,-0.099,-1.01
2026/06/04 08:45:11.648,0.092,-0.103,-1.009
2026/06/04 08:45:11.668,0.086,-0.1,-1.012
2026/06/04 08:45:11.689,0.084,-0.096,-1.013
2026/06/04 08:45:11.709,0.09,-0.103,-1.015
2026/06/04 08:45:11.730,0.096,-0.099,-1.005
2026/06/04 08:45:11.750,0.086,-0.096,-1.007
2026/06/04 08:45:11.770,0.094,-0.1,-1.007
2026/06/04 08:45:11.791,0.085,-0.092,-1.004
2026/06/04 08:45:11.811,0.084,-0.093,-1.005
2026/06/04 08:45:11.832,0.088,-0.09,-1.005
2026/06/04 08:45:11.852,0.088,-0.095,-1.008
2026/06/04 08:45:11.872,0.09,-0.092,-1.006
2026/06/04 08:45:11.893,0.088,-0.096,-1.011
2026/06/04 08:45:11.913,0.085,-0.094,-1.013
2026/06/04 08:45:11.934,0.09,-0.101,-1.01
2026/06/04 08:45:11.954,0.091,-0.092,-1.008
2026/06/04 08:45:11.975,0.089,-0.095,-1.01
2026/06/04 08:45:11.995,0.088,-0.099,-1.013
2026/06/04 08:45:12.015,0.089,-0.098,-1.007
2026/06/04 08:45:12.036,0.084,-0.097,-1.012
2026/06/04 08:45:12.056,0.088,-0.101,-1.006
2026/06/04 08:45:12.077,0.086,-0.096,-1.012
2026/06/04 08:45:12.097,0.089,-0.1,-1.005
2026/06/04 08:45:12.117,0.087,-0.095,-1.011
2026/06/04 08:45:12.138,0.088,-0.092,-1.009
2026/06/04 08:45:12.158,0.089,-0.092,-1.006
2026/06/04 08:45:12.179,0.085,-0.094,-1.008
2026/06/04 08:45:12.199,0.088,-0.097,-1.002
2026/06/04 08:45:12.219,0.09,-0.089,-1.01
2026/06/04 08:45:12.240,0.09,-0.097,-1.007
2026/06/04 08:45:12.260,0.091,-0.092,-1.008
2026/06/04 08:45:12.281,0.084,-0.099,-1.003
2026/06/04 08:45:12.301,0.091,-0.093,-1.008
2026/06/04 08:45:12.322,0.088,-0.092,-1.01
2026/06/04 08:45:12.342,0.09,-0.096,-1.008
2026/06/04 08:45:12.362,0.09,-0.094,-1.008
2026/06/04 08:45:12.383,0.089,-0.091,-1.004
2026/06/04 08:45:12.403,0.089,-0.098,-1.011
2026/06/04 08:45:12.424,0.085,-0.1,-1.008
2026/06/04 08:45:12.444,0.087,-0.093,-1.007
2026/06/04 08:45:12.464,0.089,-0.089,-1.011
2026/06/04 08:45:12.485,0.087,-0.09,-1.008
2026/06/04 08:45:12.505,0.091,-0.085,-1.011
2026/06/04 08:45:12.526,0.087,-0.084,-1.008
2026/06/04 08:45:12.546,0.089,-0.091,-1.007
2026/06/04 08:45:12.567,0.092,-0.087,-1.01
2026/06/04 08:45:12.587,0.09,-0.093,-1.012
2026/06/04 08:45:12.607,0.09,-0.09,-1.009
2026/06/04 08:45:12.628,0.09,-0.095,-1.005
2026/06/04 08:45:12.648,0.093,-0.096,-1.015
2026/06/04 08:45:12.669,0.09,-0.095,-1.011
2026/06/04 08:45:12.689,0.09,-0.096,-1.008
2026/06/04 08:45:12.709,0.087,-0.1,-1.007
2026/06/04 08:45:12.730,0.089,-0.098,-1.011
2026/06/04 08:45:12.750,0.09,-0.095,-1.009
2026/06/04 08:45:12.771,0.089,-0.096,-1.008
2026/06/04 08:45:12.791,0.088,-0.095,-1.006
2026/06/04 08:45:12.812,0.091,-0.095,-1.009
2026/06/04 08:45:12.832,0.09,-0.098,-1.008
2026/06/04 08:45:12.852,0.09,-0.092,-1.01
2026/06/04 08:45:12.873,0.091,-0.092,-1.011
2026/06/04 08:45:12.893,0.088,-0.091,-1.009
2026/06/04 08:45:12.914,0.089,-0.091,-1.006
2026/06/04 08:45:12.934,0.093,-0.095,-1.011
2026/06/04 08:45:12.954,0.09,-0.097,-1.006
2026/06/04 08:45:12.975,0.094,-0.098,-1.011
2026/06/04 08:45:12.995,0.095,-0.099,-1.017
2026/06/04 08:45:13.016,0.09,-0.099,-1.013
2026/06/04 08:45:13.036,0.095,-0.1,-1.01
2026/06/04 08:45:13.056,0.093,-0.096,-1.008
2026/06/04 08:45:13.077,0.09,-0.094,-1.016
2026/06/04 08:45:13.097,0.092,-0.095,-1.01
2026/06/04 08:45:13.118,0.087,-0.099,-1.013
2026/06/04 08:45:13.138,0.091,-0.097,-1.011
2026/06/04 08:45:13.159,0.089,-0.099,-1.01
2026/06/04 08:45:13.179,0.085,-0.097,-1.01
2026/06/04 08:45:13.199,0.09,-0.095,-1.011
2026/06/04 08:45:13.220,0.089,-0.096,-1.008
2026/06/04 08:45:13.240,0.086,-0.092,-1.007
2026/06/04 08:45:13.261,0.09,-0.092,-1.008
2026/06/04 08:45:13.281,0.09,-0.096,-1.013
2026/06/04 08:45:13.301,0.093,-0.098,-1.011
2026/06/04 08:45:13.322,0.091,-0.102,-1.011
2026/06/04 08:45:13.342,0.093,-0.094,-1.011
2026/06/04 08:45:13.363,0.092,-0.09,-1.011
2026/06/04 08:45:13.383,0.086,-0.086,-1.003
2026/06/04 08:45:13.404,0.088,-0.092,-1.011
2026/06/04 08:45:13.424,0.087,-0.086,-1.009
2026/06/04 08:45:13.444,0.082,-0.091,-1.006
2026/06/04 08:45:13.465,0.087,-0.095,-1.01
2026/06/04 08:45:13.485,0.088,-0.091,-1.007
2026/06/04 08:45:13.506,0.091,-0.093,-1.009
2026/06/04 08:45:13.526,0.088,-0.09,-1.011
2026/06/04 08:45:13.546,0.092,-0.093,-1.007
2026/06/04 08:45:13.567,0.088,-0.092,-1.014
2026/06/04 08:45:13.587,0.094,-0.1,-1.012
2026/06/04 08:45:13.608,0.091,-0.098,-1.01
2026/06/04 08:45:13.628,0.09,-0.103,-1.009
2026/06/04 08:45:13.649,0.089,-0.1,-1.015
2026/06/04 08:45:13.669,0.09,-0.094,-1.004
2026/06/04 08:45:13.689,0.094,-0.097,-1.008
2026/06/04 08:45:13.710,0.091,-0.097,-1.007
2026/06/04 08:45:13.730,0.088,-0.092,-1.008
2026/06/04 08:45:13.751,0.087,-0.092,-1.007
2026/06/04 08:45:13.771,0.083,-0.085,-1.011
2026/06/04 08:45:13.791,0.09,-0.091,-1.014
2026/06/04 08:45:13.812,0.091,-0.091,-1.007
2026/06/04 08:45:13.832,0.09,-0.093,-1.014
2026/06/04 08:45:13.853,0.093,-0.093,-1.017
2026/06/04 08:45:13.873,0.092,-0.096,-1.01
2026/06/04 08:45:13.893,0.091,-0.098,-1.015
2026/06/04 08:45:13.914,0.093,-0.095,-1.011
2026/06/04 08:45:13.934,0.092,-0.097,-1.012
2026/06/04 08:45:13.955,0.091,-0.101,-1.012
2026/06/04 08:45:13.975,0.091,-0.1,-1.012
2026/06/04 08:45:13.996,0.094,-0.097,-1.015
2026/06/04 08:45:14.016,0.092,-0.095,-1.011
2026/06/04 08:45:14.036,0.087,-0.094,-1.007
2026/06/04 08:45:14.057,0.089,-0.089,-1.006
2026/06/04 08:45:14.077,0.087,-0.089,-1.009
2026/06/04 08:45:14.098,0.087,-0.089,-1.007
2026/06/04 08:45:14.118,0.091,-0.093,-1.008
2026/06/04 08:45:14.138,0.092,-0.096,-1.01
2026/06/04 08:45:14.159,0.084,-0.098,-0.999
2026/06/04 08:45:14.179,0.088,-0.099,-1.013
2026/06/04 08:45:14.200,0.089,-0.094,-1.007
2026/06/04 08:45:14.220,0.086,-0.085,-1.008
2026/06/04 08:45:14.241,0.085,-0.084,-1.006
2026/06/04 08:45:14.261,0.094,-0.089,-1.007
2026/06/04 08:45:14.281,0.094,-0.094,-1.013
2026/06/04 08:45:14.302,0.093,-0.091,-1.013
2026/06/04 08:45:14.322,0.092,-0.097,-1.016
2026/06/04 08:45:14.343,0.093,-0.094,-1.009
2026/06/04 08:45:14.363,0.087,-0.096,-1.016
2026/06/04 08:45:14.383,0.091,-0.099,-1.012
2026/06/04 08:45:14.404,0.091,-0.1,-1.007
2026/06/04 08:45:14.424,0.09,-0.097,-1.011
2026/06/04 08:45:14.445,0.09,-0.092,-1.017
2026/06/04 08:45:14.465,0.087,-0.099,-1.013
2026/06/04 08:45:14.486,0.087,-0.094,-1.005
2026/06/04 08:45:14.506,0.09,-0.089,-1.018
2026/06/04 08:45:14.526,0.088,-0.096,-1.008
2026/06/04 08:45:14.547,0.088,-0.1,-0.998
2026/06/04 08:45:14.567,0.091,-0.091,-1.017
2026/06/04 08:45:14.588,0.088,-0.096,-1.01
2026/06/04 08:45:14.608,0.091,-0.106,-1.009
2026/06/04 08:45:14.628,0.091,-0.102,-1.01
2026/06/04 08:45:14.649,0.09,-0.101,-1.011
2026/06/04 08:45:14.669,0.086,-0.094,-1.015
2026/06/04 08:45:14.690,0.088,-0.096,-1.005
2026/06/04 08:45:14.710,0.088,-0.091,-1.006
2026/06/04 08:45:14.731,0.088,-0.09,-1.009
2026/06/04 08:45:14.751,0.088,-0.097,-1.003
2026/06/04 08:45:14.771,0.091,-0.095,-1.007
2026/06/04 08:45:14.792,0.09,-0.096,-1.009
2026/06/04 08:45:14.812,0.091,-0.095,-1.013
2026/06/04 08:45:14.833,0.09,-0.093,-1.007
2026/06/04 08:45:14.853,0.09,-0.093,-1.009
2026/06/04 08:45:14.873,0.092,-0.09,-1.013
2026/06/04 08:45:14.894,0.09,-0.089,-1.01
2026/06/04 08:45:14.914,0.09,-0.095,-1.016
2026/06/04 08:45:14.935,0.09,-0.096,-1.011
2026/06/04 08:45:14.955,0.091,-0.097,-1.007
2026/06/04 08:45:14.975,0.091,-0.1,-1.01
2026/06/04 08:45:14.996,0.09,-0.094,-1.008
2026/06/04 08:45:15.016,0.093,-0.095,-1.014
2026/06/04 08:45:15.037,0.087,-0.098,-1.008
2026/06/04 08:45:15.057,0.089,-0.098,-1.005
2026/06/04 08:45:15.078,0.088,-0.103,-1.013
2026/06/04 08:45:15.098,0.088,-0.102,-1.01
2026/06/04 08:45:15.118,0.09,-0.096,-1.007
2026/06/04 08:45:15.139,0.089,-0.092,-1.011
2026/06/04 08:45:15.159,0.089,-0.094,-1.007
2026/06/04 08:45:15.180,0.091,-0.091,-1.007
2026/06/04 08:45:15.200,0.092,-0.092,-1.012
2026/06/04 08:45:15.220,0.088,-0.098,-1.007
2026/06/04 08:45:15.241,0.089,-0.101,-1.012
2026/06/04 08:45:15.261,0.094,-0.096,-1.01
2026/06/04 08:45:15.282,0.093,-0.102,-1.011
2026/06/04 08:45:15.302,0.09,-0.094,-1.012
2026/06/04 08:45:15.323,0.095,-0.098,-1.007
2026/06/04 08:45:15.343,0.088,-0.098,-1.014
2026/06/04 08:45:15.363,0.094,-0.098,-1.01
2026/06/04 08:45:15.384,0.088,-0.09,-1.006
2026/06/04 08:45:15.404,0.09,-0.094,-1.007
2026/06/04 08:45:15.425,0.09,-0.096,-1.012
2026/06/04 08:45:15.445,0.089,-0.098,-1.011
2026/06/04 08:45:15.465,0.089,-0.1,-1.01
2026/06/04 08:45:15.486,0.09,-0.091,-1.009
2026/06/04 08:45:15.506,0.09,-0.096,-1.008
2026/06/04 08:45:15.527,0.088,-0.095,-1.01
2026/06/04 08:45:15.547,0.089,-0.094,-1.005
2026/06/04 08:45:15.568,0.085,-0.095,-1.01
2026/06/04 08:45:15.588,0.089,-0.098,-1.011
2026/06/04 08:45:15.608,0.092,-0.096,-1.017
2026/06/04 08:45:15.629,0.09,-0.094,-1.017
2026/06/04 08:45:15.649,0.087,-0.091,-1.017
2026/06/04 08:45:15.670,0.088,-0.098,-1.001
2026/06/04 08:45:15.690,0.09,-0.099,-1.014
2026/06/04 08:45:15.710,0.096,-0.09,-1.011
2026/06/04 08:45:15.731,0.09,-0.099,-1.016
2026/06/04 08:45:15.751,0.09,-0.094,-1.003
2026/06/04 08:45:15.772,0.086,-0.09,-1.016
2026/06/04 08:45:15.792,0.088,-0.099,-1.005
2026/06/04 08:45:15.812,0.095,-0.101,-1.009
2026/06/04 08:45:15.833,0.094,-0.094,-1.008
2026/06/04 08:45:15.853,0.09,-0.098,-1.007
2026/06/04 08:45:15.874,0.083,-0.093,-1.009
2026/06/04 08:45:15.894,0.09,-0.093,-1.009
2026/06/04 08:45:15.915,0.088,-0.089,-1.015
2026/06/04 08:45:15.935,0.088,-0.096,-1.005
2026/06/04 08:45:15.955,0.09,-0.094,-1.007
2026/06/04 08:45:15.976,0.091,-0.089,-1.007
2026/06/04 08:45:15.996,0.087,-0.095,-1.013
2026/06/04 08:45:16.017,0.088,-0.096,-1.013
2026/06/04 08:45:16.037,0.088,-0.098,-1.008
2026/06/04 08:45:16.057,0.093,-0.093,-1.01
2026/06/04 08:45:16.078,0.094,-0.092,-1.012
2026/06/04 08:45:16.098,0.091,-0.102,-1.006
2026/06/04 08:45:16.119,0.092,-0.096,-1.01
2026/06/04 08:45:16.139,0.088,-0.091,-1.014
2026/06/04 08:45:16.160,0.088,-0.094,-1.008
2026/06/04 08:45:16.180,0.088,-0.094,-1.009
2026/06/04 08:45:16.200,0.089,-0.092,-1.005
2026/06/04 08:45:16.221,0.088,-0.094,-1.011
2026/06/04 08:45:16.241,0.094,-0.09,-1.007
2026/06/04 08:45:16.262,0.088,-0.097,-1.011
2026/06/04 08:45:16.282,0.092,-0.093,-1.005
2026/06/04 08:45:16.302,0.086,-0.096,-1.009
2026/06/04 08:45:16.323,0.09,-0.098,-1.009
2026/06/04 08:45:16.343,0.09,-0.094,-1.01
2026/06/04 08:45:16.364,0.087,-0.091,-1.011
2026/06/04 08:45:16.384,0.089,-0.095,-1.011
2026/06/04 08:45:16.405,0.09,-0.094,-1.011
2026/06/04 08:45:16.425,0.092,-0.092,-1.01
2026/06/04 08:45:16.445,0.093,-0.095,-1.008
2026/06/04 08:45:16.466,0.088,-0.099,-1.011
2026/06/04 08:45:16.486,0.086,-0.094,-1.015
2026/06/04 08:45:16.507,0.092,-0.094,-1.003
2026/06/04 08:45:16.527,0.087,-0.097,-1.011
2026/06/04 08:45:16.547,0.091,-0.094,-1.011
2026/06/04 08:45:16.568,0.092,-0.095,-1.008
2026/06/04 08:45:16.588,0.093,-0.097,-1.009
2026/06/04 08:45:16.609,0.092,-0.094,-1.009
2026/06/04 08:45:16.629,0.091,-0.096,-1.007
2026/06/04 08:45:16.649,0.084,-0.094,-1.01
2026/06/04 08:45:16.670,0.091,-0.093,-1.008
2026/06/04 08:45:16.690,0.087,-0.098,-1.01
2026/06/04 08:45:16.711,0.087,-0.096,-1.005
2026/06/04 08:45:16.731,0.096,-0.087,-1.007
2026/06/04 08:45:16.752,0.085,-0.09,-1.01
2026/06/04 08:45:16.772,0.089,-0.091,-1.012
2026/06/04 08:45:16.792,0.088,-0.099,-1.012
2026/06/04 08:45:16.813,0.09,-0.099,-1.011
2026/06/04 08:45:16.833,0.09,-0.099,-1.013
2026/06/04 08:45:16.854,0.092,-0.106,-1.014
2026/06/04 08:45:16.874,0.098,-0.095,-1.011
2026/06/04 08:45:16.894,0.092,-0.099,-1.008
2026/06/04 08:45:16.915,0.089,-0.097,-1.008
2026/06/04 08:45:16.935,0.092,-0.097,-1.01
2026/06/04 08:45:16.956,0.092,-0.098,-1.008
2026/06/04 08:45:16.976,0.084,-0.094,-1.01
2026/06/04 08:45:16.997,0.09,-0.091,-1.013
2026/06/04 08:45:17.017,0.09,-0.096,-1.006
2026/06/04 08:45:17.037,0.086,-0.092,-1.01
2026/06/04 08:45:17.058,0.09,-0.097,-1.011
2026/06/04 08:45:17.078,0.09,-0.095,-1.014
2026/06/04 08:45:17.099,0.091,-0.095,-1.01
2026/06/04 08:45:17.119,0.091,-0.091,-1.008
2026/06/04 08:45:17.139,0.094,-0.095,-1.011
2026/06/04 08:45:17.160,0.09,-0.096,-1.015
2026/06/04 08:45:17.180,0.091,-0.1,-1.008
2026/06/04 08:45:17.201,0.084,-0.103,-1.007
2026/06/04 08:45:17.221,0.091,-0.106,-1.006
2026/06/04 08:45:17.242,0.089,-0.095,-1.012
2026/06/04 08:45:17.262,0.095,-0.094,-1.013
2026/06/04 08:45:17.282,0.087,-0.092,-1.006
2026/06/04 08:45:17.303,0.088,-0.093,-1.005
2026/06/04 08:45:17.323,0.082,-0.087,-1.006
2026/06/04 08:45:17.344,0.083,-0.096,-1.004
2026/06/04 08:45:17.364,0.09,-0.095,-1.004
2026/06/04 08:45:17.384,0.09,-0.095,-1.005
2026/06/04 08:45:17.405,0.094,-0.098,-1.01
2026/06/04 08:45:17.425,0.091,-0.096,-1.01
2026/06/04 08:45:17.446,0.088,-0.097,-1.012
2026/06/04 08:45:17.466,0.092,-0.096,-1.016
2026/06/04 08:45:17.486,0.087,-0.097,-1.01
2026/06/04 08:45:17.507,0.09,-0.097,-1.013
2026/06/04 08:45:17.527,0.089,-0.096,-1.006
2026/06/04 08:45:17.548,0.089,-0.093,-1.007
2026/06/04 08:45:17.568,0.09,-0.096,-1.015
2026/06/04 08:45:17.589,0.085,-0.094,-1.007
2026/06/04 08:45:17.609,0.089,-0.097,-1.006
2026/06/04 08:45:17.629,0.087,-0.086,-1.008
2026/06/04 08:45:17.650,0.089,-0.09,-1.013
2026/06/04 08:45:17.670,0.089,-0.092,-1.003
2026/06/04 08:45:17.691,0.088,-0.087,-1.007
2026/06/04 08:45:17.711,0.084,-0.09,-1.011
2026/06/04 08:45:17.731,0.09,-0.095,-1.009
2026/06/04 08:45:17.752,0.089,-0.096,-1.013
2026/06/04 08:45:17.772,0.095,-0.097,-1.008
2026/06/04 08:45:17.793,0.091,-0.098,-1.007
2026/06/04 08:45:17.813,0.089,-0.092,-1.008
2026/06/04 08:45:17.834,0.093,-0.097,-1.006
2026/06/04 08:45:17.854,0.087,-0.094,-1.011
2026/06/04 08:45:17.874,0.09,-0.094,-1.015
2026/06/04 08:45:17.895,0.086,-0.096,-1.01
2026/06/04 08:45:17.915,0.09,-0.094,-1.008
2026/06/04 08:45:17.936,0.085,-0.093,-1.007
2026/06/04 08:45:17.956,0.091,-0.097,-1.017
2026/06/04 08:45:17.976,0.088,-0.097,-1.007
2026/06/04 08:45:17.997,0.093,-0.094,-1.012
2026/06/04 08:45:18.017,0.091,-0.091,-1.009
2026/06/04 08:45:18.038,0.092,-0.092,-1.009
2026/06/04 08:45:18.058,0.09,-0.093,-1.005
2026/06/04 08:45:18.079,0.092,-0.096,-1.01
2026/06/04 08:45:18.099,0.093,-0.099,-1.008
2026/06/04 08:45:18.119,0.092,-0.098,-1.011
2026/06/04 08:45:18.140,0.092,-0.094,-1.006
2026/06/04 08:45:18.160,0.092,-0.095,-1.012
2026/06/04 08:45:18.181,0.092,-0.095,-1.01
2026/06/04 08:45:18.201,0.087,-0.096,-1.009
2026/06/04 08:45:18.221,0.088,-0.098,-1.013
2026/06/04 08:45:18.242,0.086,-0.097,-1.01
2026/06/04 08:45:18.262,0.089,-0.094,-1.005
2026/06/04 08:45:18.283,0.09,-0.095,-1.01
2026/06/04 08:45:18.303,0.089,-0.095,-1.013
2026/06/04 08:45:18.324,0.09,-0.093,-1.009
2026/06/04 08:45:18.344,0.093,-0.095,-1.007
2026/06/04 08:45:18.364,0.09,-0.094,-1.013
2026/06/04 08:45:18.385,0.09,-0.094,-1.013
2026/06/04 08:45:18.405,0.09,-0.096,-1.009
2026/06/04 08:45:18.426,0.09,-0.093,-1.012
2026/06/04 08:45:18.446,0.093,-0.096,-1.013
2026/06/04 08:45:18.466,0.088,-0.099,-1.009
2026/06/04 08:45:18.487,0.092,-0.101,-1.01
2026/06/04 08:45:18.507,0.09,-0.103,-1.014
2026/06/04 08:45:18.528,0.091,-0.101,-1.005
2026/06/04 08:45:18.548,0.092,-0.101,-1.015
2026/06/04 08:45:18.568,0.086,-0.1,-1.013
2026/06/04 08:45:18.589,0.086,-0.094,-1.012
2026/06/04 08:45:18.609,0.088,-0.094,-1.01
2026/06/04 08:45:18.630,0.089,-0.095,-1.007
2026/06/04 08:45:18.650,0.088,-0.097,-1.005
2026/06/04 08:45:18.671,0.089,-0.099,-1.008
2026/06/04 08:45:18.691,0.09,-0.091,-1.009
2026/06/04 08:45:18.711,0.093,-0.094,-1.007
2026/06/04 08:45:18.732,0.091,-0.096,-1.022
2026/06/04 08:45:18.752,0.088,-0.098,-1.003
2026/06/04 08:45:18.773,0.095,-0.098,-1.012
2026/06/04 08:45:18.793,0.089,-0.095,-1.007
2026/06/04 08:45:18.813,0.088,-0.096,-1.008
2026/06/04 08:45:18.834,0.088,-0.096,-1.008
2026/06/04 08:45:18.854,0.087,-0.099,-1.01
2026/06/04 08:45:18.875,0.088,-0.099,-1.012
2026/06/04 08:45:18.895,0.091,-0.094,-1.008
2026/06/04 08:45:18.916,0.088,-0.094,-1.009
2026/06/04 08:45:18.936,0.089,-0.089,-1.011
2026/06/04 08:45:18.956,0.085,-0.089,-1.003
2026/06/04 08:45:18.977,0.084,-0.09,-1.006
2026/06/04 08:45:18.997,0.086,-0.092,-1.0
2026/06/04 08:45:19.018,0.083,-0.089,-1.008
2026/06/04 08:45:19.038,0.089,-0.09,-1.009
2026/06/04 08:45:19.058,0.09,-0.092,-1.009
2026/06/04 08:45:19.079,0.087,-0.092,-1.017
2026/06/04 08:45:19.099,0.089,-0.094,-1.007
2026/06/04 08:45:19.120,0.095,-0.095,-1.003
2026/06/04 08:45:19.140,0.089,-0.095,-1.012
2026/06/04 08:45:19.161,0.091,-0.094,-1.012
2026/06/04 08:45:19.181,0.09,-0.097,-1.009
2026/06/04 08:45:19.201,0.09,-0.093,-1.017
2026/06/04 08:45:19.222,0.089,-0.092,-1.006
2026/06/04 08:45:19.242,0.089,-0.096,-1.009
2026/06/04 08:45:19.263,0.087,-0.096,-1.006
2026/06/04 08:45:19.283,0.093,-0.092,-1.012
2026/06/04 08:45:19.303,0.089,-0.086,-1.01
2026/06/04 08:45:19.324,0.087,-0.087,-1.009
2026/06/04 08:45:19.344,0.091,-0.087,-1.01
2026/06/04 08:45:19.365,0.089,-0.093,-1.008
2026/06/04 08:45:19.385,0.093,-0.093,-1.009
2026/06/04 08:45:19.405,0.091,-0.099,-1.012
2026/06/04 08:45:19.426,0.093,-0.102,-1.01
2026/06/04 08:45:19.446,0.091,-0.094,-1.016
2026/06/04 08:45:19.467,0.09,-0.097,-1.007
2026/06/04 08:45:19.487,0.088,-0.098,-1.01
2026/06/04 08:45:19.508,0.085,-0.095,-1.011
2026/06/04 08:45:19.528,0.089,-0.09,-1.007
2026/06/04 08:45:19.548,0.093,-0.096,-1.012
2026/06/04 08:45:19.569,0.088,-0.096,-1.007
2026/06/04 08:45:19.589,0.088,-0.093,-1.01
2026/06/04 08:45:19.610,0.092,-0.092,-1.011
2026/06/04 08:45:19.630,0.092,-0.099,-0.996
2026/06/04 08:45:19.650,0.095,-0.094,-1.007
2026/06/04 08:45:19.671,0.092,-0.098,-1.011
2026/06/04 08:45:19.691,0.092,-0.093,-1.011
2026/06/04 08:45:19.712,0.095,-0.09,-1.009
2026/06/04 08:45:19.732,0.09,-0.089,-1.009
2026/06/04 08:45:19.753,0.089,-0.101,-1.027
2026/06/04 08:45:19.773,0.087,-0.105,-0.986
2026/06/04 08:45:19.793,0.087,-0.105,-1.022
2026/06/04 08:45:19.814,0.088,-0.104,-1.005
2026/06/04 08:45:19.834,0.088,-0.097,-1.018
2026/06/04 08:45:19.855,0.089,-0.098,-1.022
2026/06/04 08:45:19.875,0.087,-0.096,-1.004
2026/06/04 08:45:19.895,0.087,-0.095,-1.008
2026/06/04 08:45:19.916,0.09,-0.092,-1.024
2026/06/04 08:45:19.936,0.089,-0.096,-1.005
2026/06/04 08:45:19.957,0.088,-0.097,-1.001
2026/06/04 08:45:19.977,0.091,-0.091,-1.005
2026/06/04 08:45:19.998,0.088,-0.089,-1.014
2026/06/04 08:45:20.018,0.089,-0.093,-1.003
2026/06/04 08:45:20.038,0.088,-0.09,-1.009
2026/06/04 08:45:20.059,0.092,-0.095,-1.01
2026/06/04 08:45:20.079,0.092,-0.097,-1.009
2026/06/04 08:45:20.100,0.087,-0.097,-1.012
2026/06/04 08:45:20.120,0.087,-0.095,-1.008
2026/06/04 08:45:20.140,0.088,-0.097,-1.013
2026/06/04 08:45:20.161,0.088,-0.093,-1.013
2026/06/04 08:45:20.181,0.092,-0.093,-1.004
2026/06/04 08:45:20.202,0.091,-0.09,-1.01
2026/06/04 08:45:20.222,0.092,-0.09,-1.01
2026/06/04 08:45:20.243,0.086,-0.089,-1.009
2026/06/04 08:45:20.263,0.089,-0.09,-1.011
2026/06/04 08:45:20.283,0.083,-0.087,-1.005
2026/06/04 08:45:20.304,0.087,-0.089,-1.007
2026/06/04 08:45:20.324,0.094,-0.096,-1.011
2026/06/04 08:45:20.345,0.093,-0.094,-1.007
2026/06/04 08:45:20.365,0.088,-0.092,-1.007
2026/06/04 08:45:20.385,0.09,-0.094,-1.011
2026/06/04 08:45:20.406,0.093,-0.098,-1.01
2026/06/04 08:45:20.426,0.09,-0.104,-1.006
2026/06/04 08:45:20.447,0.091,-0.1,-1.012
2026/06/04 08:45:20.467,0.092,-0.093,-1.014
2026/06/04 08:45:20.487,0.089,-0.096,-1.013
2026/06/04 08:45:20.508,0.091,-0.096,-1.011
2026/06/04 08:45:20.528,0.093,-0.093,-1.015
2026/06/04 08:45:20.549,0.086,-0.097,-1.008
2026/06/04 08:45:20.569,0.086,-0.095,-1.006
2026/06/04 08:45:20.590,0.084,-0.091,-1.009
2026/06/04 08:45:20.610,0.091,-0.091,-1.017
2026/06/04 08:45:20.630,0.09,-0.095,-1.01
2026/06/04 08:45:20.651,0.09,-0.097,-1.011
2026/06/04 08:45:20.671,0.09,-0.099,-1.009
2026/06/04 08:45:20.692,0.093,-0.098,-1.014
2026/06/04 08:45:20.712,0.097,-0.096,-1.012
2026/06/04 08:45:20.732,0.091,-0.098,-1.011
2026/06/04 08:45:20.753,0.092,-0.096,-1.012
2026/06/04 08:45:20.773,0.089,-0.096,-1.007
2026/06/04 08:45:20.794,0.094,-0.098,-1.007
2026/06/04 08:45:20.814,0.089,-0.097,-1.012
2026/06/04 08:45:20.835,0.093,-0.096,-1.011
2026/06/04 08:45:20.855,0.087,-0.099,-1.007
2026/06/04 08:45:20.875,0.094,-0.094,-1.009
2026/06/04 08:45:20.896,0.089,-0.092,-1.008
2026/06/04 08:45:20.916,0.088,-0.09,-1.01
2026/06/04 08:45:20.937,0.092,-0.092,-1.012
2026/06/04 08:45:20.957,0.088,-0.093,-1.005
2026/06/04 08:45:20.977,0.087,-0.097,-1.007
2026/06/04 08:45:20.998,0.088,-0.097,-1.011
2026/06/04 08:45:21.018,0.09,-0.096,-1.014
2026/06/04 08:45:21.039,0.091,-0.1,-1.017
2026/06/04 08:45:21.059,0.09,-0.102,-1.012
2026/06/04 08:45:21.080,0.092,-0.1,-1.013
2026/06/04 08:45:21.100,0.09,-0.096,-1.01
2026/06/04 08:45:21.120,0.084,-0.096,-1.009
2026/06/04 08:45:21.141,0.091,-0.098,-1.01
2026/06/04 08:45:21.161,0.09,-0.101,-1.006
2026/06/04 08:45:21.182,0.087,-0.097,-1.011
2026/06/04 08:45:21.202,0.092,-0.1,-1.011
2026/06/04 08:45:21.222,0.09,-0.095,-1.012
2026/06/04 08:45:21.243,0.089,-0.091,-1.01
2026/06/04 08:45:21.263,0.087,-0.091,-1.003
2026/06/04 08:45:21.284,0.089,-0.092,-1.001
2026/06/04 08:45:21.304,0.09,-0.095,-1.011
2026/06/04 08:45:21.324,0.084,-0.089,-1.009
2026/06/04 08:45:21.345,0.085,-0.093,-1.005
2026/06/04 08:45:21.365,0.088,-0.092,-1.01
2026/06/04 08:45:21.386,0.082,-0.096,-1.008
2026/06/04 08:45:21.406,0.086,-0.097,-1.003
2026/06/04 08:45:21.427,0.088,-0.097,-1.011
2026/06/04 08:45:21.447,0.093,-0.094,-1.001
2026/06/04 08:45:21.467,0.085,-0.093,-1.008
2026/06/04 08:45:21.488,0.089,-0.09,-1.005
2026/06/04 08:45:21.508,0.09,-0.087,-1.01
2026/06/04 08:45:21.529,0.087,-0.088,-1.005
2026/06/04 08:45:21.549,0.086,-0.087,-1.003
2026/06/04 08:45:21.569,0.089,-0.088,-1.012
2026/06/04 08:45:21.590,0.087,-0.092,-1.012
2026/06/04 08:45:21.610,0.085,-0.094,-1.01
2026/06/04 08:45:21.631,0.084,-0.091,-1.005
2026/06/04 08:45:21.651,0.091,-0.096,-1.012
2026/06/04 08:45:21.672,0.09,-0.093,-1.009
2026/06/04 08:45:21.692,0.09,-0.099,-1.011
2026/06/04 08:45:21.712,0.09,-0.095,-1.009
2026/06/04 08:45:21.733,0.092,-0.096,-1.008
2026/06/04 08:45:21.753,0.091,-0.094,-1.007
2026/06/04 08:45:21.774,0.091,-0.096,-1.014
2026/06/04 08:45:21.794,0.088,-0.098,-1.007
2026/06/04 08:45:21.814,0.094,-0.097,-1.012
2026/06/04 08:45:21.835,0.087,-0.095,-1.007
2026/06/04 08:45:21.855,0.093,-0.092,-1.008
2026/06/04 08:45:21.876,0.088,-0.086,-1.003
2026/06/04 08:45:21.896,0.087,-0.088,-1.008
2026/06/04 08:45:21.916,0.091,-0.087,-1.008
2026/06/04 08:45:21.937,0.091,-0.086,-1.015
2026/06/04 08:45:21.957,0.092,-0.089,-1.012
2026/06/04 08:45:21.978,0.09,-0.092,-1.015
2026/06/04 08:45:21.998,0.094,-0.096,-1.012
2026/06/04 08:45:22.019,0.089,-0.099,-1.013
2026/06/04 08:45:22.039,0.09,-0.099,-1.007
2026/06/04 08:45:22.059,0.091,-0.096,-1.019
2026/06/04 08:45:22.080,0.09,-0.095,-1.012
2026/06/04 08:45:22.100,0.085,-0.101,-1.015
2026/06/04 08:45:22.121,0.088,-0.099,-1.008
2026/06/04 08:45:22.141,0.088,-0.101,-1.012
2026/06/04 08:45:22.161,0.088,-0.092,-1.01
2026/06/04 08:45:22.182,0.086,-0.091,-1.01
2026/06/04 08:45:22.202,0.088,-0.088,-1.0
2026/06/04 08:45:22.223,0.09,-0.094,-1.012
2026/06/04 08:45:22.243,0.087,-0.098,-1.006
2026/06/04 08:45:22.264,0.09,-0.096,-1.015
2026/06/04 08:45:22.284,0.091,-0.094,-1.01
2026/06/04 08:45:22.304,0.088,-0.096,-1.014
2026/06/04 08:45:22.325,0.09,-0.102,-1.01
2026/06/04 08:45:22.345,0.09,-0.103,-1.011
2026/06/04 08:45:22.366,0.09,-0.109,-1.014
2026/06/04 08:45:22.386,0.098,-0.104,-1.013
2026/06/04 08:45:22.406,0.093,-0.102,-1.015
2026/06/04 08:45:22.427,0.086,-0.101,-1.009
2026/06/04 08:45:22.447,0.087,-0.093,-1.01
2026/06/04 08:45:22.468,0.086,-0.092,-1.005
2026/06/04 08:45:22.488,0.083,-0.096,-1.009
2026/06/04 08:45:22.508,0.091,-0.093,-1.008
2026/06/04 08:45:22.529,0.092,-0.091,-1.005
2026/06/04 08:45:22.549,0.089,-0.092,-1.005
2026/06/04 08:45:22.570,0.085,-0.095,-1.007
2026/06/04 08:45:22.590,0.089,-0.092,-1.009
2026/06/04 08:45:22.611,0.096,-0.093,-1.012
2026/06/04 08:45:22.631,0.09,-0.095,-1.008
2026/06/04 08:45:22.651,0.092,-0.097,-1.007
2026/06/04 08:45:22.672,0.085,-0.094,-1.014
2026/06/04 08:45:22.692,0.087,-0.096,-1.003
2026/06/04 08:45:22.713,0.092,-0.096,-1.009
2026/06/04 08:45:22.733,0.088,-0.096,-1.008
2026/06/04 08:45:22.753,0.09,-0.097,-1.01
2026/06/04 08:45:22.774,0.086,-0.089,-1.003
2026/06/04 08:45:22.794,0.09,-0.089,-1.006
2026/06/04 08:45:22.815,0.083,-0.088,-1.001
2026/06/04 08:45:22.835,0.088,-0.089,-1.009
2026/06/04 08:45:22.856,0.086,-0.084,-1.008
2026/06/04 08:45:22.876,0.089,-0.089,-1.01
2026/06/04 08:45:22.896,0.089,-0.09,-1.011
2026/06/04 08:45:22.917,0.09,-0.089,-1.009
2026/06/04 08:45:22.937,0.094,-0.096,-1.01
2026/06/04 08:45:22.958,0.09,-0.093,-1.01
2026/06/04 08:45:22.978,0.088,-0.093,-1.012
2026/06/04 08:45:22.998,0.093,-0.095,-1.012
2026/06/04 08:45:23.019,0.086,-0.098,-1.01
2026/06/04 08:45:23.039,0.09,-0.094,-1.004
2026/06/04 08:45:23.060,0.093,-0.095,-1.007
2026/06/04 08:45:23.080,0.09,-0.094,-1.008
2026/06/04 08:45:23.100,0.089,-0.094,-1.01
2026/06/04 08:45:23.121,0.088,-0.095,-1.007
2026/06/04 08:45:23.141,0.086,-0.097,-1.005
2026/06/04 08:45:23.162,0.088,-0.093,-1.012
2026/06/04 08:45:23.182,0.084,-0.085,-1.006
2026/06/04 08:45:23.203,0.09,-0.086,-1.009
2026/06/04 08:45:23.223,0.091,-0.09,-1.014
2026/06/04 08:45:23.243,0.09,-0.092,-1.01
2026/06/04 08:45:23.264,0.092,-0.094,-1.013
2026/06/04 08:45:23.284,0.09,-0.101,-1.011
2026/06/04 08:45:23.305,0.093,-0.1,-1.013
2026/06/04 08:45:23.325,0.097,-0.097,-1.014
2026/06/04 08:45:23.345,0.092,-0.099,-1.011
2026/06/04 08:45:23.366,0.09,-0.097,-1.007
2026/06/04 08:45:23.386,0.089,-0.096,-1.008
2026/06/04 08:45:23.407,0.092,-0.095,-1.01
2026/06/04 08:45:23.427,0.089,-0.091,-1.004
2026/06/04 08:45:23.448,0.088,-0.096,-1.012
2026/06/04 08:45:23.468,0.095,-0.092,-1.017
2026/06/04 08:45:23.488,0.09,-0.097,-1.016
2026/06/04 08:45:23.509,0.082,-0.091,-1.002
2026/06/04 08:45:23.529,0.093,-0.095,-1.009
2026/06/04 08:45:23.550,0.089,-0.091,-1.012
2026/06/04 08:45:23.570,0.092,-0.093,-1.017
2026/06/04 08:45:23.590,0.087,-0.095,-1.009
2026/06/04 08:45:23.611,0.088,-0.105,-1.009
2026/06/04 08:45:23.631,0.091,-0.104,-1.014
2026/06/04 08:45:23.652,0.092,-0.103,-1.014
2026/06/04 08:45:23.672,0.09,-0.101,-1.008
2026/06/04 08:45:23.693,0.089,-0.101,-1.01
2026/06/04 08:45:23.713,0.086,-0.097,-1.01
2026/06/04 08:45:23.733,0.083,-0.091,-1.005
2026/06/04 08:45:23.754,0.088,-0.094,-1.005
2026/06/04 08:45:23.774,0.083,-0.096,-1.007
2026/06/04 08:45:23.795,0.087,-0.096,-1.006
2026/06/04 08:45:23.815,0.085,-0.093,-1.008
2026/06/04 08:45:23.835,0.088,-0.094,-1.009
2026/06/04 08:45:23.856,0.089,-0.094,-1.011
2026/06/04 08:45:23.876,0.088,-0.09,-1.01
2026/06/04 08:45:23.897,0.087,-0.094,-1.012
2026/06/04 08:45:23.917,0.089,-0.093,-1.007
2026/06/04 08:45:23.937,0.087,-0.094,-1.011
2026/06/04 08:45:23.958,0.09,-0.096,-1.01
2026/06/04 08:45:23.978,0.09,-0.094,-1.004
2026/06/04 08:45:23.999,0.086,-0.095,-1.007
2026/06/04 08:45:24.019,0.09,-0.097,-1.01
2026/06/04 08:45:24.040,0.089,-0.089,-1.009
2026/06/04 08:45:24.060,0.091,-0.093,-1.004
2026/06/04 08:45:24.080,0.093,-0.09,-1.012
2026/06/04 08:45:24.101,0.089,-0.087,-1.003
2026/06/04 08:45:24.121,0.089,-0.088,-1.005
2026/06/04 08:45:24.142,0.087,-0.091,-1.008
2026/06/04 08:45:24.162,0.091,-0.095,-1.012
2026/06/04 08:45:24.182,0.091,-0.098,-1.012
2026/06/04 08:45:24.203,0.091,-0.093,-1.012
2026/06/04 08:45:24.223,0.093,-0.093,-1.012
2026/06/04 08:45:24.244,0.09,-0.096,-1.007
2026/06/04 08:45:24.264,0.09,-0.097,-1.007
2026/06/04 08:45:24.285,0.09,-0.096,-1.013
2026/06/04 08:45:24.305,0.084,-0.092,-1.012
2026/06/04 08:45:24.325,0.089,-0.098,-1.012
2026/06/04 08:45:24.346,0.087,-0.093,-1.009
2026/06/04 08:45:24.366,0.082,-0.095,-1.01
2026/06/04 08:45:24.387,0.091,-0.094,-1.009
2026/06/04 08:45:24.407,0.09,-0.095,-1.01
2026/06/04 08:45:24.427,0.087,-0.091,-1.007
2026/06/04 08:45:24.448,0.087,-0.09,-1.01
2026/06/04 08:45:24.468,0.088,-0.088,-1.008
2026/06/04 08:45:24.489,0.088,-0.084,-1.004
2026/06/04 08:45:24.509,0.089,-0.085,-1.008
2026/06/04 08:45:24.530,0.092,-0.093,-1.008
2026/06/04 08:45:24.550,0.093,-0.097,-1.008
2026/06/04 08:45:24.570,0.093,-0.097,-1.014
2026/06/04 08:45:24.591,0.089,-0.098,-1.016
2026/06/04 08:45:24.611,0.088,-0.098,-1.006
2026/06/04 08:45:24.632,0.093,-0.096,-1.018
2026/06/04 08:45:24.652,0.083,-0.097,-1.011
2026/06/04 08:45:24.672,0.097,-0.096,-1.014
2026/06/04 08:45:24.693,0.087,-0.098,-1.011
2026/06/04 08:45:24.713,0.085,-0.093,-1.01
2026/06/04 08:45:24.734,0.089,-0.094,-1.012
2026/06/04 08:45:24.754,0.09,-0.092,-1.011
2026/06/04 08:45:24.775,0.09,-0.094,-1.01
2026/06/04 08:45:24.795,0.094,-0.095,-1.01
2026/06/04 08:45:24.815,0.094,-0.093,-1.011
2026/06/04 08:45:24.836,0.09,-0.095,-1.011
2026/06/04 08:45:24.856,0.091,-0.091,-1.011
2026/06/04 08:45:24.877,0.093,-0.098,-1.01
2026/06/04 08:45:24.897,0.088,-0.104,-1.011
2026/06/04 08:45:24.917,0.094,-0.108,-1.016
2026/06/04 08:45:24.938,0.087,-0.103,-1.017
2026/06/04 08:45:24.958,0.095,-0.105,-1.011
2026/06/04 08:45:24.979,0.087,-0.099,-1.018
2026/06/04 08:45:24.999,0.088,-0.1,-1.012
2026/06/04 08:45:25.020,0.09,-0.096,-1.012
2026/06/04 08:45:25.040,0.089,-0.095,-1.008
2026/06/04 08:45:25.060,0.087,-0.095,-1.008
2026/06/04 08:45:25.081,0.085,-0.092,-1.006
2026/06/04 08:45:25.101,0.09,-0.094,-1.007
2026/06/04 08:45:25.122,0.09,-0.093,-1.011
2026/06/04 08:45:25.142,0.088,-0.095,-1.013
2026/06/04 08:45:25.162,0.085,-0.093,-1.008
2026/06/04 08:45:25.183,0.088,-0.095,-1.013
2026/06/04 08:45:25.203,0.087,-0.091,-1.01
2026/06/04 08:45:25.224,0.09,-0.096,-1.005
2026/06/04 08:45:25.244,0.087,-0.093,-1.012
2026/06/04 08:45:25.264,0.091,-0.09,-1.014
2026/06/04 08:45:25.285,0.089,-0.099,-1.012
2026/06/04 08:45:25.305,0.088,-0.102,-1.008
2026/06/04 08:45:25.326,0.087,-0.1,-1.004
2026/06/04 08:45:25.346,0.09,-0.1,-1.01
2026/06/04 08:45:25.367,0.089,-0.093,-1.012
2026/06/04 08:45:25.387,0.09,-0.09,-1.007
2026/06/04 08:45:25.407,0.084,-0.087,-1.004
2026/06/04 08:45:25.428,0.079,-0.092,-1.006
2026/06/04 08:45:25.448,0.083,-0.093,-1.005
2026/06/04 08:45:25.469,0.086,-0.092,-1.007
2026/06/04 08:45:25.489,0.089,-0.092,-1.003
2026/06/04 08:45:25.509,0.091,-0.091,-1.012
2026/06/04 08:45:25.530,0.088,-0.096,-1.007
2026/06/04 08:45:25.550,0.094,-0.095,-1.009
2026/06/04 08:45:25.571,0.093,-0.093,-1.01
2026/06/04 08:45:25.591,0.09,-0.097,-1.004
2026/06/04 08:45:25.612,0.09,-0.092,-1.014
2026/06/04 08:45:25.632,0.093,-0.097,-1.013
2026/06/04 08:45:25.652,0.092,-0.097,-1.015
2026/06/04 08:45:25.673,0.089,-0.095,-1.008
2026/06/04 08:45:25.693,0.089,-0.094,-1.007
2026/06/04 08:45:25.714,0.094,-0.097,-1.011
2026/06/04 08:45:25.734,0.094,-0.091,-1.008
2026/06/04 08:45:25.754,0.093,-0.09,-1.005
2026/06/04 08:45:25.775,0.092,-0.084,-1.01
2026/06/04 08:45:25.795,0.089,-0.082,-1.009
2026/06/04 08:45:25.816,0.09,-0.085,-1.015
2026/06/04 08:45:25.836,0.09,-0.084,-1.014
2026/06/04 08:45:25.857,0.094,-0.094,-1.01
2026/06/04 08:45:25.877,0.096,-0.09,-1.014
2026/06/04 08:45:25.897,0.085,-0.095,-1.014
2026/06/04 08:45:25.918,0.088,-0.092,-1.007
2026/06/04 08:45:25.938,0.096,-0.095,-1.011
2026/06/04 08:45:25.959,0.095,-0.097,-1.014
2026/06/04 08:45:25.979,0.091,-0.097,-1.012
2026/06/04 08:45:25.999,0.091,-0.094,-1.012
2026/06/04 08:45:26.020,0.088,-0.098,-1.001
2026/06/04 08:45:26.040,0.092,-0.098,-1.007
2026/06/04 08:45:26.061,0.093,-0.095,-1.01
2026/06/04 08:45:26.081,0.093,-0.092,-1.005
2026/06/04 08:45:26.101,0.089,-0.097,-1.01
2026/06/04 08:45:26.122,0.087,-0.094,-1.005
2026/06/04 08:45:26.142,0.088,-0.093,-1.012
2026/06/04 08:45:26.163,0.087,-0.093,-1.008
2026/06/04 08:45:26.183,0.089,-0.097,-1.016
2026/06/04 08:45:26.204,0.09,-0.101,-1.011
2026/06/04 08:45:26.224,0.094,-0.105,-1.019
2026/06/04 08:45:26.244,0.094,-0.105,-1.018
2026/06/04 08:45:26.265,0.087,-0.102,-1.001
2026/06/04 08:45:26.285,0.089,-0.096,-1.006
2026/06/04 08:45:26.306,0.09,-0.095,-1.018
2026/06/04 08:45:26.326,0.088,-0.099,-1.004
2026/06/04 08:45:26.346,0.088,-0.095,-1.008
2026/06/04 08:45:26.367,0.093,-0.092,-1.012
2026/06/04 08:45:26.387,0.09,-0.093,-1.008
2026/06/04 08:45:26.408,0.09,-0.096,-1.007
2026/06/04 08:45:26.428,0.088,-0.095,-1.008
2026/06/04 08:45:26.449,0.09,-0.09,-1.015
2026/06/04 08:45:26.469,0.093,-0.096,-1.009
2026/06/04 08:45:26.489,0.087,-0.099,-1.006
2026/06/04 08:45:26.510,0.094,-0.093,-1.012
2026/06/04 08:45:26.530,0.09,-0.095,-1.014
2026/06/04 08:45:26.551,0.088,-0.091,-1.014
2026/06/04 08:45:26.571,0.089,-0.094,-1.01
2026/06/04 08:45:26.591,0.091,-0.1,-1.011
2026/06/04 08:45:26.612,0.087,-0.1,-1.014
2026/06/04 08:45:26.632,0.088,-0.095,-1.01
2026/06/04 08:45:26.653,0.084,-0.091,-1.009
2026/06/04 08:45:26.673,0.09,-0.089,-1.003
2026/06/04 08:45:26.693,0.087,-0.088,-1.003
2026/06/04 08:45:26.714,0.086,-0.091,-1.006
2026/06/04 08:45:26.734,0.092,-0.091,-1.007
2026/06/04 08:45:26.755,0.089,-0.091,-1.015
2026/06/04 08:45:26.775,0.089,-0.091,-1.013
2026/06/04 08:45:26.796,0.087,-0.092,-1.01
2026/06/04 08:45:26.816,0.092,-0.095,-1.007
2026/06/04 08:45:26.836,0.092,-0.097,-1.009
2026/06/04 08:45:26.857,0.092,-0.096,-1.01
2026/06/04 08:45:26.877,0.085,-0.096,-1.01
2026/06/04 08:45:26.898,0.094,-0.095,-1.012
2026/06/04 08:45:26.918,0.091,-0.093,-1.012
2026/06/04 08:45:26.938,0.089,-0.097,-1.011
2026/06/04 08:45:26.959,0.09,-0.094,-1.011
2026/06/04 08:45:26.979,0.087,-0.098,-1.011
2026/06/04 08:45:27.000,0.09,-0.094,-1.004
2026/06/04 08:45:27.020,0.091,-0.094,-1.007
2026/06/04 08:45:27.041,0.088,-0.093,-1.012
2026/06/04 08:45:27.061,0.091,-0.084,-1.006
2026/06/04 08:45:27.081,0.089,-0.093,-1.013
2026/06/04 08:45:27.102,0.094,-0.096,-1.007
2026/06/04 08:45:27.122,0.09,-0.097,-1.01
2026/06/04 08:45:27.143,0.088,-0.095,-1.011
2026/06/04 08:45:27.163,0.093,-0.098,-1.015
2026/06/04 08:45:27.183,0.088,-0.091,-1.011
2026/06/04 08:45:27.204,0.09,-0.091,-1.005
2026/06/04 08:45:27.224,0.089,-0.098,-1.009
2026/06/04 08:45:27.245,0.089,-0.099,-1.005
2026/06/04 08:45:27.265,0.091,-0.1,-1.008
2026/06/04 08:45:27.285,0.089,-0.102,-1.008
2026/06/04 08:45:27.306,0.089,-0.098,-1.007
2026/06/04 08:45:27.326,0.091,-0.095,-1.007
2026/06/04 08:45:27.347,0.087,-0.097,-1.005
2026/06/04 08:45:27.367,0.088,-0.093,-1.01
2026/06/04 08:45:27.388,0.091,-0.093,-1.011
2026/06/04 08:45:27.408,0.087,-0.09,-1.012
2026/06/04 08:45:27.428,0.09,-0.094,-1.005
2026/06/04 08:45:27.449,0.091,-0.096,-1.013
2026/06/04 08:45:27.469,0.095,-0.097,-1.018
2026/06/04 08:45:27.490,0.091,-0.103,-1.014
2026/06/04 08:45:27.510,0.091,-0.104,-1.011
2026/06/04 08:45:27.530,0.089,-0.102,-1.011
2026/06/04 08:45:27.551,0.09,-0.1,-1.008
2026/06/04 08:45:27.571,0.09,-0.099,-1.007
2026/06/04 08:45:27.592,0.091,-0.098,-1.014
2026/06/04 08:45:27.612,0.09,-0.094,-1.01
2026/06/04 08:45:27.632,0.088,-0.094,-1.008
2026/06/04 08:45:27.653,0.089,-0.096,-1.007
2026/06/04 08:45:27.673,0.091,-0.094,-1.008
2026/06/04 08:45:27.694,0.088,-0.095,-1.015
2026/06/04 08:45:27.714,0.088,-0.095,-1.007
2026/06/04 08:45:27.735,0.09,-0.09,-1.006
2026/06/04 08:45:27.755,0.087,-0.093,-1.011
2026/06/04 08:45:27.775,0.086,-0.096,-1.007
2026/06/04 08:45:27.796,0.091,-0.092,-1.008
2026/06/04 08:45:27.816,0.09,-0.094,-1.011
2026/06/04 08:45:27.837,0.089,-0.097,-1.01
2026/06/04 08:45:27.857,0.09,-0.101,-1.011
2026/06/04 08:45:27.877,0.09,-0.105,-1.009
2026/06/04 08:45:27.898,0.088,-0.099,-1.014
2026/06/04 08:45:27.918,0.089,-0.095,-1.01
2026/06/04 08:45:27.939,0.088,-0.096,-1.006
2026/06/04 08:45:27.959,0.09,-0.096,-1.004
2026/06/04 08:45:27.980,0.085,-0.094,-1.007
2026/06/04 08:45:28.000,0.087,-0.097,-1.009
2026/06/04 08:45:28.020,0.091,-0.097,-1.007
2026/06/04 08:45:28.041,0.089,-0.094,-1.005
2026/06/04 08:45:28.061,0.087,-0.094,-1.005
2026/06/04 08:45:28.082,0.09,-0.09,-1.005
2026/06/04 08:45:28.102,0.092,-0.089,-1.007
2026/06/04 08:45:28.122,0.085,-0.093,-1.008
2026/06/04 08:45:28.143,0.09,-0.093,-1.008
2026/06/04 08:45:28.163,0.091,-0.093,-1.011
2026/06/04 08:45:28.184,0.092,-0.098,-1.013
2026/06/04 08:45:28.204,0.088,-0.099,-1.01
2026/06/04 08:45:28.224,0.093,-0.097,-1.013
2026/06/04 08:45:28.245,0.09,-0.1,-1.014
2026/06/04 08:45:28.265,0.087,-0.096,-1.006
2026/06/04 08:45:28.286,0.089,-0.095,-1.005
2026/06/04 08:45:28.306,0.088,-0.086,-1.01
2026/06/04 08:45:28.327,0.091,-0.088,-1.009
2026/06/04 08:45:28.347,0.087,-0.086,-1.004
2026/06/04 08:45:28.367,0.093,-0.09,-1.01
2026/06/04 08:45:28.388,0.091,-0.089,-1.013
2026/06/04 08:45:28.408,0.093,-0.09,-1.01
2026/06/04 08:45:28.429,0.092,-0.093,-1.013
2026/06/04 08:45:28.449,0.09,-0.09,-1.009
2026/06/04 08:45:28.469,0.091,-0.097,-1.014
2026/06/04 08:45:28.490,0.093,-0.096,-1.007
2026/06/04 08:45:28.510,0.091,-0.1,-1.013
2026/06/04 08:45:28.531,0.091,-0.098,-1.013
2026/06/04 08:45:28.551,0.09,-0.098,-1.012
2026/06/04 08:45:28.572,0.09,-0.096,-1.013
2026/06/04 08:45:28.592,0.085,-0.095,-1.011
2026/06/04 08:45:28.612,0.091,-0.093,-1.011
2026/06/04 08:45:28.633,0.086,-0.089,-1.011
2026/06/04 08:45:28.653,0.09,-0.097,-1.013
2026/06/04 08:45:28.674,0.081,-0.096,-1.003
2026/06/04 08:45:28.694,0.09,-0.091,-1.003
2026/06/04 08:45:28.714,0.086,-0.093,-1.007
2026/06/04 08:45:28.735,0.087,-0.097,-1.004
2026/06/04 08:45:28.755,0.09,-0.095,-1.011
2026/06/04 08:45:28.776,0.09,-0.093,-1.013
2026/06/04 08:45:28.796,0.084,-0.096,-1.003
2026/06/04 08:45:28.817,0.085,-0.097,-1.003
2026/06/04 08:45:28.837,0.09,-0.095,-1.012
2026/06/04 08:45:28.857,0.09,-0.088,-1.015
2026/06/04 08:45:28.878,0.086,-0.096,-1.008
2026/06/04 08:45:28.898,0.087,-0.098,-1.004
2026/06/04 08:45:28.919,0.093,-0.094,-1.014
2026/06/04 08:45:28.939,0.089,-0.096,-1.013
2026/06/04 08:45:28.959,0.09,-0.096,-1.01
2026/06/04 08:45:28.980,0.091,-0.096,-1.009
2026/06/04 08:45:29.000,0.089,-0.096,-1.005
2026/06/04 08:45:29.021,0.092,-0.1,-1.006
2026/06/04 08:45:29.041,0.097,-0.095,-1.013
2026/06/04 08:45:29.062,0.089,-0.093,-1.005
2026/06/04 08:45:29.082,0.089,-0.091,-1.013
2026/06/04 08:45:29.102,0.088,-0.095,-1.011
2026/06/04 08:45:29.123,0.09,-0.094,-1.01
2026/06/04 08:45:29.143,0.094,-0.093,-1.011
2026/06/04 08:45:29.164,0.088,-0.089,-1.018
2026/06/04 08:45:29.184,0.09,-0.09,-1.01
2026/06/04 08:45:29.204,0.088,-0.094,-1.013
2026/06/04 08:45:29.225,0.087,-0.096,-1.005
2026/06/04 08:45:29.245,0.094,-0.097,-1.015
2026/06/04 08:45:29.266,0.09,-0.093,-1.01
2026/06/04 08:45:29.286,0.088,-0.097,-1.006
2026/06/04 08:45:29.306,0.09,-0.099,-1.012
2026/06/04 08:45:29.327,0.091,-0.092,-1.013
2026/06/04 08:45:29.347,0.091,-0.096,-1.01
2026/06/04 08:45:29.368,0.087,-0.096,-1.01
2026/06/04 08:45:29.388,0.093,-0.097,-1.007
2026/06/04 08:45:29.409,0.091,-0.09,-1.013
2026/06/04 08:45:29.429,0.091,-0.093,-1.007
2026/06/04 08:45:29.449,0.091,-0.095,-1.006
2026/06/04 08:45:29.470,0.088,-0.091,-1.009
2026/06/04 08:45:29.490,0.087,-0.096,-1.009
2026/06/04 08:45:29.511,0.085,-0.097,-1.014
2026/06/04 08:45:29.531,0.085,-0.098,-1.007
2026/06/04 08:45:29.551,0.087,-0.092,-1.011
2026/06/04 08:45:29.572,0.09,-0.095,-1.011
2026/06/04 08:45:29.592,0.088,-0.098,-1.011
2026/06/04 08:45:29.613,0.091,-0.097,-1.008
2026/06/04 08:45:29.633,0.087,-0.097,-1.012
2026/06/04 08:45:29.654,0.092,-0.093,-1.01
2026/06/04 08:45:29.674,0.09,-0.094,-1.011
2026/06/04 08:45:29.694,0.087,-0.097,-1.007
2026/06/04 08:45:29.715,0.088,-0.094,-1.008
2026/06/04 08:45:29.735,0.089,-0.094,-1.014
2026/06/04 08:45:29.756,0.091,-0.094,-1.008
2026/06/04 08:45:29.776,0.084,-0.095,-1.008
2026/06/04 08:45:29.796,0.093,-0.088,-1.016
2026/06/04 08:45:29.817,0.092,-0.093,-1.016
2026/06/04 08:45:29.837,0.089,-0.097,-1.012
2026/06/04 08:45:29.858,0.087,-0.098,-1.011
2026/06/04 08:45:29.878,0.098,-0.096,-1.022
2026/06/04 08:45:29.899,0.09,-0.097,-1.008
2026/06/04 08:45:29.919,0.089,-0.095,-1.008
2026/06/04 08:45:29.939,0.082,-0.093,-1.0
2026/06/04 08:45:29.960,0.09,-0.094,-1.015
2026/06/04 08:45:29.980,0.089,-0.099,-1.014
2026/06/04 08:45:30.001,0.092,-0.094,-1.005
2026/06/04 08:45:30.021,0.095,-0.096,-1.008
2026/06/04 08:45:30.041,0.092,-0.096,-1.016
2026/06/04 08:45:30.062,0.095,-0.093,-1.013
2026/06/04 08:45:30.082,0.082,-0.091,-0.998
2026/06/04 08:45:30.103,0.088,-0.099,-1.011
2026/06/04 08:45:30.123,0.098,-0.092,-1.014
2026/06/04 08:45:30.144,0.096,-0.088,-1.012
2026/06/04 08:45:30.164,0.085,-0.095,-1.003
2026/06/04 08:45:30.184,0.093,-0.097,-1.01
2026/06/04 08:45:30.205,0.095,-0.097,-1.017
2026/06/04 08:45:30.225,0.089,-0.094,-1.006
2026/06/04 08:45:30.246,0.095,-0.097,-1.004
2026/06/04 08:45:30.266,0.089,-0.098,-1.01
2026/06/04 08:45:30.286,0.097,-0.096,-1.013
2026/06/04 08:45:30.307,0.091,-0.091,-1.01
2026/06/04 08:45:30.327,0.087,-0.096,-1.006
2026/06/04 08:45:30.348,0.084,-0.093,-1.012
2026/06/04 08:45:30.368,0.086,-0.09,-1.004
2026/06/04 08:45:30.389,0.088,-0.095,-1.005
2026/06/04 08:45:30.409,0.086,-0.097,-1.009
2026/06/04 08:45:30.429,0.089,-0.099,-1.007
2026/06/04 08:45:30.450,0.086,-0.103,-1.005
2026/06/04 08:45:30.470,0.093,-0.098,-1.011
2026/06/04 08:45:30.491,0.09,-0.097,-1.013
2026/06/04 08:45:30.511,0.086,-0.094,-1.007
2026/06/04 08:45:30.531,0.086,-0.091,-1.008
2026/06/04 08:45:30.552,0.083,-0.093,-1.009
2026/06/04 08:45:30.572,0.083,-0.091,-1.011
2026/06/04 08:45:30.593,0.082,-0.093,-1.006
2026/06/04 08:45:30.613,0.089,-0.096,-1.01
2026/06/04 08:45:30.634,0.089,-0.093,-1.012
2026/06/04 08:45:30.654,0.092,-0.092,-1.007
2026/06/04 08:45:30.674,0.088,-0.094,-1.007
2026/06/04 08:45:30.695,0.09,-0.094,-1.006
2026/06/04 08:45:30.715,0.084,-0.092,-1.01
2026/06/04 08:45:30.736,0.086,-0.097,-1.004
2026/06/04 08:45:30.756,0.09,-0.093,-1.014
2026/06/04 08:45:30.776,0.092,-0.096,-1.01
2026/06/04 08:45:30.797,0.092,-0.098,-1.007
2026/06/04 08:45:30.817,0.087,-0.095,-1.002
2026/06/04 08:45:30.838,0.09,-0.101,-1.018
2026/06/04 08:45:30.858,0.086,-0.092,-1.011
2026/06/04 08:45:30.878,0.09,-0.096,-1.011
2026/06/04 08:45:30.899,0.09,-0.093,-1.01
2026/06/04 08:45:30.919,0.084,-0.089,-1.007
2026/06/04 08:45:30.940,0.087,-0.09,-1.003
2026/06/04 08:45:30.960,0.089,-0.091,-1.007
2026/06/04 08:45:30.981,0.092,-0.091,-1.011
2026/06/04 08:45:31.001,0.091,-0.094,-1.003
2026/06/04 08:45:31.021,0.091,-0.095,-1.012
2026/06/04 08:45:31.042,0.091,-0.1,-1.012
2026/06/04 08:45:31.062,0.086,-0.093,-1.013
2026/06/04 08:45:31.083,0.085,-0.096,-1.011
2026/06/04 08:45:31.103,0.093,-0.091,-1.009
2026/06/04 08:45:31.123,0.094,-0.096,-1.01
2026/06/04 08:45:31.144,0.091,-0.098,-1.009
2026/06/04 08:45:31.164,0.089,-0.094,-1.011
2026/06/04 08:45:31.185,0.089,-0.095,-1.008
2026/06/04 08:45:31.205,0.09,-0.088,-1.012
2026/06/04 08:45:31.226,0.09,-0.094,-1.005
2026/06/04 08:45:31.246,0.092,-0.096,-1.012
2026/06/04 08:45:31.266,0.097,-0.09,-1.013
2026/06/04 08:45:31.287,0.092,-0.088,-1.009
2026/06/04 08:45:31.307,0.096,-0.086,-1.012
2026/06/04 08:45:31.328,0.094,-0.088,-1.01
2026/06/04 08:45:31.348,0.087,-0.094,-1.009
2026/06/04 08:45:31.368,0.094,-0.099,-1.012
2026/06/04 08:45:31.389,0.095,-0.097,-1.012
2026/06/04 08:45:31.409,0.09,-0.099,-1.011
2026/06/04 08:45:31.430,0.09,-0.096,-1.003
2026/06/04 08:45:31.450,0.09,-0.106,-1.017
2026/06/04 08:45:31.471,0.096,-0.1,-1.015
2026/06/04 08:45:31.491,0.09,-0.1,-1.008
2026/06/04 08:45:31.511,0.09,-0.097,-1.014
2026/06/04 08:45:31.532,0.085,-0.095,-1.009
2026/06/04 08:45:31.552,0.092,-0.097,-1.008
2026/06/04 08:45:31.573,0.089,-0.094,-1.015
2026/06/04 08:45:31.593,0.092,-0.097,-1.01
2026/06/04 08:45:31.613,0.091,-0.095,-1.004
2026/06/04 08:45:31.634,0.084,-0.095,-1.011
2026/06/04 08:45:31.654,0.087,-0.096,-1.011
2026/06/04 08:45:31.675,0.089,-0.092,-1.009
2026/06/04 08:45:31.695,0.092,-0.094,-1.014
2026/06/04 08:45:31.716,0.09,-0.093,-1.007
2026/06/04 08:45:31.736,0.09,-0.091,-1.014
2026/06/04 08:45:31.756,0.089,-0.105,-1.009
2026/06/04 08:45:31.777,0.087,-0.107,-1.012
2026/06/04 08:45:31.797,0.09,-0.099,-1.011
2026/06/04 08:45:31.818,0.089,-0.103,-1.005
2026/06/04 08:45:31.838,0.087,-0.098,-1.007
2026/06/04 08:45:31.858,0.088,-0.096,-1.011
2026/06/04 08:45:31.879,0.09,-0.094,-1.009
2026/06/04 08:45:31.899,0.088,-0.094,-1.007
2026/06/04 08:45:31.920,0.088,-0.095,-1.011
2026/06/04 08:45:31.940,0.09,-0.091,-1.01
2026/06/04 08:45:31.961,0.086,-0.091,-1.01
2026/06/04 08:45:31.981,0.088,-0.096,-1.004
2026/06/04 08:45:32.001,0.085,-0.094,-1.005
2026/06/04 08:45:32.022,0.089,-0.093,-1.013
2026/06/04 08:45:32.042,0.086,-0.097,-1.003
2026/06/04 08:45:32.063,0.089,-0.095,-1.012
2026/06/04 08:45:32.083,0.091,-0.096,-1.008
2026/06/04 08:45:32.103,0.093,-0.094,-1.009
2026/06/04 08:45:32.124,0.089,-0.095,-1.009
2026/06/04 08:45:32.144,0.093,-0.101,-1.008
2026/06/04 08:45:32.165,0.092,-0.095,-1.014
2026/06/04 08:45:32.185,0.092,-0.091,-1.01
2026/06/04 08:45:32.206,0.089,-0.09,-1.009
2026/06/04 08:45:32.226,0.085,-0.086,-1.009
2026/06/04 08:45:32.246,0.087,-0.087,-1.008
2026/06/04 08:45:32.267,0.086,-0.089,-1.01
2026/06/04 08:45:32.287,0.091,-0.096,-1.011
2026/06/04 08:45:32.308,0.092,-0.094,-1.011
2026/06/04 08:45:32.328,0.092,-0.096,-1.015
2026/06/04 08:45:32.348,0.094,-0.093,-1.009
2026/06/04 08:45:32.369,0.09,-0.092,-1.015
2026/06/04 08:45:32.389,0.087,-0.096,-1.006
2026/06/04 08:45:32.410,0.088,-0.099,-1.008
2026/06/04 08:45:32.430,0.088,-0.097,-1.014
2026/06/04 08:45:32.450,0.089,-0.096,-1.013
2026/06/04 08:45:32.471,0.091,-0.093,-1.008
2026/06/04 08:45:32.491,0.088,-0.093,-1.012
2026/06/04 08:45:32.512,0.089,-0.094,-1.013
2026/06/04 08:45:32.532,0.088,-0.095,-1.005
2026/06/04 08:45:32.553,0.09,-0.093,-1.01
2026/06/04 08:45:32.573,0.091,-0.095,-1.012
2026/06/04 08:45:32.593,0.094,-0.096,-1.013
2026/06/04 08:45:32.614,0.092,-0.097,-1.014
2026/06/04 08:45:32.634,0.091,-0.104,-1.015
2026/06/04 08:45:32.655,0.092,-0.104,-1.012
2026/06/04 08:45:32.675,0.09,-0.103,-1.009
2026/06/04 08:45:32.695,0.086,-0.099,-1.009
2026/06/04 08:45:32.716,0.087,-0.097,-1.01
2026/06/04 08:45:32.736,0.092,-0.094,-1.007
2026/06/04 08:45:32.757,0.086,-0.097,-1.008
2026/06/04 08:45:32.777,0.089,-0.096,-1.006
2026/06/04 08:45:32.798,0.09,-0.094,-1.012
2026/06/04 08:45:32.818,0.088,-0.099,-1.009
2026/06/04 08:45:32.838,0.09,-0.093,-1.012
2026/06/04 08:45:32.859,0.087,-0.093,-1.011
2026/06/04 08:45:32.879,0.092,-0.093,-1.014
2026/06/04 08:45:32.900,0.089,-0.096,-1.01
2026/06/04 08:45:32.920,0.092,-0.097,-1.009
2026/06/04 08:45:32.940,0.086,-0.092,-1.015
2026/06/04 08:45:32.961,0.088,-0.094,-1.005
2026/06/04 08:45:32.981,0.087,-0.095,-1.004
2026/06/04 08:45:33.002,0.09,-0.093,-1.008
2026/06/04 08:45:33.022,0.09,-0.095,-1.017
2026/06/04 08:45:33.043,0.09,-0.095,-1.009
2026/06/04 08:45:33.063,0.088,-0.097,-1.003
2026/06/04 08:45:33.083,0.088,-0.093,-1.012
2026/06/04 08:45:33.104,0.086,-0.094,-1.015
2026/06/04 08:45:33.124,0.087,-0.091,-1.006
2026/06/04 08:45:33.145,0.09,-0.095,-1.01
2026/06/04 08:45:33.165,0.09,-0.095,-1.004
2026/06/04 08:45:33.185,0.089,-0.093,-1.007
2026/06/04 08:45:33.206,0.088,-0.093,-1.007
2026/06/04 08:45:33.226,0.088,-0.093,-1.008
2026/06/04 08:45:33.247,0.093,-0.094,-1.01
2026/06/04 08:45:33.267,0.089,-0.099,-1.009
2026/06/04 08:45:33.288,0.091,-0.095,-1.006
