Timestamp,ACC X,ACC Y,ACC Z
2026/06/04 08:42:49.369,0.093,0.044,-0.959
2026/06/04 08:42:49.388,0.045,0.048,-0.988
2026/06/04 08:42:49.407,0.018,0.017,-1.027
2026/06/04 08:42:49.426,0.045,0.001,-1.013
2026/06/04 08:42:49.446,0.061,-0.033,-0.996
2026/06/04 08:42:49.465,0.103,-0.012,-1.007
2026/06/04 08:42:49.484,0.043,-0.017,-0.965
2026/06/04 08:42:49.503,0.024,-0.028,-1.018
2026/06/04 08:42:49.522,0.069,-0.009,-0.986
2026/06/04 08:42:49.542,0.077,-0.013,-1.003
2026/06/04 08:42:49.561,0.042,-0.02,-1.0
2026/06/04 08:42:49.580,0.047,-0.02,-0.995
2026/06/04 08:42:49.599,0.056,-0.014,-0.998
2026/06/04 08:42:49.619,0.056,-0.011,-0.995
2026/06/04 08:42:49.638,0.07,-0.016,-1.012
2026/06/04 08:42:49.657,0.056,-0.015,-0.996
2026/06/04 08:42:49.676,0.043,-0.02,-0.997
2026/06/04 08:42:49.696,0.06,-0.021,-0.995
2026/06/04 08:42:49.715,0.062,-0.016,-1.011
2026/06/04 08:42:49.734,0.061,-0.015,-1.011
2026/06/04 08:42:49.753,0.062,-0.016,-1.009
2026/06/04 08:42:49.772,0.05,-0.017,-0.999
2026/06/04 08:42:49.792,0.059,-0.016,-1.002
2026/06/04 08:42:49.811,0.062,-0.018,-0.999
2026/06/04 08:42:49.830,0.062,-0.015,-1.01
2026/06/04 08:42:49.849,0.061,-0.021,-1.002
2026/06/04 08:42:49.869,0.052,-0.015,-0.991
2026/06/04 08:42:49.888,0.057,-0.021,-0.993
2026/06/04 08:42:49.907,0.06,-0.022,-0.995
2026/06/04 08:42:49.926,0.053,-0.012,-1.001
2026/06/04 08:42:49.946,0.049,-0.015,-0.998
2026/06/04 08:42:49.965,0.058,-0.014,-1.002
2026/06/04 08:42:49.984,0.054,-0.018,-1.0
2026/06/04 08:42:50.003,0.056,-0.018,-0.991
2026/06/04 08:42:50.022,0.058,-0.016,-1.004
2026/06/04 08:42:50.042,0.055,-0.017,-1.006
2026/06/04 08:42:50.061,0.063,-0.019,-0.992
2026/06/04 08:42:50.080,0.056,-0.018,-0.996
2026/06/04 08:42:50.099,0.059,-0.018,-1.003
2026/06/04 08:42:50.119,0.056,-0.013,-1.011
2026/06/04 08:42:50.138,0.055,-0.018,-1.003
2026/06/04 08:42:50.157,0.065,-0.019,-1.004
2026/06/04 08:42:50.176,0.058,-0.016,-0.996
2026/06/04 08:42:50.196,0.052,-0.015,-0.998
2026/06/04 08:42:50.215,0.055,-0.015,-1.004
2026/06/04 08:42:50.234,0.057,-0.017,-1.016
2026/06/04 08:42:50.253,0.059,-0.015,-1.004
2026/06/04 08:42:50.272,0.061,-0.02,-0.994
2026/06/04 08:42:50.292,0.062,-0.019,-1.011
2026/06/04 08:42:50.311,0.058,-0.022,-1.012
2026/06/04 08:42:50.330,0.062,-0.019,-1.01
2026/06/04 08:42:50.349,0.055,-0.02,-0.997
2026/06/04 08:42:50.369,0.06,-0.021,-0.995
2026/06/04 08:42:50.388,0.058,-0.013,-0.997
2026/06/04 08:42:50.407,0.059,-0.02,-1.0
2026/06/04 08:42:50.426,0.057,-0.019,-0.996
2026/06/04 08:42:50.446,0.054,-0.018,-1.003
2026/06/04 08:42:50.465,0.055,-0.015,-0.994
2026/06/04 08:42:50.484,0.059,-0.019,-1.0
2026/06/04 08:42:50.503,0.057,-0.016,-1.0
2026/06/04 08:42:50.522,0.055,-0.019,-1.006
2026/06/04 08:42:50.542,0.058,-0.015,-1.001
2026/06/04 08:42:50.561,0.055,-0.016,-1.002
2026/06/04 08:42:50.580,0.057,-0.019,-1.006
2026/06/04 08:42:50.599,0.059,-0.014,-1.0
2026/06/04 08:42:50.619,0.06,-0.017,-1.005
2026/06/04 08:42:50.638,0.063,-0.015,-0.996
2026/06/04 08:42:50.657,0.057,-0.019,-1.006
2026/06/04 08:42:50.676,0.054,-0.017,-0.998
2026/06/04 08:42:50.696,0.062,-0.021,-1.002
2026/06/04 08:42:50.715,0.06,-0.019,-1.0
2026/06/04 08:42:50.734,0.058,-0.018,-1.004
2026/06/04 08:42:50.753,0.061,-0.019,-1.003
2026/06/04 08:42:50.772,0.058,-0.018,-1.002
2026/06/04 08:42:50.792,0.065,-0.016,-1.009
2026/06/04 08:42:50.811,0.064,-0.014,-1.007
2026/06/04 08:42:50.830,0.061,-0.019,-1.005
2026/06/04 08:42:50.849,0.061,-0.017,-0.998
2026/06/04 08:42:50.869,0.057,-0.018,-0.997
2026/06/04 08:42:50.888,0.061,-0.025,-1.005
2026/06/04 08:42:50.907,0.056,-0.011,-0.994
2026/06/04 08:42:50.926,0.06,-0.022,-1.009
2026/06/04 08:42:50.946,0.058,-0.02,-0.989
2026/06/04 08:42:50.965,0.063,-0.016,-1.009
2026/06/04 08:42:50.984,0.058,-0.014,-1.0
2026/06/04 08:42:51.003,0.06,-0.016,-1.004
2026/06/04 08:42:51.022,0.057,-0.014,-0.997
2026/06/04 08:42:51.042,0.061,-0.019,-1.005
2026/06/04 08:42:51.061,0.061,-0.018,-1.001
2026/06/04 08:42:51.080,0.06,-0.018,-1.002
2026/06/04 08:42:51.099,0.06,-0.015,-1.005
2026/06/04 08:42:51.119,0.059,-0.017,-0.999
2026/06/04 08:42:51.138,0.06,-0.013,-1.012
2026/06/04 08:42:51.157,0.059,-0.016,-1.01
2026/06/04 08:42:51.176,0.063,-0.018,-1.01
2026/06/04 08:42:51.196,0.066,-0.026,-1.018
2026/06/04 08:42:51.215,0.064,-0.019,-1.012
2026/06/04 08:42:51.234,0.061,-0.018,-1.006
2026/06/04 08:42:51.253,0.064,-0.017,-1.013
2026/06/04 08:42:51.272,0.062,-0.023,-1.006
2026/06/04 08:42:51.292,0.059,-0.015,-1.006
2026/06/04 08:42:51.311,0.058,-0.017,-1.007
2026/06/04 08:42:51.330,0.06,-0.015,-1.0
2026/06/04 08:42:51.349,0.061,-0.019,-1.002
2026/06/04 08:42:51.369,0.057,-0.016,-1.003
2026/06/04 08:42:51.388,0.058,-0.019,-1.0
2026/06/04 08:42:51.407,0.057,-0.02,-0.999
2026/06/04 08:42:51.426,0.058,-0.019,-0.992
2026/06/04 08:42:51.446,0.06,-0.016,-1.003
2026/06/04 08:42:51.465,0.058,-0.013,-0.996
2026/06/04 08:42:51.484,0.055,-0.018,-1.007
2026/06/04 08:42:51.503,0.057,-0.019,-1.0
2026/06/04 08:42:51.522,0.055,-0.023,-0.991
2026/06/04 08:42:51.541,0.063,-0.012,-1.001
2026/06/04 08:42:51.561,0.061,-0.019,-1.01
2026/06/04 08:42:51.580,0.061,-0.021,-1.009
2026/06/04 08:42:51.599,0.065,-0.017,-1.007
2026/06/04 08:42:51.618,0.067,-0.023,-1.009
2026/06/04 08:42:51.637,0.065,-0.019,-1.006
2026/06/04 08:42:51.656,0.063,-0.016,-0.997
2026/06/04 08:42:51.676,0.062,-0.017,-1.001
2026/06/04 08:42:51.695,0.064,-0.016,-0.999
2026/06/04 08:42:51.714,0.058,-0.022,-1.003
2026/06/04 08:42:51.733,0.061,-0.019,-1.006
2026/06/04 08:42:51.752,0.061,-0.019,-1.004
2026/06/04 08:42:51.771,0.057,-0.016,-1.005
2026/06/04 08:42:51.790,0.059,-0.016,-0.998
2026/06/04 08:42:51.810,0.059,-0.019,-1.003
2026/06/04 08:42:51.829,0.057,-0.015,-0.997
2026/06/04 08:42:51.848,0.058,-0.015,-1.004
2026/06/04 08:42:51.867,0.059,-0.02,-0.998
2026/06/04 08:42:51.886,0.057,-0.017,-0.997
2026/06/04 08:42:51.905,0.059,-0.015,-0.994
2026/06/04 08:42:51.925,0.058,-0.016,-1.003
2026/06/04 08:42:51.944,0.058,-0.017,-0.999
2026/06/04 08:42:51.963,0.06,-0.015,-0.994
2026/06/04 08:42:51.982,0.055,-0.013,-1.002
2026/06/04 08:42:52.001,0.06,-0.02,-1.017
2026/06/04 08:42:52.020,0.06,-0.016,-1.009
2026/06/04 08:42:52.040,0.064,-0.018,-1.01
2026/06/04 08:42:52.059,0.063,-0.021,-1.008
2026/06/04 08:42:52.078,0.063,-0.018,-1.011
2026/06/04 08:42:52.097,0.063,-0.016,-1.006
2026/06/04 08:42:52.116,0.063,-0.018,-1.01
2026/06/04 08:42:52.135,0.062,-0.018,-1.002
2026/06/04 08:42:52.155,0.061,-0.024,-0.999
2026/06/04 08:42:52.174,0.061,-0.016,-1.001
2026/06/04 08:42:52.193,0.06,-0.019,-1.004
2026/06/04 08:42:52.212,0.056,-0.016,-1.002
2026/06/04 08:42:52.231,0.057,-0.019,-1.004
2026/06/04 08:42:52.250,0.058,-0.019,-0.999
2026/06/04 08:42:52.270,0.057,-0.018,-1.005
2026/06/04 08:42:52.289,0.056,-0.016,-0.999
2026/06/04 08:42:52.308,0.058,-0.017,-1.0
2026/06/04 08:42:52.327,0.058,-0.02,-1.0
2026/06/04 08:42:52.346,0.059,-0.012,-1.0
2026/06/04 08:42:52.365,0.055,-0.014,-1.002
2026/06/04 08:42:52.384,0.061,-0.016,-0.999
2026/06/04 08:42:52.404,0.059,-0.017,-0.997
2026/06/04 08:42:52.423,0.056,-0.018,-1.005
2026/06/04 08:42:52.442,0.062,-0.016,-1.014
2026/06/04 08:42:52.461,0.063,-0.015,-1.005
2026/06/04 08:42:52.480,0.06,-0.019,-1.005
2026/06/04 08:42:52.499,0.064,-0.021,-1.008
2026/06/04 08:42:52.519,0.062,-0.018,-1.004
2026/06/04 08:42:52.538,0.063,-0.021,-1.001
2026/06/04 08:42:52.557,0.062,-0.019,-1.007
2026/06/04 08:42:52.576,0.063,-0.02,-1.004
2026/06/04 08:42:52.595,0.06,-0.017,-0.992
2026/06/04 08:42:52.614,0.056,-0.021,-0.996
2026/06/04 08:42:52.634,0.062,-0.019,-1.013
2026/06/04 08:42:52.653,0.061,-0.015,-1.001
2026/06/04 08:42:52.672,0.063,-0.017,-0.998
2026/06/04 08:42:52.691,0.057,-0.02,-1.008
2026/06/04 08:42:52.710,0.057,-0.018,-1.002
2026/06/04 08:42:52.729,0.059,-0.018,-1.001
2026/06/04 08:42:52.749,0.059,-0.017,-0.994
2026/06/04 08:42:52.768,0.055,-0.015,-1.003
2026/06/04 08:42:52.787,0.059,-0.016,-0.999
2026/06/04 08:42:52.806,0.056,-0.017,-1.0
2026/06/04 08:42:52.825,0.053,-0.014,-0.996
2026/06/04 08:42:52.844,0.06,-0.015,-1.006
2026/06/04 08:42:52.864,0.059,-0.018,-1.002
2026/06/04 08:42:52.883,0.057,-0.018,-0.996
2026/06/04 08:42:52.902,0.055,-0.02,-0.995
2026/06/04 08:42:52.921,0.054,-0.016,-0.999
2026/06/04 08:42:52.940,0.054,-0.016,-1.0
2026/06/04 08:42:52.959,0.055,-0.019,-1.001
2026/06/04 08:42:52.978,0.06,-0.018,-1.0
2026/06/04 08:42:52.998,0.056,-0.018,-1.0
2026/06/04 08:42:53.017,0.058,-0.019,-0.992
2026/06/04 08:42:53.036,0.057,-0.016,-0.996
2026/06/04 08:42:53.055,0.06,-0.017,-1.002
2026/06/04 08:42:53.074,0.061,-0.019,-1.005
2026/06/04 08:42:53.093,0.055,-0.02,-1.004
2026/06/04 08:42:53.113,0.059,-0.013,-1.007
2026/06/04 08:42:53.132,0.061,-0.017,-1.004
2026/06/04 08:42:53.151,0.059,-0.02,-1.007
2026/06/04 08:42:53.170,0.055,-0.012,-0.999
2026/06/04 08:42:53.189,0.057,-0.017,-1.004
2026/06/04 08:42:53.208,0.059,-0.017,-0.995
2026/06/04 08:42:53.228,0.056,-0.016,-1.003
2026/06/04 08:42:53.247,0.058,-0.015,-0.999
2026/06/04 08:42:53.266,0.056,-0.018,-0.996
2026/06/04 08:42:53.285,0.06,-0.019,-1.002
2026/06/04 08:42:53.304,0.06,-0.021,-1.014
2026/06/04 08:42:53.323,0.062,-0.017,-1.014
2026/06/04 08:42:53.343,0.063,-0.021,-1.008
2026/06/04 08:42:53.362,0.061,-0.021,-1.003
2026/06/04 08:42:53.381,0.063,-0.018,-0.999
2026/06/04 08:42:53.400,0.055,-0.017,-1.0
2026/06/04 08:42:53.419,0.06,-0.019,-1.003
2026/06/04 08:42:53.438,0.063,-0.016,-1.005
2026/06/04 08:42:53.458,0.061,-0.017,-1.0
2026/06/04 08:42:53.477,0.059,-0.015,-0.992
2026/06/04 08:42:53.496,0.055,-0.017,-0.999
2026/06/04 08:42:53.515,0.058,-0.015,-1.009
2026/06/04 08:42:53.534,0.057,-0.015,-1.001
2026/06/04 08:42:53.553,0.061,-0.017,-0.997
2026/06/04 08:42:53.572,0.059,-0.016,-0.994
2026/06/04 08:42:53.592,0.054,-0.019,-1.0
2026/06/04 08:42:53.611,0.061,-0.014,-1.006
2026/06/04 08:42:53.630,0.06,-0.02,-1.008
2026/06/04 08:42:53.649,0.058,-0.014,-0.998
2026/06/04 08:42:53.668,0.058,-0.015,-0.993
2026/06/04 08:42:53.687,0.06,-0.014,-1.005
2026/06/04 08:42:53.707,0.06,-0.019,-1.012
2026/06/04 08:42:53.726,0.055,-0.018,-1.004
2026/06/04 08:42:53.745,0.058,-0.012,-1.002
2026/06/04 08:42:53.764,0.064,-0.015,-1.006
2026/06/04 08:42:53.783,0.062,-0.018,-1.007
2026/06/04 08:42:53.802,0.063,-0.016,-1.006
2026/06/04 08:42:53.822,0.059,-0.017,-1.004
2026/06/04 08:42:53.841,0.058,-0.015,-1.003
2026/06/04 08:42:53.860,0.06,-0.016,-1.004
2026/06/04 08:42:53.879,0.061,-0.014,-1.0
2026/06/04 08:42:53.898,0.061,-0.015,-1.005
2026/06/04 08:42:53.917,0.059,-0.015,-1.004
2026/06/04 08:42:53.937,0.059,-0.015,-0.998
2026/06/04 08:42:53.956,0.056,-0.017,-0.998
2026/06/04 08:42:53.975,0.057,-0.021,-0.998
2026/06/04 08:42:53.994,0.059,-0.015,-0.997
2026/06/04 08:42:54.013,0.058,-0.015,-0.998
2026/06/04 08:42:54.032,0.057,-0.015,-0.999
2026/06/04 08:42:54.051,0.054,-0.016,-0.999
2026/06/04 08:42:54.071,0.059,-0.014,-0.995
2026/06/04 08:42:54.090,0.055,-0.015,-0.996
2026/06/04 08:42:54.109,0.058,-0.015,-1.007
2026/06/04 08:42:54.128,0.063,-0.016,-1.006
2026/06/04 08:42:54.147,0.062,-0.02,-1.007
2026/06/04 08:42:54.166,0.062,-0.014,-1.009
2026/06/04 08:42:54.186,0.064,-0.019,-1.009
2026/06/04 08:42:54.205,0.064,-0.017,-1.005
2026/06/04 08:42:54.224,0.064,-0.02,-1.006
2026/06/04 08:42:54.243,0.063,-0.018,-1.007
2026/06/04 08:42:54.262,0.063,-0.014,-1.001
2026/06/04 08:42:54.281,0.06,-0.018,-0.995
2026/06/04 08:42:54.301,0.057,-0.019,-1.002
2026/06/04 08:42:54.320,0.057,-0.017,-0.997
2026/06/04 08:42:54.339,0.057,-0.02,-1.004
2026/06/04 08:42:54.358,0.053,-0.015,-1.0
2026/06/04 08:42:54.377,0.054,-0.015,-0.999
2026/06/04 08:42:54.396,0.057,-0.013,-1.002
2026/06/04 08:42:54.416,0.054,-0.019,-0.999
2026/06/04 08:42:54.435,0.059,-0.017,-0.997
2026/06/04 08:42:54.454,0.056,-0.016,-1.002
2026/06/04 08:42:54.473,0.06,-0.015,-0.999
2026/06/04 08:42:54.492,0.057,-0.015,-1.008
2026/06/04 08:42:54.511,0.059,-0.019,-1.008
2026/06/04 08:42:54.530,0.056,-0.017,-0.995
2026/06/04 08:42:54.550,0.059,-0.015,-1.004
2026/06/04 08:42:54.569,0.059,-0.025,-1.013
2026/06/04 08:42:54.588,0.063,-0.015,-1.009
2026/06/04 08:42:54.607,0.064,-0.015,-1.008
2026/06/04 08:42:54.626,0.065,-0.024,-1.011
2026/06/04 08:42:54.645,0.061,-0.02,-1.011
2026/06/04 08:42:54.665,0.061,-0.01,-1.01
2026/06/04 08:42:54.684,0.065,-0.018,-1.008
2026/06/04 08:42:54.703,0.062,-0.02,-1.008
2026/06/04 08:42:54.722,0.057,-0.016,-0.999
2026/06/04 08:42:54.741,0.059,-0.019,-1.0
2026/06/04 08:42:54.760,0.059,-0.016,-1.001
2026/06/04 08:42:54.780,0.056,-0.017,-0.997
2026/06/04 08:42:54.799,0.059,-0.017,-1.002
2026/06/04 08:42:54.818,0.063,-0.017,-1.002
2026/06/04 08:42:54.837,0.058,-0.014,-1.003
2026/06/04 08:42:54.856,0.057,-0.02,-0.997
2026/06/04 08:42:54.875,0.057,-0.016,-1.002
2026/06/04 08:42:54.894,0.059,-0.015,-1.0
2026/06/04 08:42:54.914,0.06,-0.013,-1.005
2026/06/04 08:42:54.933,0.057,-0.017,-1.002
2026/06/04 08:42:54.952,0.059,-0.013,-0.996
2026/06/04 08:42:54.971,0.058,-0.018,-1.009
2026/06/04 08:42:54.990,0.06,-0.015,-1.012
2026/06/04 08:42:55.009,0.06,-0.016,-0.997
2026/06/04 08:42:55.029,0.061,-0.019,-0.996
2026/06/04 08:42:55.048,0.057,-0.018,-0.997
2026/06/04 08:42:55.067,0.055,-0.015,-0.995
2026/06/04 08:42:55.086,0.057,-0.019,-0.997
2026/06/04 08:42:55.105,0.06,-0.017,-0.999
2026/06/04 08:42:55.124,0.06,-0.019,-1.0
2026/06/04 08:42:55.144,0.061,-0.016,-0.997
2026/06/04 08:42:55.163,0.058,-0.016,-0.999
2026/06/04 08:42:55.182,0.06,-0.016,-0.996
2026/06/04 08:42:55.201,0.058,-0.018,-0.995
2026/06/04 08:42:55.220,0.056,-0.017,-0.996
2026/06/04 08:42:55.239,0.056,-0.014,-1.001
2026/06/04 08:42:55.259,0.058,-0.012,-0.997
2026/06/04 08:42:55.278,0.055,-0.015,-0.992
2026/06/04 08:42:55.297,0.057,-0.015,-0.996
2026/06/04 08:42:55.316,0.056,-0.018,-0.997
2026/06/04 08:42:55.335,0.052,-0.015,-0.993
2026/06/04 08:42:55.354,0.054,-0.016,-1.001
2026/06/04 08:42:55.373,0.055,-0.018,-1.002
2026/06/04 08:42:55.393,0.056,-0.019,-1.003
2026/06/04 08:42:55.412,0.057,-0.023,-1.012
2026/06/04 08:42:55.431,0.056,-0.019,-1.0
2026/06/04 08:42:55.450,0.056,-0.017,-0.995
2026/06/04 08:42:55.469,0.056,-0.015,-0.996
2026/06/04 08:42:55.488,0.056,-0.016,-0.999
2026/06/04 08:42:55.508,0.053,-0.017,-0.996
2026/06/04 08:42:55.527,0.051,-0.016,-0.997
2026/06/04 08:42:55.546,0.054,-0.02,-1.0
2026/06/04 08:42:55.565,0.054,-0.018,-0.996
2026/06/04 08:42:55.584,0.053,-0.017,-1.0
2026/06/04 08:42:55.603,0.06,-0.018,-1.002
2026/06/04 08:42:55.623,0.06,-0.017,-1.001
2026/06/04 08:42:55.642,0.056,-0.017,-1.003
2026/06/04 08:42:55.661,0.058,-0.012,-1.008
2026/06/04 08:42:55.680,0.06,-0.018,-1.007
2026/06/04 08:42:55.699,0.06,-0.016,-1.01
2026/06/04 08:42:55.718,0.061,-0.014,-1.01
2026/06/04 08:42:55.737,0.064,-0.017,-1.006
2026/06/04 08:42:55.757,0.059,-0.016,-1.009
2026/06/04 08:42:55.776,0.06,-0.02,-1.007
2026/06/04 08:42:55.795,0.061,-0.017,-1.004
2026/06/04 08:42:55.814,0.063,-0.018,-1.002
2026/06/04 08:42:55.833,0.067,-0.015,-1.006
2026/06/04 08:42:55.852,0.059,-0.018,-0.996
2026/06/04 08:42:55.872,0.054,-0.017,-0.998
2026/06/04 08:42:55.891,0.052,-0.013,-0.995
2026/06/04 08:42:55.910,0.058,-0.018,-1.002
2026/06/04 08:42:55.929,0.052,-0.012,-1.001
2026/06/04 08:42:55.948,0.057,-0.018,-1.002
2026/06/04 08:42:55.967,0.06,-0.018,-1.006
2026/06/04 08:42:55.987,0.058,-0.016,-1.005
2026/06/04 08:42:56.006,0.056,-0.016,-1.001
2026/06/04 08:42:56.025,0.059,-0.016,-1.002
2026/06/04 08:42:56.044,0.056,-0.014,-0.997
2026/06/04 08:42:56.063,0.055,-0.017,-1.002
2026/06/04 08:42:56.082,0.058,-0.018,-0.996
2026/06/04 08:42:56.102,0.059,-0.021,-0.995
2026/06/04 08:42:56.121,0.053,-0.013,-0.992
2026/06/04 08:42:56.140,0.054,-0.014,-1.0
2026/06/04 08:42:56.159,0.054,-0.015,-0.995
2026/06/04 08:42:56.178,0.056,-0.015,-0.999
2026/06/04 08:42:56.197,0.055,-0.017,-0.998
2026/06/04 08:42:56.216,0.056,-0.016,-0.999
2026/06/04 08:42:56.236,0.052,-0.011,-1.0
2026/06/04 08:42:56.255,0.058,-0.018,-1.0
2026/06/04 08:42:56.274,0.059,-0.015,-1.006
2026/06/04 08:42:56.293,0.054,-0.016,-0.995
2026/06/04 08:42:56.312,0.055,-0.014,-0.991
2026/06/04 08:42:56.331,0.055,-0.015,-0.998
2026/06/04 08:42:56.351,0.057,-0.018,-0.997
2026/06/04 08:42:56.370,0.049,-0.012,-0.995
2026/06/04 08:42:56.389,0.054,-0.014,-1.003
2026/06/04 08:42:56.408,0.054,-0.02,-1.007
2026/06/04 08:42:56.427,0.053,-0.015,-0.996
2026/06/04 08:42:56.446,0.053,-0.02,-0.999
2026/06/04 08:42:56.466,0.053,-0.015,-1.0
2026/06/04 08:42:56.485,0.052,-0.015,-1.001
2026/06/04 08:42:56.504,0.057,-0.015,-0.999
2026/06/04 08:42:56.523,0.059,-0.019,-1.004
2026/06/04 08:42:56.542,0.055,-0.019,-1.006
2026/06/04 08:42:56.561,0.062,-0.022,-1.013
2026/06/04 08:42:56.581,0.065,-0.02,-1.002
2026/06/04 08:42:56.600,0.063,-0.017,-1.0
2026/06/04 08:42:56.619,0.059,-0.015,-0.997
2026/06/04 08:42:56.638,0.058,-0.015,-0.999
2026/06/04 08:42:56.657,0.06,-0.016,-1.009
2026/06/04 08:42:56.676,0.062,-0.017,-1.006
2026/06/04 08:42:56.695,0.059,-0.015,-1.007
2026/06/04 08:42:56.715,0.061,-0.022,-0.991
2026/06/04 08:42:56.734,0.056,-0.017,-0.993
2026/06/04 08:42:56.753,0.059,-0.013,-1.005
2026/06/04 08:42:56.772,0.053,-0.014,-1.015
2026/06/04 08:42:56.791,0.062,-0.02,-1.01
2026/06/04 08:42:56.810,0.056,-0.019,-1.0
2026/06/04 08:42:56.830,0.055,-0.013,-0.991
2026/06/04 08:42:56.849,0.056,-0.014,-0.996
2026/06/04 08:42:56.868,0.06,-0.016,-1.013
2026/06/04 08:42:56.887,0.062,-0.016,-1.016
2026/06/04 08:42:56.906,0.057,-0.018,-1.001
2026/06/04 08:42:56.925,0.059,-0.02,-0.99
2026/06/04 08:42:56.945,0.057,-0.011,-0.998
2026/06/04 08:42:56.964,0.057,-0.014,-1.008
2026/06/04 08:42:56.983,0.058,-0.015,-1.009
2026/06/04 08:42:57.002,0.059,-0.014,-0.994
2026/06/04 08:42:57.021,0.059,-0.02,-0.995
2026/06/04 08:42:57.040,0.057,-0.016,-0.996
2026/06/04 08:42:57.060,0.058,-0.011,-1.003
2026/06/04 08:42:57.079,0.059,-0.015,-1.005
2026/06/04 08:42:57.098,0.059,-0.012,-1.0
2026/06/04 08:42:57.117,0.053,-0.015,-1.002
2026/06/04 08:42:57.136,0.053,-0.016,-1.001
2026/06/04 08:42:57.155,0.06,-0.015,-1.0
2026/06/04 08:42:57.175,0.058,-0.016,-1.005
2026/06/04 08:42:57.194,0.057,-0.017,-1.004
2026/06/04 08:42:57.213,0.057,-0.022,-0.996
2026/06/04 08:42:57.232,0.058,-0.017,-0.999
2026/06/04 08:42:57.251,0.057,-0.015,-1.003
2026/06/04 08:42:57.270,0.059,-0.015,-0.999
2026/06/04 08:42:57.289,0.058,-0.012,-1.001
2026/06/04 08:42:57.309,0.061,-0.018,-1.001
2026/06/04 08:42:57.328,0.06,-0.018,-1.001
2026/06/04 08:42:57.347,0.056,-0.019,-1.0
2026/06/04 08:42:57.366,0.056,-0.016,-1.006
2026/06/04 08:42:57.385,0.056,-0.017,-1.005
2026/06/04 08:42:57.404,0.055,-0.013,-1.001
2026/06/04 08:42:57.424,0.062,-0.01,-0.997
2026/06/04 08:42:57.443,0.058,-0.016,-1.005
2026/06/04 08:42:57.462,0.057,-0.015,-1.0
2026/06/04 08:42:57.481,0.056,-0.016,-0.997
2026/06/04 08:42:57.500,0.057,-0.018,-1.007
2026/06/04 08:42:57.519,0.059,-0.019,-1.007
2026/06/04 08:42:57.539,0.055,-0.017,-0.996
2026/06/04 08:42:57.558,0.058,-0.017,-0.994
2026/06/04 08:42:57.577,0.058,-0.017,-0.995
2026/06/04 08:42:57.596,0.052,-0.018,-0.994
2026/06/04 08:42:57.615,0.051,-0.017,-0.991
2026/06/04 08:42:57.634,0.054,-0.013,-0.994
2026/06/04 08:42:57.654,0.05,-0.021,-0.992
2026/06/04 08:42:57.673,0.053,-0.013,-0.998
2026/06/04 08:42:57.692,0.055,-0.016,-0.991
2026/06/04 08:42:57.711,0.052,-0.013,-0.998
2026/06/04 08:42:57.730,0.056,-0.014,-1.001
2026/06/04 08:42:57.749,0.053,-0.015,-0.994
2026/06/04 08:42:57.768,0.057,-0.014,-1.005
2026/06/04 08:42:57.788,0.055,-0.015,-0.999
2026/06/04 08:42:57.807,0.058,-0.019,-1.001
2026/06/04 08:42:57.826,0.058,-0.017,-1.003
2026/06/04 08:42:57.845,0.06,-0.015,-1.006
2026/06/04 08:42:57.864,0.061,-0.012,-1.007
2026/06/04 08:42:57.883,0.059,-0.015,-1.002
2026/06/04 08:42:57.903,0.057,-0.018,-1.002
2026/06/04 08:42:57.922,0.057,-0.015,-1.0
2026/06/04 08:42:57.941,0.057,-0.015,-1.004
2026/06/04 08:42:57.960,0.057,-0.015,-0.997
2026/06/04 08:42:57.979,0.061,-0.018,-1.011
2026/06/04 08:42:57.998,0.062,-0.02,-1.017
2026/06/04 08:42:58.018,0.062,-0.021,-1.003
2026/06/04 08:42:58.037,0.063,-0.018,-1.009
2026/06/04 08:42:58.056,0.061,-0.018,-1.006
2026/06/04 08:42:58.075,0.061,-0.02,-1.004
2026/06/04 08:42:58.094,0.061,-0.019,-1.004
2026/06/04 08:42:58.113,0.064,-0.021,-1.003
2026/06/04 08:42:58.133,0.063,-0.022,-1.004
2026/06/04 08:42:58.152,0.058,-0.019,-1.006
2026/06/04 08:42:58.171,0.056,-0.017,-0.997
2026/06/04 08:42:58.190,0.056,-0.023,-1.007
2026/06/04 08:42:58.209,0.057,-0.023,-1.002
2026/06/04 08:42:58.228,0.056,-0.017,-1.001
2026/06/04 08:42:58.248,0.06,-0.02,-1.009
2026/06/04 08:42:58.267,0.057,-0.022,-1.004
2026/06/04 08:42:58.286,0.057,-0.014,-0.99
2026/06/04 08:42:58.305,0.059,-0.015,-1.03
2026/06/04 08:42:58.324,0.058,-0.017,-0.984
2026/06/04 08:42:58.343,0.055,-0.02,-0.993
2026/06/04 08:42:58.362,0.055,-0.017,-1.012
2026/06/04 08:42:58.382,0.062,-0.015,-0.999
2026/06/04 08:42:58.401,0.066,-0.018,-1.003
2026/06/04 08:42:58.420,0.049,-0.014,-1.022
2026/06/04 08:42:58.439,0.059,-0.02,-1.0
2026/06/04 08:42:58.458,0.062,-0.017,-0.993
2026/06/04 08:42:58.477,0.058,-0.017,-1.016
2026/06/04 08:42:58.497,0.054,-0.017,-0.991
2026/06/04 08:42:58.516,0.06,-0.021,-1.006
2026/06/04 08:42:58.535,0.057,-0.009,-0.996
2026/06/04 08:42:58.554,0.059,-0.019,-1.0
2026/06/04 08:42:58.573,0.059,-0.02,-0.997
2026/06/04 08:42:58.592,0.062,-0.02,-1.012
2026/06/04 08:42:58.612,0.06,-0.018,-0.997
2026/06/04 08:42:58.631,0.055,-0.013,-0.998
2026/06/04 08:42:58.650,0.057,-0.016,-0.998
2026/06/04 08:42:58.669,0.057,-0.018,-1.009
2026/06/04 08:42:58.688,0.061,-0.016,-0.997
2026/06/04 08:42:58.707,0.055,-0.016,-1.004
2026/06/04 08:42:58.727,0.064,-0.018,-1.001
2026/06/04 08:42:58.746,0.062,-0.016,-1.006
2026/06/04 08:42:58.765,0.058,-0.018,-1.003
2026/06/04 08:42:58.784,0.056,-0.015,-0.995
2026/06/04 08:42:58.803,0.056,-0.017,-1.001
2026/06/04 08:42:58.822,0.053,-0.014,-0.996
2026/06/04 08:42:58.841,0.059,-0.013,-1.004
2026/06/04 08:42:58.861,0.058,-0.019,-1.016
2026/06/04 08:42:58.880,0.058,-0.021,-1.0
2026/06/04 08:42:58.899,0.062,-0.022,-1.005
2026/06/04 08:42:58.918,0.064,-0.018,-1.009
2026/06/04 08:42:58.937,0.066,-0.019,-1.002
2026/06/04 08:42:58.956,0.06,-0.02,-1.006
2026/06/04 08:42:58.976,0.06,-0.019,-1.002
2026/06/04 08:42:58.995,0.059,-0.019,-0.995
2026/06/04 08:42:59.014,0.058,-0.021,-0.993
2026/06/04 08:42:59.033,0.056,-0.017,-0.997
2026/06/04 08:42:59.052,0.064,-0.019,-1.0
2026/06/04 08:42:59.071,0.058,-0.016,-1.004
2026/06/04 08:42:59.091,0.059,-0.023,-1.009
2026/06/04 08:42:59.110,0.06,-0.018,-1.0
2026/06/04 08:42:59.129,0.057,-0.017,-1.006
2026/06/04 08:42:59.148,0.06,-0.018,-1.002
2026/06/04 08:42:59.167,0.061,-0.016,-1.002
2026/06/04 08:42:59.186,0.059,-0.016,-1.003
2026/06/04 08:42:59.206,0.06,-0.017,-0.998
2026/06/04 08:42:59.225,0.059,-0.019,-1.005
2026/06/04 08:42:59.244,0.057,-0.018,-1.006
2026/06/04 08:42:59.263,0.055,-0.016,-0.993
2026/06/04 08:42:59.282,0.062,-0.017,-1.001
2026/06/04 08:42:59.301,0.054,-0.017,-1.014
2026/06/04 08:42:59.320,0.064,-0.02,-0.998
2026/06/04 08:42:59.340,0.057,-0.021,-1.002
2026/06/04 08:42:59.359,0.063,-0.017,-1.008
2026/06/04 08:42:59.378,0.062,-0.02,-1.0
2026/06/04 08:42:59.397,0.058,-0.015,-0.997
2026/06/04 08:42:59.416,0.059,-0.016,-0.998
2026/06/04 08:42:59.435,0.058,-0.015,-1.001
2026/06/04 08:42:59.455,0.055,-0.021,-0.996
2026/06/04 08:42:59.474,0.054,-0.016,-0.996
2026/06/04 08:42:59.493,0.06,-0.019,-1.016
2026/06/04 08:42:59.512,0.06,-0.014,-0.999
2026/06/04 08:42:59.531,0.059,-0.016,-0.995
2026/06/04 08:42:59.550,0.062,-0.014,-1.009
2026/06/04 08:42:59.570,0.058,-0.018,-1.004
2026/06/04 08:42:59.589,0.058,-0.015,-0.994
2026/06/04 08:42:59.608,0.059,-0.017,-0.998
2026/06/04 08:42:59.627,0.062,-0.017,-1.01
2026/06/04 08:42:59.646,0.06,-0.018,-1.006
2026/06/04 08:42:59.665,0.055,-0.018,-0.997
2026/06/04 08:42:59.685,0.057,-0.015,-1.004
2026/06/04 08:42:59.704,0.06,-0.02,-1.005
2026/06/04 08:42:59.723,0.054,-0.015,-0.992
2026/06/04 08:42:59.742,0.056,-0.015,-0.993
2026/06/04 08:42:59.761,0.051,-0.017,-0.994
2026/06/04 08:42:59.780,0.048,-0.009,-0.992
2026/06/04 08:42:59.799,0.05,-0.012,-0.999
2026/06/04 08:42:59.819,0.051,-0.016,-1.002
2026/06/04 08:42:59.838,0.055,-0.017,-1.002
2026/06/04 08:42:59.857,0.057,-0.019,-1.002
2026/06/04 08:42:59.876,0.055,-0.016,-1.01
2026/06/04 08:42:59.895,0.059,-0.014,-1.008
2026/06/04 08:42:59.914,0.055,-0.017,-0.999
2026/06/04 08:42:59.934,0.059,-0.016,-1.001
2026/06/04 08:42:59.953,0.052,-0.018,-1.002
2026/06/04 08:42:59.972,0.063,-0.018,-1.016
2026/06/04 08:42:59.991,0.059,-0.016,-1.002
2026/06/04 08:43:00.010,0.058,-0.018,-1.002
2026/06/04 08:43:00.029,0.06,-0.015,-1.001
2026/06/04 08:43:00.049,0.059,-0.012,-0.999
2026/06/04 08:43:00.068,0.061,-0.021,-1.002
2026/06/04 08:43:00.087,0.054,-0.015,-0.995
2026/06/04 08:43:00.106,0.058,-0.019,-1.006
2026/06/04 08:43:00.125,0.066,-0.019,-1.013
2026/06/04 08:43:00.144,0.064,-0.022,-1.012
2026/06/04 08:43:00.164,0.06,-0.017,-1.01
2026/06/04 08:43:00.183,0.062,-0.019,-1.013
2026/06/04 08:43:00.202,0.067,-0.021,-1.01
2026/06/04 08:43:00.221,0.068,-0.017,-1.007
2026/06/04 08:43:00.240,0.063,-0.016,-1.006
2026/06/04 08:43:00.259,0.061,-0.018,-1.003
2026/06/04 08:43:00.278,0.058,-0.017,-0.999
2026/06/04 08:43:00.298,0.061,-0.021,-1.002
2026/06/04 08:43:00.317,0.062,-0.017,-1.002
2026/06/04 08:43:00.336,0.061,-0.021,-0.994
2026/06/04 08:43:00.355,0.055,-0.016,-1.004
2026/06/04 08:43:00.374,0.059,-0.013,-1.009
2026/06/04 08:43:00.393,0.056,-0.021,-1.003
2026/06/04 08:43:00.413,0.062,-0.018,-1.004
2026/06/04 08:43:00.432,0.054,-0.017,-0.992
2026/06/04 08:43:00.451,0.06,-0.018,-1.004
2026/06/04 08:43:00.470,0.06,-0.016,-1.006
2026/06/04 08:43:00.489,0.057,-0.019,-1.002
2026/06/04 08:43:00.508,0.06,-0.022,-0.998
2026/06/04 08:43:00.528,0.052,-0.012,-0.987
2026/06/04 08:43:00.547,0.057,-0.014,-1.003
2026/06/04 08:43:00.566,0.057,-0.016,-1.021
2026/06/04 08:43:00.585,0.062,-0.02,-1.016
2026/06/04 08:43:00.604,0.068,-0.022,-1.011
2026/06/04 08:43:00.623,0.067,-0.024,-1.008
2026/06/04 08:43:00.643,0.065,-0.019,-1.009
2026/06/04 08:43:00.662,0.066,-0.018,-1.01
2026/06/04 08:43:00.681,0.063,-0.017,-1.011
2026/06/04 08:43:00.700,0.066,-0.015,-1.006
2026/06/04 08:43:00.719,0.062,-0.018,-1.001
2026/06/04 08:43:00.738,0.057,-0.018,-1.005
2026/06/04 08:43:00.757,0.058,-0.016,-1.002
2026/06/04 08:43:00.777,0.059,-0.013,-1.006
2026/06/04 08:43:00.796,0.055,-0.017,-1.0
2026/06/04 08:43:00.815,0.059,-0.014,-0.998
2026/06/04 08:43:00.834,0.057,-0.018,-0.995
2026/06/04 08:43:00.853,0.057,-0.018,-0.994
2026/06/04 08:43:00.872,0.055,-0.016,-0.997
2026/06/04 08:43:00.892,0.053,-0.02,-0.994
2026/06/04 08:43:00.911,0.055,-0.014,-0.994
2026/06/04 08:43:00.930,0.053,-0.017,-1.003
2026/06/04 08:43:00.949,0.051,-0.015,-0.992
2026/06/04 08:43:00.968,0.053,-0.016,-1.0
2026/06/04 08:43:00.987,0.059,-0.017,-1.016
2026/06/04 08:43:01.007,0.06,-0.019,-1.007
2026/06/04 08:43:01.026,0.059,-0.02,-1.005
2026/06/04 08:43:01.045,0.061,-0.019,-1.01
2026/06/04 08:43:01.064,0.061,-0.017,-1.01
2026/06/04 08:43:01.083,0.063,-0.018,-1.007
2026/06/04 08:43:01.102,0.058,-0.016,-1.0
2026/06/04 08:43:01.122,0.061,-0.016,-1.002
2026/06/04 08:43:01.141,0.061,-0.021,-1.001
2026/06/04 08:43:01.160,0.056,-0.016,-0.998
2026/06/04 08:43:01.179,0.059,-0.018,-1.004
2026/06/04 08:43:01.198,0.058,-0.016,-0.999
2026/06/04 08:43:01.217,0.06,-0.014,-1.005
2026/06/04 08:43:01.236,0.058,-0.018,-1.006
2026/06/04 08:43:01.256,0.065,-0.019,-1.012
2026/06/04 08:43:01.275,0.062,-0.018,-1.006
2026/06/04 08:43:01.294,0.064,-0.02,-1.004
2026/06/04 08:43:01.313,0.06,-0.017,-1.004
2026/06/04 08:43:01.332,0.057,-0.015,-1.008
2026/06/04 08:43:01.351,0.061,-0.017,-1.008
2026/06/04 08:43:01.371,0.061,-0.017,-1.011
2026/06/04 08:43:01.390,0.052,-0.016,-0.993
2026/06/04 08:43:01.409,0.062,-0.014,-1.0
2026/06/04 08:43:01.428,0.063,-0.02,-1.016
2026/06/04 08:43:01.447,0.064,-0.022,-1.019
2026/06/04 08:43:01.466,0.064,-0.021,-1.007
2026/06/04 08:43:01.486,0.064,-0.024,-1.013
2026/06/04 08:43:01.505,0.067,-0.022,-1.012
2026/06/04 08:43:01.524,0.063,-0.016,-1.008
2026/06/04 08:43:01.543,0.064,-0.018,-1.008
2026/06/04 08:43:01.562,0.062,-0.016,-1.007
2026/06/04 08:43:01.581,0.062,-0.019,-1.001
2026/06/04 08:43:01.601,0.058,-0.02,-1.0
2026/06/04 08:43:01.620,0.059,-0.017,-1.005
2026/06/04 08:43:01.639,0.061,-0.019,-1.006
2026/06/04 08:43:01.658,0.061,-0.013,-0.997
2026/06/04 08:43:01.677,0.063,-0.022,-1.006
2026/06/04 08:43:01.696,0.057,-0.018,-0.998
2026/06/04 08:43:01.716,0.066,-0.02,-1.0
2026/06/04 08:43:01.735,0.06,-0.015,-1.001
2026/06/04 08:43:01.754,0.064,-0.017,-1.006
2026/06/04 08:43:01.773,0.065,-0.018,-1.005
2026/06/04 08:43:01.792,0.061,-0.021,-1.002
2026/06/04 08:43:01.811,0.062,-0.016,-0.999
2026/06/04 08:43:01.830,0.062,-0.018,-1.01
2026/06/04 08:43:01.850,0.061,-0.018,-1.0
2026/06/04 08:43:01.869,0.058,-0.018,-0.987
2026/06/04 08:43:01.888,0.054,-0.012,-0.995
2026/06/04 08:43:01.907,0.053,-0.016,-0.997
2026/06/04 08:43:01.926,0.051,-0.015,-0.988
2026/06/04 08:43:01.945,0.051,-0.015,-0.991
2026/06/04 08:43:01.965,0.056,-0.016,-0.991
2026/06/04 08:43:01.984,0.054,-0.013,-0.993
2026/06/04 08:43:02.003,0.052,-0.017,-0.996
2026/06/04 08:43:02.022,0.053,-0.019,-1.003
2026/06/04 08:43:02.041,0.052,-0.011,-0.995
2026/06/04 08:43:02.060,0.053,-0.016,-0.997
2026/06/04 08:43:02.080,0.053,-0.013,-0.993
2026/06/04 08:43:02.099,0.053,-0.014,-0.998
2026/06/04 08:43:02.118,0.052,-0.017,-0.998
2026/06/04 08:43:02.137,0.052,-0.012,-1.0
2026/06/04 08:43:02.156,0.053,-0.02,-1.004
2026/06/04 08:43:02.175,0.052,-0.017,-1.004
2026/06/04 08:43:02.195,0.054,-0.018,-1.003
2026/06/04 08:43:02.214,0.056,-0.014,-1.0
2026/06/04 08:43:02.233,0.052,-0.016,-0.999
2026/06/04 08:43:02.252,0.054,-0.017,-1.002
2026/06/04 08:43:02.271,0.059,-0.018,-1.01
2026/06/04 08:43:02.290,0.056,-0.015,-1.004
2026/06/04 08:43:02.309,0.056,-0.017,-0.996
2026/06/04 08:43:02.329,0.055,-0.013,-0.998
2026/06/04 08:43:02.348,0.051,-0.013,-1.001
2026/06/04 08:43:02.367,0.052,-0.011,-0.998
2026/06/04 08:43:02.386,0.053,-0.016,-0.995
2026/06/04 08:43:02.405,0.056,-0.02,-0.998
2026/06/04 08:43:02.424,0.054,-0.014,-0.998
2026/06/04 08:43:02.444,0.054,-0.018,-0.997
2026/06/04 08:43:02.463,0.056,-0.017,-1.0
2026/06/04 08:43:02.482,0.052,-0.014,-0.993
2026/06/04 08:43:02.501,0.055,-0.015,-1.002
2026/06/04 08:43:02.520,0.056,-0.016,-1.01
2026/06/04 08:43:02.539,0.059,-0.017,-1.003
2026/06/04 08:43:02.559,0.062,-0.021,-1.013
2026/06/04 08:43:02.578,0.064,-0.019,-1.009
2026/06/04 08:43:02.597,0.065,-0.015,-1.013
2026/06/04 08:43:02.616,0.064,-0.016,-1.01
2026/06/04 08:43:02.635,0.063,-0.015,-1.007
2026/06/04 08:43:02.654,0.064,-0.016,-1.008
2026/06/04 08:43:02.674,0.059,-0.021,-1.004
2026/06/04 08:43:02.693,0.066,-0.015,-1.001
2026/06/04 08:43:02.712,0.061,-0.022,-1.005
2026/06/04 08:43:02.731,0.061,-0.02,-1.004
2026/06/04 08:43:02.750,0.061,-0.022,-1.003
2026/06/04 08:43:02.769,0.057,-0.017,-1.0
2026/06/04 08:43:02.788,0.058,-0.019,-1.0
2026/06/04 08:43:02.808,0.058,-0.017,-0.999
2026/06/04 08:43:02.827,0.055,-0.016,-1.0
2026/06/04 08:43:02.846,0.058,-0.018,-0.995
2026/06/04 08:43:02.865,0.06,-0.015,-0.999
2026/06/04 08:43:02.884,0.056,-0.02,-1.004
2026/06/04 08:43:02.903,0.058,-0.021,-1.006
2026/06/04 08:43:02.923,0.062,-0.016,-1.007
2026/06/04 08:43:02.942,0.058,-0.017,-1.008
2026/06/04 08:43:02.961,0.058,-0.019,-1.007
2026/06/04 08:43:02.980,0.064,-0.013,-1.008
2026/06/04 08:43:02.999,0.063,-0.016,-1.007
2026/06/04 08:43:03.018,0.058,-0.013,-1.012
2026/06/04 08:43:03.038,0.06,-0.015,-1.011
2026/06/04 08:43:03.057,0.062,-0.017,-1.011
2026/06/04 08:43:03.076,0.06,-0.017,-1.002
2026/06/04 08:43:03.095,0.059,-0.025,-1.004
2026/06/04 08:43:03.114,0.059,-0.019,-1.005
2026/06/04 08:43:03.133,0.06,-0.015,-1.01
2026/06/04 08:43:03.152,0.06,-0.019,-1.007
2026/06/04 08:43:03.172,0.073,-0.021,-1.011
2026/06/04 08:43:03.191,0.066,-0.017,-1.014
2026/06/04 08:43:03.210,0.07,-0.019,-1.006
2026/06/04 08:43:03.229,0.068,-0.017,-1.013
2026/06/04 08:43:03.248,0.059,-0.019,-1.003
2026/06/04 08:43:03.267,0.061,-0.02,-0.999
2026/06/04 08:43:03.287,0.057,-0.014,-1.004
2026/06/04 08:43:03.306,0.055,-0.015,-1.007
2026/06/04 08:43:03.325,0.059,-0.015,-1.002
2026/06/04 08:43:03.344,0.061,-0.021,-1.007
2026/06/04 08:43:03.363,0.059,-0.017,-1.006
2026/06/04 08:43:03.382,0.057,-0.013,-0.992
2026/06/04 08:43:03.402,0.054,-0.014,-0.994
2026/06/04 08:43:03.421,0.055,-0.018,-0.995
2026/06/04 08:43:03.440,0.057,-0.022,-1.011
2026/06/04 08:43:03.459,0.06,-0.015,-1.009
2026/06/04 08:43:03.478,0.062,-0.023,-1.008
2026/06/04 08:43:03.497,0.057,-0.016,-0.987
2026/06/04 08:43:03.517,0.064,-0.02,-1.011
2026/06/04 08:43:03.536,0.055,-0.016,-1.0
2026/06/04 08:43:03.555,0.055,-0.015,-0.986
2026/06/04 08:43:03.574,0.056,-0.014,-0.988
2026/06/04 08:43:03.593,0.052,-0.01,-0.996
2026/06/04 08:43:03.612,0.048,-0.015,-0.985
2026/06/04 08:43:03.631,0.05,-0.015,-0.988
2026/06/04 08:43:03.651,0.049,-0.013,-0.995
2026/06/04 08:43:03.670,0.049,-0.014,-0.998
2026/06/04 08:43:03.689,0.052,-0.015,-0.996
2026/06/04 08:43:03.708,0.051,-0.014,-1.005
2026/06/04 08:43:03.727,0.059,-0.017,-0.997
2026/06/04 08:43:03.746,0.055,-0.014,-1.001
2026/06/04 08:43:03.766,0.055,-0.018,-1.01
2026/06/04 08:43:03.785,0.059,-0.021,-1.007
2026/06/04 08:43:03.804,0.055,-0.017,-1.005
2026/06/04 08:43:03.823,0.051,-0.009,-0.985
2026/06/04 08:43:03.842,0.051,-0.017,-1.016
2026/06/04 08:43:03.861,0.056,-0.017,-1.009
2026/06/04 08:43:03.881,0.062,-0.019,-1.004
2026/06/04 08:43:03.900,0.058,-0.016,-0.995
2026/06/04 08:43:03.919,0.052,-0.014,-1.007
2026/06/04 08:43:03.938,0.056,-0.019,-0.997
2026/06/04 08:43:03.957,0.061,-0.02,-1.013
2026/06/04 08:43:03.976,0.058,-0.012,-1.012
2026/06/04 08:43:03.995,0.05,-0.014,-0.981
2026/06/04 08:43:04.015,0.048,-0.018,-0.996
2026/06/04 08:43:04.034,0.053,-0.009,-0.997
2026/06/04 08:43:04.053,0.056,-0.014,-0.994
2026/06/04 08:43:04.072,0.05,-0.017,-0.986
2026/06/04 08:43:04.091,0.051,-0.017,-0.992
2026/06/04 08:43:04.110,0.052,-0.013,-0.994
2026/06/04 08:43:04.130,0.052,-0.013,-1.0
2026/06/04 08:43:04.149,0.053,-0.016,-0.999
2026/06/04 08:43:04.168,0.057,-0.017,-1.006
2026/06/04 08:43:04.187,0.056,-0.016,-1.0
2026/06/04 08:43:04.206,0.054,-0.016,-0.997
2026/06/04 08:43:04.225,0.058,-0.018,-1.007
2026/06/04 08:43:04.245,0.059,-0.014,-1.003
2026/06/04 08:43:04.264,0.056,-0.019,-0.999
2026/06/04 08:43:04.283,0.056,-0.014,-0.996
2026/06/04 08:43:04.302,0.056,-0.016,-1.01
2026/06/04 08:43:04.321,0.062,-0.016,-1.003
2026/06/04 08:43:04.340,0.05,-0.007,-1.003
2026/06/04 08:43:04.360,0.058,-0.017,-1.009
2026/06/04 08:43:04.379,0.058,-0.021,-1.016
2026/06/04 08:43:04.398,0.06,-0.02,-1.014
2026/06/04 08:43:04.417,0.063,-0.015,-1.0
2026/06/04 08:43:04.436,0.056,-0.017,-0.996
2026/06/04 08:43:04.455,0.046,-0.011,-0.994
2026/06/04 08:43:04.474,0.053,-0.015,-1.004
2026/06/04 08:43:04.494,0.055,-0.017,-1.005
2026/06/04 08:43:04.513,0.047,-0.021,-0.982
2026/06/04 08:43:04.532,0.054,-0.018,-1.002
2026/06/04 08:43:04.551,0.049,-0.01,-0.991
2026/06/04 08:43:04.570,0.058,-0.017,-1.01
2026/06/04 08:43:04.589,0.051,-0.009,-0.998
2026/06/04 08:43:04.609,0.057,-0.021,-1.001
2026/06/04 08:43:04.628,0.058,-0.018,-0.992
2026/06/04 08:43:04.647,0.054,-0.014,-1.006
2026/06/04 08:43:04.666,0.057,-0.015,-1.003
2026/06/04 08:43:04.685,0.059,-0.016,-1.004
2026/06/04 08:43:04.704,0.06,-0.019,-1.009
2026/06/04 08:43:04.724,0.057,-0.02,-1.008
2026/06/04 08:43:04.743,0.057,-0.014,-0.998
2026/06/04 08:43:04.762,0.059,-0.017,-1.006
2026/06/04 08:43:04.781,0.053,-0.013,-1.002
2026/06/04 08:43:04.800,0.058,-0.016,-1.009
2026/06/04 08:43:04.819,0.059,-0.016,-0.99
2026/06/04 08:43:04.838,0.06,-0.023,-1.006
2026/06/04 08:43:04.858,0.058,-0.016,-1.005
2026/06/04 08:43:04.877,0.06,-0.018,-0.995
2026/06/04 08:43:04.896,0.055,-0.017,-0.989
2026/06/04 08:43:04.915,0.058,-0.018,-1.002
2026/06/04 08:43:04.934,0.055,-0.014,-0.993
2026/06/04 08:43:04.953,0.051,-0.019,-1.003
2026/06/04 08:43:04.973,0.053,-0.017,-0.997
2026/06/04 08:43:04.992,0.056,-0.016,-0.999
2026/06/04 08:43:05.011,0.053,-0.018,-0.994
2026/06/04 08:43:05.030,0.062,-0.019,-0.999
2026/06/04 08:43:05.049,0.057,-0.015,-1.002
2026/06/04 08:43:05.068,0.056,-0.011,-0.998
2026/06/04 08:43:05.088,0.061,-0.02,-0.996
2026/06/04 08:43:05.107,0.058,-0.019,-1.006
2026/06/04 08:43:05.126,0.06,-0.015,-1.006
2026/06/04 08:43:05.145,0.059,-0.015,-1.008
2026/06/04 08:43:05.164,0.055,-0.016,-0.999
2026/06/04 08:43:05.183,0.06,-0.017,-1.007
2026/06/04 08:43:05.202,0.06,-0.016,-0.997
2026/06/04 08:43:05.222,0.058,-0.018,-1.014
2026/06/04 08:43:05.241,0.057,-0.016,-0.999
2026/06/04 08:43:05.260,0.059,-0.019,-1.005
2026/06/04 08:43:05.279,0.058,-0.018,-1.01
2026/06/04 08:43:05.298,0.061,-0.015,-0.996
2026/06/04 08:43:05.317,0.058,-0.023,-0.987
2026/06/04 08:43:05.337,0.054,-0.017,-0.999
2026/06/04 08:43:05.356,0.052,-0.017,-0.989
2026/06/04 08:43:05.375,0.054,-0.013,-0.998
2026/06/04 08:43:05.394,0.059,-0.018,-1.001
2026/06/04 08:43:05.413,0.058,-0.016,-0.995
2026/06/04 08:43:05.432,0.055,-0.019,-0.991
2026/06/04 08:43:05.452,0.056,-0.015,-0.993
2026/06/04 08:43:05.471,0.056,-0.016,-1.0
2026/06/04 08:43:05.490,0.059,-0.021,-1.002
2026/06/04 08:43:05.509,0.054,-0.018,-1.002
2026/06/04 08:43:05.528,0.059,-0.018,-1.003
2026/06/04 08:43:05.547,0.057,-0.014,-1.008
2026/06/04 08:43:05.567,0.063,-0.014,-1.001
2026/06/04 08:43:05.586,0.059,-0.018,-1.007
2026/06/04 08:43:05.605,0.06,-0.022,-1.006
2026/06/04 08:43:05.624,0.058,-0.016,-1.0
2026/06/04 08:43:05.643,0.06,-0.02,-1.008
2026/06/04 08:43:05.662,0.059,-0.021,-1.01
2026/06/04 08:43:05.681,0.059,-0.023,-1.001
2026/06/04 08:43:05.701,0.057,-0.02,-1.008
2026/06/04 08:43:05.720,0.062,-0.017,-1.015
2026/06/04 08:43:05.739,0.057,-0.019,-0.998
2026/06/04 08:43:05.758,0.06,-0.02,-0.991
2026/06/04 08:43:05.777,0.058,-0.015,-0.989
2026/06/04 08:43:05.796,0.057,-0.02,-1.012
2026/06/04 08:43:05.816,0.056,-0.017,-1.001
2026/06/04 08:43:05.835,0.057,-0.021,-1.004
2026/06/04 08:43:05.854,0.059,-0.018,-0.991
2026/06/04 08:43:05.873,0.06,-0.018,-0.996
2026/06/04 08:43:05.892,0.055,-0.016,-0.999
2026/06/04 08:43:05.911,0.059,-0.022,-1.004
2026/06/04 08:43:05.931,0.061,-0.016,-1.006
2026/06/04 08:43:05.950,0.06,-0.019,-1.008
2026/06/04 08:43:05.969,0.062,-0.015,-1.008
2026/06/04 08:43:05.988,0.06,-0.017,-1.005
2026/06/04 08:43:06.007,0.058,-0.016,-1.005
2026/06/04 08:43:06.026,0.06,-0.021,-1.002
2026/06/04 08:43:06.045,0.061,-0.013,-1.003
2026/06/04 08:43:06.065,0.058,-0.019,-1.004
2026/06/04 08:43:06.084,0.062,-0.019,-1.006
2026/06/04 08:43:06.103,0.059,-0.017,-1.004
2026/06/04 08:43:06.122,0.056,-0.016,-0.997
2026/06/04 08:43:06.141,0.057,-0.015,-0.995
2026/06/04 08:43:06.160,0.056,-0.018,-1.004
2026/06/04 08:43:06.180,0.053,-0.015,-0.994
2026/06/04 08:43:06.199,0.053,-0.017,-0.991
2026/06/04 08:43:06.218,0.052,-0.014,-0.973
2026/06/04 08:43:06.237,0.058,-0.015,-1.011
2026/06/04 08:43:06.256,0.055,-0.01,-1.014
2026/06/04 08:43:06.275,0.057,-0.017,-0.997
2026/06/04 08:43:06.295,0.057,-0.022,-0.994
2026/06/04 08:43:06.314,0.06,-0.019,-0.998
2026/06/04 08:43:06.333,0.06,-0.014,-1.004
2026/06/04 08:43:06.352,0.057,-0.015,-1.017
2026/06/04 08:43:06.371,0.055,-0.019,-1.004
2026/06/04 08:43:06.390,0.06,-0.011,-1.006
2026/06/04 08:43:06.409,0.059,-0.015,-1.005
2026/06/04 08:43:06.429,0.054,-0.016,-1.007
2026/06/04 08:43:06.448,0.056,-0.016,-0.998
2026/06/04 08:43:06.467,0.059,-0.021,-1.006
2026/06/04 08:43:06.486,0.054,-0.016,-1.003
2026/06/04 08:43:06.505,0.059,-0.015,-1.004
2026/06/04 08:43:06.524,0.06,-0.017,-1.006
2026/06/04 08:43:06.544,0.056,-0.018,-0.997
2026/06/04 08:43:06.563,0.055,-0.017,-0.993
2026/06/04 08:43:06.582,0.055,-0.018,-0.997
2026/06/04 08:43:06.601,0.056,-0.01,-1.001
2026/06/04 08:43:06.620,0.055,-0.014,-1.003
2026/06/04 08:43:06.639,0.053,-0.015,-0.994
2026/06/04 08:43:06.659,0.054,-0.015,-0.989
2026/06/04 08:43:06.678,0.052,-0.012,-1.002
2026/06/04 08:43:06.697,0.053,-0.016,-1.001
2026/06/04 08:43:06.716,0.057,-0.016,-1.001
2026/06/04 08:43:06.735,0.063,-0.016,-1.004
2026/06/04 08:43:06.754,0.054,-0.017,-1.001
2026/06/04 08:43:06.773,0.058,-0.02,-1.0
2026/06/04 08:43:06.793,0.054,-0.016,-1.001
2026/06/04 08:43:06.812,0.057,-0.018,-1.003
2026/06/04 08:43:06.831,0.052,-0.015,-1.002
2026/06/04 08:43:06.850,0.058,-0.018,-1.006
2026/06/04 08:43:06.869,0.06,-0.019,-0.997
2026/06/04 08:43:06.888,0.059,-0.014,-1.002
2026/06/04 08:43:06.908,0.056,-0.015,-0.981
2026/06/04 08:43:06.927,0.057,-0.023,-1.022
2026/06/04 08:43:06.946,0.054,-0.014,-0.984
2026/06/04 08:43:06.965,0.058,-0.017,-1.008
2026/06/04 08:43:06.984,0.06,-0.018,-1.004
2026/06/04 08:43:07.003,0.062,-0.023,-1.012
2026/06/04 08:43:07.023,0.057,-0.021,-1.0
2026/06/04 08:43:07.042,0.063,-0.019,-1.014
2026/06/04 08:43:07.061,0.063,-0.01,-1.007
2026/06/04 08:43:07.080,0.062,-0.019,-1.007
2026/06/04 08:43:07.099,0.059,-0.015,-1.004
2026/06/04 08:43:07.118,0.061,-0.021,-1.01
2026/06/04 08:43:07.138,0.063,-0.022,-1.004
2026/06/04 08:43:07.157,0.067,-0.022,-1.008
2026/06/04 08:43:07.176,0.061,-0.021,-0.998
2026/06/04 08:43:07.195,0.059,-0.014,-0.989
2026/06/04 08:43:07.214,0.058,-0.013,-0.997
2026/06/04 08:43:07.233,0.062,-0.021,-1.011
2026/06/04 08:43:07.252,0.062,-0.018,-1.01
2026/06/04 08:43:07.272,0.062,-0.018,-1.003
2026/06/04 08:43:07.291,0.059,-0.019,-0.995
2026/06/04 08:43:07.310,0.06,-0.02,-1.005
2026/06/04 08:43:07.329,0.061,-0.015,-1.007
2026/06/04 08:43:07.348,0.06,-0.017,-1.017
2026/06/04 08:43:07.367,0.06,-0.018,-1.0
2026/06/04 08:43:07.387,0.056,-0.018,-0.992
2026/06/04 08:43:07.406,0.063,-0.018,-1.005
2026/06/04 08:43:07.425,0.063,-0.017,-1.025
2026/06/04 08:43:07.444,0.06,-0.018,-1.01
2026/06/04 08:43:07.463,0.066,-0.022,-1.003
2026/06/04 08:43:07.482,0.069,-0.021,-1.011
2026/06/04 08:43:07.502,0.067,-0.013,-1.009
2026/06/04 08:43:07.521,0.063,-0.017,-1.01
2026/06/04 08:43:07.540,0.062,-0.021,-1.007
2026/06/04 08:43:07.559,0.064,-0.023,-1.004
2026/06/04 08:43:07.578,0.061,-0.023,-0.996
2026/06/04 08:43:07.597,0.061,-0.017,-1.0
2026/06/04 08:43:07.617,0.057,-0.02,-1.003
2026/06/04 08:43:07.636,0.059,-0.015,-1.003
2026/06/04 08:43:07.655,0.058,-0.015,-0.992
2026/06/04 08:43:07.674,0.063,-0.02,-1.004
2026/06/04 08:43:07.693,0.057,-0.017,-0.994
2026/06/04 08:43:07.712,0.06,-0.016,-0.997
2026/06/04 08:43:07.731,0.055,-0.018,-0.999
2026/06/04 08:43:07.751,0.055,-0.015,-0.995
2026/06/04 08:43:07.770,0.053,-0.017,-1.001
2026/06/04 08:43:07.789,0.057,-0.015,-1.002
2026/06/04 08:43:07.808,0.055,-0.016,-0.993
2026/06/04 08:43:07.827,0.059,-0.015,-0.997
2026/06/04 08:43:07.846,0.055,-0.018,-1.01
2026/06/04 08:43:07.866,0.056,-0.017,-1.014
2026/06/04 08:43:07.885,0.058,-0.017,-0.994
2026/06/04 08:43:07.904,0.061,-0.017,-1.01
2026/06/04 08:43:07.923,0.056,-0.015,-0.999
2026/06/04 08:43:07.942,0.053,-0.016,-0.999
2026/06/04 08:43:07.961,0.057,-0.018,-1.0
2026/06/04 08:43:07.981,0.061,-0.019,-1.002
2026/06/04 08:43:08.000,0.057,-0.015,-1.0
2026/06/04 08:43:08.019,0.055,-0.017,-1.002
2026/06/04 08:43:08.038,0.056,-0.016,-1.0
2026/06/04 08:43:08.057,0.059,-0.015,-1.008
2026/06/04 08:43:08.076,0.062,-0.015,-1.0
2026/06/04 08:43:08.096,0.062,-0.018,-1.01
2026/06/04 08:43:08.115,0.061,-0.017,-1.009
2026/06/04 08:43:08.134,0.057,-0.017,-1.009
2026/06/04 08:43:08.153,0.058,-0.019,-0.997
2026/06/04 08:43:08.172,0.062,-0.016,-1.013
2026/06/04 08:43:08.191,0.062,-0.016,-1.009
2026/06/04 08:43:08.210,0.06,-0.025,-1.003
2026/06/04 08:43:08.230,0.061,-0.022,-1.008
2026/06/04 08:43:08.249,0.059,-0.02,-0.997
2026/06/04 08:43:08.268,0.053,-0.015,-0.98
2026/06/04 08:43:08.287,0.055,-0.017,-1.009
2026/06/04 08:43:08.306,0.058,-0.018,-1.009
2026/06/04 08:43:08.325,0.062,-0.018,-1.009
2026/06/04 08:43:08.345,0.064,-0.018,-1.006
2026/06/04 08:43:08.364,0.069,-0.017,-1.019
2026/06/04 08:43:08.383,0.057,-0.018,-0.996
2026/06/04 08:43:08.402,0.063,-0.018,-1.009
2026/06/04 08:43:08.421,0.066,-0.017,-1.001
2026/06/04 08:43:08.440,0.065,-0.018,-0.993
2026/06/04 08:43:08.460,0.059,-0.018,-0.996
2026/06/04 08:43:08.479,0.062,-0.022,-1.009
2026/06/04 08:43:08.498,0.059,-0.013,-1.003
2026/06/04 08:43:08.517,0.061,-0.019,-1.002
2026/06/04 08:43:08.536,0.062,-0.024,-1.002
2026/06/04 08:43:08.555,0.066,-0.017,-1.008
2026/06/04 08:43:08.575,0.061,-0.015,-1.002
2026/06/04 08:43:08.594,0.057,-0.018,-1.004
2026/06/04 08:43:08.613,0.062,-0.02,-1.013
2026/06/04 08:43:08.632,0.063,-0.016,-1.002
2026/06/04 08:43:08.651,0.061,-0.021,-1.007
2026/06/04 08:43:08.670,0.056,-0.02,-0.995
2026/06/04 08:43:08.689,0.06,-0.02,-1.005
2026/06/04 08:43:08.709,0.059,-0.018,-1.006
2026/06/04 08:43:08.728,0.053,-0.018,-0.99
2026/06/04 08:43:08.747,0.055,-0.016,-0.994
2026/06/04 08:43:08.766,0.047,-0.009,-0.99
2026/06/04 08:43:08.785,0.044,-0.011,-0.984
2026/06/04 08:43:08.804,0.043,-0.02,-0.972
2026/06/04 08:43:08.824,0.057,-0.016,-1.005
2026/06/04 08:43:08.843,0.051,-0.014,-0.988
2026/06/04 08:43:08.862,0.052,-0.022,-0.992
2026/06/04 08:43:08.881,0.049,-0.011,-0.981
2026/06/04 08:43:08.900,0.055,-0.014,-1.01
2026/06/04 08:43:08.919,0.051,-0.01,-0.99
2026/06/04 08:43:08.939,0.059,-0.017,-1.006
2026/06/04 08:43:08.958,0.058,-0.015,-1.002
2026/06/04 08:43:08.977,0.055,-0.018,-1.005
2026/06/04 08:43:08.996,0.061,-0.012,-1.004
2026/06/04 08:43:09.015,0.054,-0.016,-1.01
2026/06/04 08:43:09.034,0.06,-0.019,-1.013
2026/06/04 08:43:09.054,0.064,-0.02,-1.007
2026/06/04 08:43:09.073,0.06,-0.021,-1.014
2026/06/04 08:43:09.092,0.059,-0.019,-1.007
2026/06/04 08:43:09.111,0.059,-0.017,-1.005
2026/06/04 08:43:09.130,0.057,-0.018,-1.0
2026/06/04 08:43:09.149,0.055,-0.016,-1.0
2026/06/04 08:43:09.168,0.054,-0.018,-0.997
2026/06/04 08:43:09.188,0.052,-0.016,-0.99
2026/06/04 08:43:09.207,0.05,-0.016,-0.991
2026/06/04 08:43:09.226,0.057,-0.016,-1.029
2026/06/04 08:43:09.245,0.057,-0.009,-0.998
2026/06/04 08:43:09.264,0.051,-0.022,-1.017
2026/06/04 08:43:09.283,0.058,-0.014,-1.007
2026/06/04 08:43:09.303,0.057,-0.017,-1.004
2026/06/04 08:43:09.322,0.06,-0.018,-1.004
2026/06/04 08:43:09.341,0.058,-0.012,-0.993
2026/06/04 08:43:09.360,0.059,-0.02,-1.007
2026/06/04 08:43:09.379,0.056,-0.023,-1.006
2026/06/04 08:43:09.398,0.057,-0.016,-1.002
2026/06/04 08:43:09.418,0.063,-0.014,-1.002
2026/06/04 08:43:09.437,0.057,-0.017,-1.013
2026/06/04 08:43:09.456,0.061,-0.018,-0.996
2026/06/04 08:43:09.475,0.058,-0.018,-1.003
2026/06/04 08:43:09.494,0.057,-0.014,-0.996
2026/06/04 08:43:09.513,0.06,-0.015,-0.999
2026/06/04 08:43:09.532,0.061,-0.02,-0.997
2026/06/04 08:43:09.552,0.057,-0.017,-1.009
2026/06/04 08:43:09.571,0.06,-0.019,-1.001
2026/06/04 08:43:09.590,0.062,-0.017,-1.003
2026/06/04 08:43:09.609,0.058,-0.018,-1.006
2026/06/04 08:43:09.628,0.058,-0.019,-1.006
2026/06/04 08:43:09.647,0.059,-0.019,-1.004
2026/06/04 08:43:09.667,0.058,-0.02,-1.009
2026/06/04 08:43:09.686,0.059,-0.019,-0.995
2026/06/04 08:43:09.705,0.074,-0.025,-1.034
2026/06/04 08:43:09.724,0.054,-0.008,-0.997
2026/06/04 08:43:09.743,0.062,-0.028,-1.04
2026/06/04 08:43:09.762,0.066,-0.015,-0.985
2026/06/04 08:43:09.782,0.056,-0.015,-1.009
2026/06/04 08:43:09.801,0.059,-0.015,-0.995
2026/06/04 08:43:09.820,0.051,-0.012,-0.973
2026/06/04 08:43:09.839,0.053,-0.018,-1.005
2026/06/04 08:43:09.858,0.054,-0.013,-0.982
2026/06/04 08:43:09.877,0.056,-0.018,-1.006
2026/06/04 08:43:09.896,0.051,-0.013,-0.996
2026/06/04 08:43:09.916,0.055,-0.018,-1.004
2026/06/04 08:43:09.935,0.054,-0.019,-0.996
2026/06/04 08:43:09.954,0.057,-0.015,-1.006
2026/06/04 08:43:09.973,0.061,-0.014,-1.002
2026/06/04 08:43:09.992,0.062,-0.018,-1.015
2026/06/04 08:43:10.011,0.06,-0.014,-0.999
2026/06/04 08:43:10.031,0.061,-0.015,-1.006
2026/06/04 08:43:10.050,0.058,-0.018,-1.001
2026/06/04 08:43:10.069,0.058,-0.017,-1.005
2026/06/04 08:43:10.088,0.058,-0.013,-1.0
2026/06/04 08:43:10.107,0.063,-0.016,-1.005
2026/06/04 08:43:10.126,0.059,-0.02,-0.999
2026/06/04 08:43:10.146,0.057,-0.016,-0.998
2026/06/04 08:43:10.165,0.061,-0.02,-1.004
2026/06/04 08:43:10.184,0.06,-0.015,-1.003
2026/06/04 08:43:10.203,0.061,-0.021,-1.006
2026/06/04 08:43:10.222,0.06,-0.019,-0.998
2026/06/04 08:43:10.241,0.055,-0.02,-1.0
2026/06/04 08:43:10.261,0.055,-0.016,-0.996
2026/06/04 08:43:10.280,0.06,-0.017,-1.007
2026/06/04 08:43:10.299,0.054,-0.017,-1.006
2026/06/04 08:43:10.318,0.06,-0.019,-1.002
2026/06/04 08:43:10.337,0.059,-0.017,-0.992
2026/06/04 08:43:10.356,0.055,-0.015,-1.001
2026/06/04 08:43:10.375,0.058,-0.012,-1.002
2026/06/04 08:43:10.395,0.055,-0.018,-1.006
2026/06/04 08:43:10.414,0.054,-0.019,-0.995
2026/06/04 08:43:10.433,0.063,-0.021,-1.007
2026/06/04 08:43:10.452,0.056,-0.014,-1.004
2026/06/04 08:43:10.471,0.061,-0.018,-0.996
2026/06/04 08:43:10.490,0.06,-0.014,-0.997
2026/06/04 08:43:10.510,0.057,-0.017,-1.009
2026/06/04 08:43:10.529,0.055,-0.017,-1.007
2026/06/04 08:43:10.548,0.059,-0.021,-1.007
2026/06/04 08:43:10.567,0.055,-0.021,-0.999
2026/06/04 08:43:10.586,0.06,-0.017,-0.99
2026/06/04 08:43:10.605,0.054,-0.021,-0.998
2026/06/04 08:43:10.625,0.06,-0.017,-1.007
2026/06/04 08:43:10.644,0.058,-0.02,-1.015
2026/06/04 08:43:10.663,0.057,-0.017,-1.004
2026/06/04 08:43:10.682,0.059,-0.018,-0.989
2026/06/04 08:43:10.701,0.057,-0.019,-0.996
2026/06/04 08:43:10.720,0.053,-0.016,-1.011
2026/06/04 08:43:10.739,0.056,-0.016,-1.012
2026/06/04 08:43:10.759,0.059,-0.018,-1.002
2026/06/04 08:43:10.778,0.058,-0.018,-1.003
2026/06/04 08:43:10.797,0.057,-0.015,-0.998
2026/06/04 08:43:10.816,0.054,-0.017,-1.005
2026/06/04 08:43:10.835,0.059,-0.016,-1.003
2026/06/04 08:43:10.854,0.056,-0.017,-1.002
2026/06/04 08:43:10.874,0.056,-0.01,-0.993
2026/06/04 08:43:10.893,0.054,-0.017,-1.004
2026/06/04 08:43:10.912,0.055,-0.018,-1.001
2026/06/04 08:43:10.931,0.056,-0.016,-1.004
2026/06/04 08:43:10.950,0.056,-0.017,-1.001
2026/06/04 08:43:10.969,0.059,-0.011,-1.0
2026/06/04 08:43:10.989,0.06,-0.016,-1.007
2026/06/04 08:43:11.008,0.057,-0.016,-1.008
2026/06/04 08:43:11.027,0.056,-0.018,-1.003
2026/06/04 08:43:11.046,0.057,-0.02,-1.003
2026/06/04 08:43:11.065,0.052,-0.017,-1.0
2026/06/04 08:43:11.084,0.063,-0.019,-1.001
2026/06/04 08:43:11.103,0.057,-0.018,-1.009
2026/06/04 08:43:11.123,0.055,-0.017,-0.999
2026/06/04 08:43:11.142,0.056,-0.016,-0.993
2026/06/04 08:43:11.161,0.06,-0.019,-1.008
2026/06/04 08:43:11.180,0.058,-0.018,-0.994
2026/06/04 08:43:11.199,0.055,-0.017,-0.996
2026/06/04 08:43:11.218,0.056,-0.016,-0.985
2026/06/04 08:43:11.238,0.058,-0.019,-1.009
2026/06/04 08:43:11.257,0.059,-0.015,-1.002
2026/06/04 08:43:11.276,0.058,-0.024,-1.005
2026/06/04 08:43:11.295,0.055,-0.014,-0.996
2026/06/04 08:43:11.314,0.057,-0.013,-1.003
2026/06/04 08:43:11.333,0.06,-0.017,-1.006
2026/06/04 08:43:11.353,0.055,-0.02,-1.006
2026/06/04 08:43:11.372,0.061,-0.018,-1.007
2026/06/04 08:43:11.391,0.064,-0.02,-1.012
2026/06/04 08:43:11.410,0.063,-0.016,-0.998
2026/06/04 08:43:11.429,0.055,-0.017,-1.01
2026/06/04 08:43:11.448,0.059,-0.019,-1.016
2026/06/04 08:43:11.468,0.063,-0.014,-1.0
2026/06/04 08:43:11.487,0.059,-0.017,-1.008
2026/06/04 08:43:11.506,0.057,-0.015,-1.004
2026/06/04 08:43:11.525,0.059,-0.019,-1.002
2026/06/04 08:43:11.544,0.061,-0.018,-0.995
2026/06/04 08:43:11.563,0.062,-0.021,-1.011
2026/06/04 08:43:11.582,0.058,-0.02,-0.998
2026/06/04 08:43:11.602,0.057,-0.017,-1.0
2026/06/04 08:43:11.621,0.06,-0.017,-0.997
2026/06/04 08:43:11.640,0.057,-0.019,-1.004
2026/06/04 08:43:11.659,0.056,-0.017,-0.988
2026/06/04 08:43:11.678,0.06,-0.012,-1.007
2026/06/04 08:43:11.697,0.061,-0.016,-1.018
2026/06/04 08:43:11.717,0.056,-0.016,-0.999
2026/06/04 08:43:11.736,0.056,-0.014,-0.989
2026/06/04 08:43:11.755,0.057,-0.014,-1.005
2026/06/04 08:43:11.774,0.057,-0.012,-1.0
2026/06/04 08:43:11.793,0.057,-0.018,-0.993
2026/06/04 08:43:11.812,0.056,-0.017,-0.998
2026/06/04 08:43:11.832,0.056,-0.014,-0.999
2026/06/04 08:43:11.851,0.054,-0.015,-1.001
2026/06/04 08:43:11.870,0.055,-0.012,-1.006
2026/06/04 08:43:11.889,0.059,-0.016,-1.007
2026/06/04 08:43:11.908,0.056,-0.017,-0.995
2026/06/04 08:43:11.927,0.056,-0.018,-0.998
2026/06/04 08:43:11.947,0.056,-0.02,-1.006
2026/06/04 08:43:11.966,0.057,-0.019,-0.999
2026/06/04 08:43:11.985,0.056,-0.018,-0.996
2026/06/04 08:43:12.004,0.057,-0.016,-1.003
2026/06/04 08:43:12.023,0.058,-0.015,-1.006
2026/06/04 08:43:12.042,0.058,-0.015,-1.003
2026/06/04 08:43:12.061,0.058,-0.016,-1.002
2026/06/04 08:43:12.081,0.061,-0.021,-1.007
2026/06/04 08:43:12.100,0.057,-0.018,-0.99
2026/06/04 08:43:12.119,0.057,-0.019,-1.005
2026/06/04 08:43:12.138,0.056,-0.015,-0.997
2026/06/04 08:43:12.157,0.052,-0.015,-0.993
2026/06/04 08:43:12.176,0.05,-0.013,-0.991
2026/06/04 08:43:12.196,0.052,-0.015,-0.994
2026/06/04 08:43:12.215,0.05,-0.014,-0.994
2026/06/04 08:43:12.234,0.048,-0.014,-0.995
2026/06/04 08:43:12.253,0.051,-0.018,-1.006
2026/06/04 08:43:12.272,0.058,-0.015,-1.004
2026/06/04 08:43:12.291,0.055,-0.014,-0.997
2026/06/04 08:43:12.311,0.057,-0.012,-1.009
2026/06/04 08:43:12.330,0.058,-0.014,-0.999
2026/06/04 08:43:12.349,0.058,-0.02,-1.004
2026/06/04 08:43:12.368,0.058,-0.014,-1.0
2026/06/04 08:43:12.387,0.055,-0.014,-1.01
2026/06/04 08:43:12.406,0.058,-0.013,-0.999
2026/06/04 08:43:12.425,0.059,-0.017,-1.02
2026/06/04 08:43:12.445,0.053,-0.017,-1.01
2026/06/04 08:43:12.464,0.056,-0.016,-0.992
2026/06/04 08:43:12.483,0.061,-0.021,-0.997
2026/06/04 08:43:12.502,0.055,-0.017,-1.011
2026/06/04 08:43:12.521,0.055,-0.018,-1.008
2026/06/04 08:43:12.540,0.055,-0.016,-0.992
2026/06/04 08:43:12.560,0.059,-0.016,-0.997
2026/06/04 08:43:12.579,0.056,-0.021,-1.001
2026/06/04 08:43:12.598,0.051,-0.009,-0.991
2026/06/04 08:43:12.617,0.048,-0.016,-0.992
2026/06/04 08:43:12.636,0.048,-0.018,-0.993
2026/06/04 08:43:12.655,0.05,-0.013,-0.997
2026/06/04 08:43:12.675,0.052,-0.017,-0.999
2026/06/04 08:43:12.694,0.053,-0.014,-1.001
2026/06/04 08:43:12.713,0.053,-0.015,-1.001
2026/06/04 08:43:12.732,0.054,-0.015,-1.0
2026/06/04 08:43:12.751,0.057,-0.018,-1.001
2026/06/04 08:43:12.770,0.057,-0.015,-1.004
2026/06/04 08:43:12.790,0.056,-0.015,-1.004
2026/06/04 08:43:12.809,0.055,-0.015,-1.005
2026/06/04 08:43:12.828,0.054,-0.019,-0.996
2026/06/04 08:43:12.847,0.057,-0.016,-1.007
2026/06/04 08:43:12.866,0.051,-0.018,-0.997
2026/06/04 08:43:12.885,0.06,-0.021,-1.004
2026/06/04 08:43:12.904,0.058,-0.018,-0.992
2026/06/04 08:43:12.924,0.053,-0.015,-1.004
2026/06/04 08:43:12.943,0.059,-0.017,-1.011
2026/06/04 08:43:12.962,0.055,-0.017,-1.022
2026/06/04 08:43:12.981,0.054,-0.019,-1.0
2026/06/04 08:43:13.000,0.063,-0.021,-0.988
2026/06/04 08:43:13.019,0.057,-0.015,-0.996
2026/06/04 08:43:13.039,0.049,-0.011,-0.995
2026/06/04 08:43:13.058,0.05,-0.013,-0.984
2026/06/04 08:43:13.077,0.05,-0.016,-0.997
2026/06/04 08:43:13.096,0.048,-0.018,-0.984
2026/06/04 08:43:13.115,0.051,-0.016,-0.986
2026/06/04 08:43:13.134,0.053,-0.015,-1.008
2026/06/04 08:43:13.154,0.055,-0.013,-1.002
2026/06/04 08:43:13.173,0.059,-0.013,-0.994
2026/06/04 08:43:13.192,0.06,-0.017,-1.011
2026/06/04 08:43:13.211,0.055,-0.016,-1.001
2026/06/04 08:43:13.230,0.057,-0.018,-0.989
2026/06/04 08:43:13.249,0.062,-0.017,-1.015
2026/06/04 08:43:13.269,0.06,-0.014,-1.013
2026/06/04 08:43:13.288,0.059,-0.018,-1.006
2026/06/04 08:43:13.307,0.06,-0.019,-0.998
2026/06/04 08:43:13.326,0.058,-0.016,-1.008
2026/06/04 08:43:13.345,0.057,-0.015,-1.0
2026/06/04 08:43:13.364,0.059,-0.015,-0.999
2026/06/04 08:43:13.383,0.06,-0.019,-1.011
2026/06/04 08:43:13.403,0.058,-0.023,-1.002
2026/06/04 08:43:13.422,0.055,-0.018,-0.982
2026/06/04 08:43:13.441,0.057,-0.018,-0.978
2026/06/04 08:43:13.460,0.051,-0.013,-0.986
2026/06/04 08:43:13.479,0.047,-0.015,-1.001
2026/06/04 08:43:13.498,0.045,-0.014,-0.988
2026/06/04 08:43:13.518,0.049,-0.013,-0.993
2026/06/04 08:43:13.537,0.052,-0.015,-0.987
2026/06/04 08:43:13.556,0.051,-0.018,-1.005
2026/06/04 08:43:13.575,0.054,-0.021,-1.002
2026/06/04 08:43:13.594,0.053,-0.01,-1.004
2026/06/04 08:43:13.613,0.058,-0.015,-1.001
2026/06/04 08:43:13.633,0.055,-0.015,-0.996
2026/06/04 08:43:13.652,0.058,-0.016,-1.003
2026/06/04 08:43:13.671,0.057,-0.016,-1.009
2026/06/04 08:43:13.690,0.054,-0.016,-0.993
2026/06/04 08:43:13.709,0.059,-0.018,-0.999
2026/06/04 08:43:13.728,0.059,-0.017,-1.021
2026/06/04 08:43:13.748,0.057,-0.015,-1.003
2026/06/04 08:43:13.767,0.061,-0.016,-0.998
2026/06/04 08:43:13.786,0.058,-0.018,-1.014
2026/06/04 08:43:13.805,0.058,-0.018,-1.004
2026/06/04 08:43:13.824,0.058,-0.02,-1.006
2026/06/04 08:43:13.843,0.059,-0.019,-1.007
2026/06/04 08:43:13.863,0.059,-0.018,-0.993
2026/06/04 08:43:13.882,0.054,-0.017,-0.991
2026/06/04 08:43:13.901,0.051,-0.011,-0.995
2026/06/04 08:43:13.920,0.049,-0.014,-0.993
2026/06/04 08:43:13.939,0.05,-0.016,-0.987
2026/06/04 08:43:13.958,0.055,-0.019,-0.98
2026/06/04 08:43:13.977,0.049,-0.013,-1.0
2026/06/04 08:43:13.997,0.049,-0.017,-0.992
2026/06/04 08:43:14.016,0.055,-0.015,-0.991
2026/06/04 08:43:14.035,0.058,-0.02,-1.004
2026/06/04 08:43:14.054,0.059,-0.017,-1.002
2026/06/04 08:43:14.073,0.059,-0.015,-1.002
2026/06/04 08:43:14.092,0.052,-0.013,-0.993
2026/06/04 08:43:14.112,0.06,-0.019,-1.007
2026/06/04 08:43:14.131,0.057,-0.017,-1.015
2026/06/04 08:43:14.150,0.057,-0.015,-1.01
2026/06/04 08:43:14.169,0.057,-0.014,-1.005
2026/06/04 08:43:14.188,0.06,-0.018,-0.999
2026/06/04 08:43:14.207,0.057,-0.015,-1.003
2026/06/04 08:43:14.227,0.051,-0.013,-1.005
2026/06/04 08:43:14.246,0.059,-0.015,-1.002
2026/06/04 08:43:14.265,0.062,-0.02,-1.009
2026/06/04 08:43:14.284,0.063,-0.019,-1.011
2026/06/04 08:43:14.303,0.061,-0.017,-0.997
2026/06/04 08:43:14.322,0.061,-0.02,-1.001
2026/06/04 08:43:14.342,0.056,-0.021,-1.002
2026/06/04 08:43:14.361,0.057,-0.021,-1.0
2026/06/04 08:43:14.380,0.054,-0.016,-1.001
2026/06/04 08:43:14.399,0.059,-0.017,-0.995
2026/06/04 08:43:14.418,0.054,-0.015,-1.01
2026/06/04 08:43:14.437,0.057,-0.016,-1.0
2026/06/04 08:43:14.457,0.061,-0.024,-1.004
2026/06/04 08:43:14.476,0.053,-0.02,-0.974
2026/06/04 08:43:14.495,0.057,-0.015,-1.016
2026/06/04 08:43:14.514,0.058,-0.012,-1.016
2026/06/04 08:43:14.533,0.065,-0.018,-1.011
2026/06/04 08:43:14.552,0.061,-0.021,-0.99
2026/06/04 08:43:14.571,0.053,-0.021,-0.995
2026/06/04 08:43:14.591,0.054,-0.014,-1.007
2026/06/04 08:43:14.610,0.056,-0.016,-1.016
2026/06/04 08:43:14.629,0.058,-0.022,-1.005
2026/06/04 08:43:14.648,0.06,-0.015,-0.997
2026/06/04 08:43:14.667,0.06,-0.017,-0.997
2026/06/04 08:43:14.686,0.057,-0.011,-1.013
2026/06/04 08:43:14.706,0.058,-0.018,-1.003
2026/06/04 08:43:14.725,0.057,-0.016,-0.992
2026/06/04 08:43:14.744,0.054,-0.013,-0.991
2026/06/04 08:43:14.763,0.046,-0.015,-0.993
2026/06/04 08:43:14.782,0.044,-0.015,-0.995
2026/06/04 08:43:14.801,0.047,-0.012,-0.995
2026/06/04 08:43:14.821,0.051,-0.013,-0.988
2026/06/04 08:43:14.840,0.054,-0.016,-0.994
2026/06/04 08:43:14.859,0.053,-0.017,-0.998
2026/06/04 08:43:14.878,0.054,-0.015,-1.005
2026/06/04 08:43:14.897,0.055,-0.015,-1.005
2026/06/04 08:43:14.916,0.056,-0.017,-1.02
2026/06/04 08:43:14.936,0.064,-0.015,-1.022
2026/06/04 08:43:14.955,0.061,-0.02,-1.019
2026/06/04 08:43:14.974,0.061,-0.021,-1.004
2026/06/04 08:43:14.993,0.063,-0.021,-1.016
2026/06/04 08:43:15.012,0.062,-0.013,-1.021
2026/06/04 08:43:15.031,0.062,-0.014,-1.018
2026/06/04 08:43:15.051,0.06,-0.021,-1.002
2026/06/04 08:43:15.070,0.058,-0.02,-0.996
2026/06/04 08:43:15.089,0.058,-0.018,-0.995
2026/06/04 08:43:15.108,0.061,-0.016,-0.998
2026/06/04 08:43:15.127,0.055,-0.018,-1.005
2026/06/04 08:43:15.146,0.054,-0.018,-1.0
2026/06/04 08:43:15.165,0.054,-0.019,-0.996
2026/06/04 08:43:15.185,0.057,-0.015,-0.996
2026/06/04 08:43:15.204,0.055,-0.02,-1.008
2026/06/04 08:43:15.223,0.053,-0.021,-1.008
2026/06/04 08:43:15.242,0.057,-0.019,-1.009
2026/06/04 08:43:15.261,0.06,-0.014,-1.006
2026/06/04 08:43:15.280,0.056,-0.022,-1.005
2026/06/04 08:43:15.300,0.057,-0.016,-0.997
2026/06/04 08:43:15.319,0.062,-0.015,-1.003
2026/06/04 08:43:15.338,0.056,-0.015,-1.006
2026/06/04 08:43:15.357,0.061,-0.015,-1.007
2026/06/04 08:43:15.376,0.063,-0.019,-1.005
2026/06/04 08:43:15.395,0.064,-0.014,-1.014
2026/06/04 08:43:15.415,0.065,-0.02,-1.009
2026/06/04 08:43:15.434,0.058,-0.013,-1.034
2026/06/04 08:43:15.453,0.066,-0.022,-0.991
2026/06/04 08:43:15.472,0.067,-0.025,-1.004
2026/06/04 08:43:15.491,0.057,-0.02,-1.007
2026/06/04 08:43:15.510,0.064,-0.018,-1.011
2026/06/04 08:43:15.530,0.064,-0.015,-1.025
2026/06/04 08:43:15.549,0.062,-0.017,-1.01
2026/06/04 08:43:15.568,0.061,-0.018,-0.997
2026/06/04 08:43:15.587,0.062,-0.021,-1.0
2026/06/04 08:43:15.606,0.063,-0.02,-1.009
2026/06/04 08:43:15.625,0.064,-0.018,-1.01
2026/06/04 08:43:15.645,0.062,-0.021,-1.011
2026/06/04 08:43:15.664,0.062,-0.022,-1.005
2026/06/04 08:43:15.683,0.061,-0.02,-1.001
2026/06/04 08:43:15.702,0.061,-0.018,-1.006
2026/06/04 08:43:15.721,0.061,-0.018,-1.008
2026/06/04 08:43:15.740,0.064,-0.021,-1.003
2026/06/04 08:43:15.759,0.068,-0.022,-1.004
2026/06/04 08:43:15.779,0.066,-0.02,-1.009
2026/06/04 08:43:15.798,0.06,-0.02,-1.008
2026/06/04 08:43:15.817,0.064,-0.018,-1.005
2026/06/04 08:43:15.836,0.062,-0.017,-1.013
2026/06/04 08:43:15.855,0.064,-0.017,-1.005
2026/06/04 08:43:15.874,0.062,-0.018,-1.0
2026/06/04 08:43:15.894,0.064,-0.019,-1.0
2026/06/04 08:43:15.913,0.061,-0.019,-1.0
2026/06/04 08:43:15.932,0.064,-0.023,-0.996
2026/06/04 08:43:15.951,0.062,-0.018,-1.008
2026/06/04 08:43:15.970,0.063,-0.019,-1.007
2026/06/04 08:43:15.989,0.063,-0.025,-1.014
2026/06/04 08:43:16.009,0.059,-0.02,-1.007
2026/06/04 08:43:16.028,0.06,-0.016,-1.012
2026/06/04 08:43:16.047,0.063,-0.021,-1.007
2026/06/04 08:43:16.066,0.062,-0.018,-1.004
2026/06/04 08:43:16.085,0.065,-0.021,-1.003
2026/06/04 08:43:16.104,0.063,-0.02,-1.0
2026/06/04 08:43:16.124,0.063,-0.017,-1.002
2026/06/04 08:43:16.143,0.06,-0.022,-0.997
2026/06/04 08:43:16.162,0.061,-0.015,-1.001
2026/06/04 08:43:16.181,0.062,-0.016,-0.996
2026/06/04 08:43:16.200,0.058,-0.014,-1.007
2026/06/04 08:43:16.219,0.066,-0.016,-1.007
2026/06/04 08:43:16.239,0.063,-0.019,-1.007
2026/06/04 08:43:16.258,0.065,-0.021,-1.012
2026/06/04 08:43:16.277,0.066,-0.023,-1.006
2026/06/04 08:43:16.296,0.066,-0.02,-1.006
2026/06/04 08:43:16.315,0.066,-0.025,-1.008
2026/06/04 08:43:16.334,0.066,-0.017,-1.005
2026/06/04 08:43:16.353,0.062,-0.02,-1.004
2026/06/04 08:43:16.373,0.063,-0.017,-1.004
2026/06/04 08:43:16.392,0.058,-0.02,-0.991
2026/06/04 08:43:16.411,0.06,-0.016,-0.986
2026/06/04 08:43:16.430,0.05,-0.015,-0.99
2026/06/04 08:43:16.449,0.052,-0.019,-0.995
2026/06/04 08:43:16.468,0.051,-0.016,-0.989
2026/06/04 08:43:16.488,0.049,-0.013,-1.008
2026/06/04 08:43:16.507,0.05,-0.007,-1.003
2026/06/04 08:43:16.526,0.049,-0.017,-0.995
2026/06/04 08:43:16.545,0.054,-0.01,-0.993
2026/06/04 08:43:16.564,0.058,-0.018,-1.01
2026/06/04 08:43:16.583,0.056,-0.02,-1.007
2026/06/04 08:43:16.603,0.054,-0.011,-0.989
2026/06/04 08:43:16.622,0.056,-0.015,-0.999
2026/06/04 08:43:16.641,0.052,-0.013,-1.002
2026/06/04 08:43:16.660,0.057,-0.016,-1.009
2026/06/04 08:43:16.679,0.059,-0.016,-1.004
2026/06/04 08:43:16.698,0.06,-0.019,-1.011
2026/06/04 08:43:16.718,0.06,-0.015,-1.0
2026/06/04 08:43:16.737,0.061,-0.016,-1.016
2026/06/04 08:43:16.756,0.061,-0.019,-1.006
2026/06/04 08:43:16.775,0.067,-0.018,-1.016
2026/06/04 08:43:16.794,0.064,-0.019,-1.009
2026/06/04 08:43:16.813,0.057,-0.016,-0.996
2026/06/04 08:43:16.833,0.061,-0.017,-0.993
2026/06/04 08:43:16.852,0.063,-0.023,-1.025
2026/06/04 08:43:16.871,0.065,-0.014,-1.006
2026/06/04 08:43:16.890,0.066,-0.022,-1.004
2026/06/04 08:43:16.909,0.069,-0.023,-1.009
2026/06/04 08:43:16.928,0.066,-0.02,-1.008
2026/06/04 08:43:16.947,0.061,-0.019,-1.006
2026/06/04 08:43:16.967,0.066,-0.019,-1.015
2026/06/04 08:43:16.986,0.063,-0.02,-1.008
2026/06/04 08:43:17.005,0.057,-0.017,-0.999
2026/06/04 08:43:17.024,0.066,-0.019,-1.009
2026/06/04 08:43:17.043,0.062,-0.015,-1.001
2026/06/04 08:43:17.062,0.048,-0.013,-0.982
2026/06/04 08:43:17.082,0.063,-0.029,-1.034
2026/06/04 08:43:17.101,0.061,-0.006,-0.993
2026/06/04 08:43:17.120,0.062,-0.031,-1.014
2026/06/04 08:43:17.139,0.056,-0.015,-0.985
2026/06/04 08:43:17.158,0.059,-0.012,-0.995
2026/06/04 08:43:17.177,0.058,-0.016,-1.005
2026/06/04 08:43:17.197,0.058,-0.018,-1.013
2026/06/04 08:43:17.216,0.055,-0.014,-1.004
2026/06/04 08:43:17.235,0.06,-0.019,-0.996
2026/06/04 08:43:17.254,0.053,-0.016,-0.995
2026/06/04 08:43:17.273,0.061,-0.016,-1.017
2026/06/04 08:43:17.292,0.062,-0.019,-1.01
2026/06/04 08:43:17.312,0.062,-0.02,-1.003
2026/06/04 08:43:17.331,0.061,-0.022,-1.002
2026/06/04 08:43:17.350,0.062,-0.02,-1.005
2026/06/04 08:43:17.369,0.062,-0.017,-1.008
2026/06/04 08:43:17.388,0.062,-0.019,-1.005
2026/06/04 08:43:17.407,0.063,-0.019,-1.004
2026/06/04 08:43:17.427,0.055,-0.017,-0.993
2026/06/04 08:43:17.446,0.056,-0.018,-0.995
2026/06/04 08:43:17.465,0.063,-0.025,-1.011
2026/06/04 08:43:17.484,0.058,-0.02,-0.999
2026/06/04 08:43:17.503,0.059,-0.015,-0.989
2026/06/04 08:43:17.522,0.055,-0.017,-1.0
2026/06/04 08:43:17.541,0.063,-0.021,-1.009
2026/06/04 08:43:17.561,0.056,-0.016,-1.003
2026/06/04 08:43:17.580,0.059,-0.023,-0.999
2026/06/04 08:43:17.599,0.057,-0.015,-0.989
2026/06/04 08:43:17.618,0.062,-0.016,-1.034
2026/06/04 08:43:17.637,0.055,-0.01,-0.985
2026/06/04 08:43:17.656,0.058,-0.024,-1.029
2026/06/04 08:43:17.676,0.054,-0.012,-0.984
2026/06/04 08:43:17.695,0.057,-0.02,-1.005
2026/06/04 08:43:17.714,0.058,-0.015,-0.998
2026/06/04 08:43:17.733,0.06,-0.015,-1.018
2026/06/04 08:43:17.752,0.061,-0.021,-1.005
2026/06/04 08:43:17.771,0.066,-0.018,-1.002
2026/06/04 08:43:17.791,0.063,-0.019,-1.003
2026/06/04 08:43:17.810,0.064,-0.019,-1.0
2026/06/04 08:43:17.829,0.061,-0.017,-1.004
2026/06/04 08:43:17.848,0.062,-0.018,-1.003
2026/06/04 08:43:17.867,0.059,-0.017,-1.005
2026/06/04 08:43:17.886,0.058,-0.02,-1.003
2026/06/04 08:43:17.905,0.064,-0.02,-1.013
2026/06/04 08:43:17.925,0.06,-0.021,-1.002
2026/06/04 08:43:17.944,0.06,-0.017,-0.988
2026/06/04 08:43:17.963,0.057,-0.016,-0.996
2026/06/04 08:43:17.982,0.056,-0.016,-1.003
2026/06/04 08:43:18.001,0.058,-0.014,-1.003
2026/06/04 08:43:18.020,0.06,-0.021,-1.005
2026/06/04 08:43:18.040,0.057,-0.02,-0.988
2026/06/04 08:43:18.059,0.058,-0.019,-1.001
2026/06/04 08:43:18.078,0.056,-0.015,-0.994
2026/06/04 08:43:18.097,0.056,-0.019,-1.006
2026/06/04 08:43:18.116,0.056,-0.015,-0.993
2026/06/04 08:43:18.135,0.056,-0.017,-1.009
2026/06/04 08:43:18.155,0.058,-0.016,-1.005
2026/06/04 08:43:18.174,0.057,-0.018,-1.016
2026/06/04 08:43:18.193,0.058,-0.013,-1.004
2026/06/04 08:43:18.212,0.062,-0.02,-1.015
2026/06/04 08:43:18.231,0.062,-0.022,-1.007
2026/06/04 08:43:18.250,0.065,-0.024,-0.997
2026/06/04 08:43:18.269,0.063,-0.015,-1.005
2026/06/04 08:43:18.289,0.059,-0.017,-1.008
2026/06/04 08:43:18.308,0.062,-0.015,-1.0
2026/06/04 08:43:18.327,0.056,-0.014,-1.0
2026/06/04 08:43:18.346,0.063,-0.02,-1.005
2026/06/04 08:43:18.365,0.057,-0.016,-0.998
2026/06/04 08:43:18.384,0.059,-0.019,-0.993
2026/06/04 08:43:18.404,0.057,-0.016,-1.007
2026/06/04 08:43:18.423,0.058,-0.018,-0.997
2026/06/04 08:43:18.442,0.057,-0.017,-1.003
2026/06/04 08:43:18.461,0.06,-0.017,-0.997
2026/06/04 08:43:18.480,0.057,-0.022,-1.005
2026/06/04 08:43:18.499,0.059,-0.016,-0.999
2026/06/04 08:43:18.519,0.061,-0.019,-1.004
2026/06/04 08:43:18.538,0.057,-0.013,-1.006
2026/06/04 08:43:18.557,0.056,-0.019,-1.014
2026/06/04 08:43:18.576,0.065,-0.016,-1.001
2026/06/04 08:43:18.595,0.06,-0.015,-1.011
2026/06/04 08:43:18.614,0.067,-0.019,-1.013
2026/06/04 08:43:18.633,0.063,-0.019,-1.008
2026/06/04 08:43:18.653,0.06,-0.015,-1.007
2026/06/04 08:43:18.672,0.065,-0.017,-1.001
2026/06/04 08:43:18.691,0.062,-0.023,-1.0
2026/06/04 08:43:18.710,0.06,-0.016,-1.0
2026/06/04 08:43:18.729,0.062,-0.018,-1.002
2026/06/04 08:43:18.748,0.061,-0.022,-0.999
2026/06/04 08:43:18.768,0.058,-0.015,-1.006
2026/06/04 08:43:18.787,0.06,-0.016,-1.002
2026/06/04 08:43:18.806,0.057,-0.018,-0.998
2026/06/04 08:43:18.825,0.059,-0.017,-0.996
2026/06/04 08:43:18.844,0.062,-0.016,-0.995
2026/06/04 08:43:18.863,0.057,-0.018,-1.0
2026/06/04 08:43:18.883,0.059,-0.019,-1.0
2026/06/04 08:43:18.902,0.058,-0.018,-1.004
2026/06/04 08:43:18.921,0.059,-0.019,-1.005
2026/06/04 08:43:18.940,0.058,-0.018,-0.997
2026/06/04 08:43:18.959,0.059,-0.014,-0.99
2026/06/04 08:43:18.978,0.056,-0.012,-1.001
2026/06/04 08:43:18.997,0.06,-0.016,-1.007
2026/06/04 08:43:19.017,0.057,-0.016,-0.996
2026/06/04 08:43:19.036,0.06,-0.017,-1.006
2026/06/04 08:43:19.055,0.057,-0.015,-1.001
2026/06/04 08:43:19.074,0.054,-0.017,-1.006
2026/06/04 08:43:19.093,0.057,-0.014,-1.003
2026/06/04 08:43:19.112,0.057,-0.019,-1.002
2026/06/04 08:43:19.132,0.056,-0.018,-0.999
2026/06/04 08:43:19.151,0.057,-0.017,-1.001
2026/06/04 08:43:19.170,0.058,-0.01,-1.002
2026/06/04 08:43:19.189,0.057,-0.019,-1.002
2026/06/04 08:43:19.208,0.056,-0.015,-1.001
2026/06/04 08:43:19.227,0.058,-0.014,-0.998
2026/06/04 08:43:19.247,0.054,-0.018,-1.004
2026/06/04 08:43:19.266,0.062,-0.02,-1.005
2026/06/04 08:43:19.285,0.06,-0.017,-1.002
2026/06/04 08:43:19.304,0.053,-0.016,-1.004
2026/06/04 08:43:19.323,0.057,-0.017,-0.996
2026/06/04 08:43:19.342,0.059,-0.014,-1.0
2026/06/04 08:43:19.361,0.059,-0.018,-1.004
2026/06/04 08:43:19.381,0.055,-0.017,-0.995
2026/06/04 08:43:19.400,0.058,-0.016,-0.992
2026/06/04 08:43:19.419,0.057,-0.012,-1.004
2026/06/04 08:43:19.438,0.056,-0.015,-1.008
2026/06/04 08:43:19.457,0.058,-0.015,-1.002
2026/06/04 08:43:19.476,0.062,-0.017,-1.006
2026/06/04 08:43:19.496,0.059,-0.013,-1.002
2026/06/04 08:43:19.515,0.064,-0.017,-1.004
2026/06/04 08:43:19.534,0.059,-0.019,-1.006
2026/06/04 08:43:19.553,0.063,-0.016,-1.007
2026/06/04 08:43:19.572,0.061,-0.015,-1.002
2026/06/04 08:43:19.591,0.059,-0.016,-1.003
2026/06/04 08:43:19.611,0.06,-0.017,-0.999
2026/06/04 08:43:19.630,0.06,-0.019,-1.004
2026/06/04 08:43:19.649,0.06,-0.015,-1.002
2026/06/04 08:43:19.668,0.059,-0.015,-1.005
2026/06/04 08:43:19.687,0.055,-0.02,-0.996
2026/06/04 08:43:19.706,0.061,-0.019,-1.002
2026/06/04 08:43:19.726,0.056,-0.016,-0.997
2026/06/04 08:43:19.745,0.06,-0.017,-1.004
2026/06/04 08:43:19.764,0.062,-0.017,-1.005
2026/06/04 08:43:19.783,0.06,-0.018,-1.0
2026/06/04 08:43:19.802,0.063,-0.019,-1.01
2026/06/04 08:43:19.821,0.059,-0.017,-1.0
2026/06/04 08:43:19.840,0.058,-0.017,-0.99
2026/06/04 08:43:19.860,0.058,-0.021,-0.99
2026/06/04 08:43:19.879,0.052,-0.012,-0.996
2026/06/04 08:43:19.898,0.047,-0.013,-0.994
2026/06/04 08:43:19.917,0.05,-0.015,-0.991
2026/06/04 08:43:19.936,0.054,-0.011,-1.003
2026/06/04 08:43:19.955,0.05,-0.018,-0.989
2026/06/04 08:43:19.975,0.052,-0.015,-0.989
2026/06/04 08:43:19.994,0.055,-0.015,-1.012
2026/06/04 08:43:20.013,0.053,-0.011,-0.997
2026/06/04 08:43:20.032,0.055,-0.016,-0.996
2026/06/04 08:43:20.051,0.063,-0.018,-1.016
2026/06/04 08:43:20.070,0.056,-0.016,-1.002
2026/06/04 08:43:20.090,0.052,-0.015,-0.992
2026/06/04 08:43:20.109,0.054,-0.015,-1.007
2026/06/04 08:43:20.128,0.061,-0.018,-1.009
2026/06/04 08:43:20.147,0.06,-0.018,-1.004
2026/06/04 08:43:20.166,0.062,-0.019,-1.01
2026/06/04 08:43:20.185,0.06,-0.016,-1.007
2026/06/04 08:43:20.204,0.061,-0.019,-0.995
2026/06/04 08:43:20.224,0.06,-0.016,-0.998
2026/06/04 08:43:20.243,0.06,-0.017,-1.014
2026/06/04 08:43:20.262,0.062,-0.019,-1.001
2026/06/04 08:43:20.281,0.059,-0.015,-0.986
2026/06/04 08:43:20.300,0.057,-0.014,-1.002
2026/06/04 08:43:20.319,0.06,-0.016,-0.998
2026/06/04 08:43:20.339,0.056,-0.013,-1.003
2026/06/04 08:43:20.358,0.053,-0.016,-1.0
2026/06/04 08:43:20.377,0.057,-0.015,-0.997
2026/06/04 08:43:20.396,0.053,-0.011,-0.995
2026/06/04 08:43:20.415,0.057,-0.019,-1.007
2026/06/04 08:43:20.434,0.048,-0.012,-0.999
2026/06/04 08:43:20.454,0.065,-0.027,-1.013
2026/06/04 08:43:20.473,0.057,-0.018,-1.007
2026/06/04 08:43:20.492,0.058,-0.015,-0.992
2026/06/04 08:43:20.511,0.063,-0.016,-1.009
2026/06/04 08:43:20.530,0.058,-0.012,-1.003
2026/06/04 08:43:20.549,0.056,-0.018,-0.989
2026/06/04 08:43:20.568,0.063,-0.019,-1.007
2026/06/04 08:43:20.588,0.058,-0.02,-1.006
2026/06/04 08:43:20.607,0.054,-0.015,-1.0
2026/06/04 08:43:20.626,0.059,-0.017,-0.991
2026/06/04 08:43:20.645,0.054,-0.012,-1.006
2026/06/04 08:43:20.664,0.056,-0.022,-1.004
2026/06/04 08:43:20.683,0.059,-0.022,-0.999
2026/06/04 08:43:20.703,0.061,-0.023,-0.996
2026/06/04 08:43:20.722,0.056,-0.018,-1.003
2026/06/04 08:43:20.741,0.056,-0.018,-1.003
2026/06/04 08:43:20.760,0.057,-0.015,-1.004
2026/06/04 08:43:20.779,0.055,-0.013,-1.001
2026/06/04 08:43:20.798,0.056,-0.021,-0.994
2026/06/04 08:43:20.818,0.058,-0.014,-1.005
2026/06/04 08:43:20.837,0.053,-0.017,-1.002
2026/06/04 08:43:20.856,0.061,-0.017,-1.003
2026/06/04 08:43:20.875,0.058,-0.016,-1.013
2026/06/04 08:43:20.894,0.062,-0.018,-1.015
2026/06/04 08:43:20.913,0.066,-0.021,-1.004
2026/06/04 08:43:20.932,0.059,-0.015,-0.994
2026/06/04 08:43:20.952,0.057,-0.017,-0.999
2026/06/04 08:43:20.971,0.058,-0.017,-1.011
2026/06/04 08:43:20.990,0.06,-0.013,-1.0
2026/06/04 08:43:21.009,0.06,-0.016,-1.002
2026/06/04 08:43:21.028,0.056,-0.02,-1.0
2026/06/04 08:43:21.047,0.062,-0.018,-1.002
2026/06/04 08:43:21.067,0.056,-0.017,-1.006
2026/06/04 08:43:21.086,0.059,-0.015,-0.993
2026/06/04 08:43:21.105,0.059,-0.021,-1.007
2026/06/04 08:43:21.124,0.059,-0.014,-0.993
2026/06/04 08:43:21.143,0.058,-0.019,-0.998
2026/06/04 08:43:21.162,0.056,-0.012,-0.993
2026/06/04 08:43:21.182,0.052,-0.017,-1.006
2026/06/04 08:43:21.201,0.052,-0.01,-0.991
2026/06/04 08:43:21.220,0.053,-0.02,-1.001
2026/06/04 08:43:21.239,0.05,-0.013,-0.995
2026/06/04 08:43:21.258,0.054,-0.015,-1.006
2026/06/04 08:43:21.277,0.058,-0.018,-1.01
2026/06/04 08:43:21.296,0.062,-0.017,-1.008
2026/06/04 08:43:21.316,0.053,-0.015,-0.998
2026/06/04 08:43:21.335,0.061,-0.017,-1.009
2026/06/04 08:43:21.354,0.057,-0.019,-1.003
2026/06/04 08:43:21.373,0.063,-0.022,-1.004
2026/06/04 08:43:21.392,0.05,-0.021,-1.083
2026/06/04 08:43:21.411,0.067,-0.029,-1.024
2026/06/04 08:43:21.431,0.049,-0.02,-1.009
2026/06/04 08:43:21.450,0.033,-0.02,-0.997
2026/06/04 08:43:21.469,0.045,-0.025,-1.001
2026/06/04 08:43:21.488,0.063,-0.014,-1.009
2026/06/04 08:43:21.507,0.076,-0.022,-1.017
2026/06/04 08:43:21.526,0.055,-0.022,-1.001
2026/06/04 08:43:21.546,0.05,-0.024,-0.859
2026/06/04 08:43:21.565,0.097,-0.07,-1.074
2026/06/04 08:43:21.584,0.052,-0.028,-1.019
2026/06/04 08:43:21.603,0.062,0.011,-0.927
2026/06/04 08:43:21.622,0.057,0.001,-1.014
2026/06/04 08:43:21.641,0.05,-0.037,-1.016
2026/06/04 08:43:21.661,0.058,-0.027,-1.016
2026/06/04 08:43:21.680,0.06,0.003,-0.981
2026/06/04 08:43:21.699,0.063,-0.024,-1.019
2026/06/04 08:43:21.718,0.055,-0.018,-1.001
2026/06/04 08:43:21.737,0.057,-0.011,-0.988
2026/06/04 08:43:21.756,0.068,-0.023,-1.019
2026/06/04 08:43:21.775,0.062,-0.017,-1.013
2026/06/04 08:43:21.795,0.063,-0.016,-1.0
2026/06/04 08:43:21.814,0.062,-0.02,-1.005
2026/06/04 08:43:21.833,0.05,-0.015,-0.988
2026/06/04 08:43:21.852,0.052,-0.013,-0.998
2026/06/04 08:43:21.871,-0.016,0.047,-0.927
2026/06/04 08:43:21.890,-0.022,-0.034,-0.934
2026/06/04 08:43:21.910,0.061,-0.007,-0.967
2026/06/04 08:43:21.929,0.069,-0.019,-1.018
2026/06/04 08:43:21.948,0.068,-0.094,-1.037
2026/06/04 08:43:21.967,0.014,0.029,-0.989
2026/06/04 08:43:21.986,0.052,0.002,-1.003
2026/06/04 08:43:22.005,0.068,-0.022,-0.98
2026/06/04 08:43:22.025,0.048,-0.003,-1.0
2026/06/04 08:43:22.044,0.092,0.005,-0.885
2026/06/04 08:43:22.063,0.097,0.015,-0.821
2026/06/04 08:43:22.082,0.056,0.019,-1.168
2026/06/04 08:43:22.101,-0.031,-0.134,-1.097
2026/06/04 08:43:22.120,-0.171,-0.19,-0.969
2026/06/04 08:43:22.139,0.216,-0.104,-1.299
2026/06/04 08:43:22.159,0.131,-0.012,-0.948
2026/06/04 08:43:22.178,-0.005,0.029,-0.839
2026/06/04 08:43:22.197,0.029,0.032,-0.969
2026/06/04 08:43:22.216,0.062,-0.018,-1.032
2026/06/04 08:43:22.235,0.093,-0.05,-1.013
2026/06/04 08:43:22.254,0.076,-0.032,-1.008
2026/06/04 08:43:22.274,0.058,-0.034,-1.067
2026/06/04 08:43:22.293,0.083,-0.038,-0.997
2026/06/04 08:43:22.312,0.064,0.008,-0.96
2026/06/04 08:43:22.331,0.046,0.049,-0.967
2026/06/04 08:43:22.350,0.08,0.005,-0.97
2026/06/04 08:43:22.369,0.08,-0.027,-1.049
2026/06/04 08:43:22.389,0.064,-0.035,-1.038
2026/06/04 08:43:22.408,0.059,-0.008,-0.985
2026/06/04 08:43:22.427,0.065,0.001,-0.978
2026/06/04 08:43:22.446,0.072,-0.015,-1.004
2026/06/04 08:43:22.465,0.067,-0.021,-1.012
2026/06/04 08:43:22.484,0.058,-0.014,-1.003
2026/06/04 08:43:22.504,0.074,-0.005,-0.992
2026/06/04 08:43:22.523,0.078,-0.009,-0.993
2026/06/04 08:43:22.542,0.048,-0.02,-1.012
2026/06/04 08:43:22.561,0.055,-0.012,-0.978
2026/06/04 08:43:22.580,0.079,-0.001,-0.989
2026/06/04 08:43:22.599,0.067,-0.014,-0.999
2026/06/04 08:43:22.618,0.068,-0.02,-1.002
2026/06/04 08:43:22.638,0.071,-0.015,-1.004
2026/06/04 08:43:22.657,0.074,-0.011,-1.005
2026/06/04 08:43:22.676,0.07,-0.018,-1.002
2026/06/04 08:43:22.695,0.065,-0.013,-1.001
2026/06/04 08:43:22.714,0.068,-0.012,-0.998
2026/06/04 08:43:22.733,0.073,-0.011,-1.002
2026/06/04 08:43:22.753,0.068,-0.012,-0.998
2026/06/04 08:43:22.772,0.067,-0.017,-1.009
2026/06/04 08:43:22.791,0.065,-0.012,-1.0
2026/06/04 08:43:22.810,0.071,-0.012,-1.006
2026/06/04 08:43:22.829,0.07,-0.013,-0.998
2026/06/04 08:43:22.848,0.066,-0.016,-0.994
2026/06/04 08:43:22.868,0.067,-0.014,-0.998
2026/06/04 08:43:22.887,0.071,-0.007,-1.003
2026/06/04 08:43:22.906,0.07,-0.008,-1.002
2026/06/04 08:43:22.925,0.065,-0.014,-1.007
2026/06/04 08:43:22.944,0.061,-0.012,-1.006
2026/06/04 08:43:22.963,0.066,-0.01,-0.999
2026/06/04 08:43:22.983,0.067,-0.011,-1.004
2026/06/04 08:43:23.002,0.067,-0.015,-0.997
2026/06/04 08:43:23.021,0.066,-0.012,-1.003
2026/06/04 08:43:23.040,0.067,-0.01,-0.999
2026/06/04 08:43:23.059,0.064,-0.018,-1.003
2026/06/04 08:43:23.078,0.071,-0.011,-1.004
2026/06/04 08:43:23.097,0.068,-0.012,-1.003
2026/06/04 08:43:23.117,0.065,-0.018,-0.996
2026/06/04 08:43:23.136,0.072,-0.014,-1.004
2026/06/04 08:43:23.155,0.07,-0.014,-1.0
2026/06/04 08:43:23.174,0.068,-0.008,-0.999
2026/06/04 08:43:23.193,0.073,-0.013,-1.006
2026/06/04 08:43:23.212,0.067,-0.013,-1.006
2026/06/04 08:43:23.232,0.067,-0.01,-1.004
2026/06/04 08:43:23.251,0.065,-0.01,-0.999
2026/06/04 08:43:23.270,0.057,-0.01,-1.006
2026/06/04 08:43:23.289,0.065,-0.008,-1.007
2026/06/04 08:43:23.308,0.06,-0.009,-0.993
2026/06/04 08:43:23.327,0.072,-0.012,-1.005
2026/06/04 08:43:23.347,0.07,-0.013,-1.002
2026/06/04 08:43:23.366,0.071,-0.014,-1.001
2026/06/04 08:43:23.385,0.068,-0.015,-1.005
2026/06/04 08:43:23.404,0.065,-0.012,-1.005
2026/06/04 08:43:23.423,0.072,-0.011,-1.001
2026/06/04 08:43:23.442,0.064,-0.014,-1.008
2026/06/04 08:43:23.462,0.07,-0.01,-1.0
2026/06/04 08:43:23.481,0.063,-0.014,-1.001
2026/06/04 08:43:23.500,0.07,-0.012,-1.004
2026/06/04 08:43:23.519,0.066,-0.011,-1.0
2026/06/04 08:43:23.538,0.07,-0.014,-0.996
2026/06/04 08:43:23.557,0.069,-0.012,-1.002
2026/06/04 08:43:23.576,0.075,-0.012,-0.996
2026/06/04 08:43:23.596,0.065,-0.014,-0.998
2026/06/04 08:43:23.615,0.071,-0.012,-1.007
2026/06/04 08:43:23.634,0.071,-0.016,-1.0
2026/06/04 08:43:23.653,0.067,-0.01,-0.997
2026/06/04 08:43:23.672,0.068,-0.01,-1.006
2026/06/04 08:43:23.691,0.068,-0.012,-1.003
2026/06/04 08:43:23.711,0.071,-0.017,-0.999
2026/06/04 08:43:23.730,0.069,-0.018,-0.997
2026/06/04 08:43:23.749,0.066,-0.011,-0.997
2026/06/04 08:43:23.768,0.067,-0.013,-1.0
2026/06/04 08:43:23.787,0.067,-0.012,-1.005
2026/06/04 08:43:23.806,0.064,-0.015,-0.998
2026/06/04 08:43:23.826,0.073,-0.017,-1.005
2026/06/04 08:43:23.845,0.067,-0.013,-1.004
2026/06/04 08:43:23.864,0.067,-0.016,-1.003
2026/06/04 08:43:23.883,0.069,-0.015,-1.002
2026/06/04 08:43:23.902,0.065,-0.012,-1.0
2026/06/04 08:43:23.921,0.068,-0.011,-1.006
2026/06/04 08:43:23.941,0.065,-0.015,-1.003
2026/06/04 08:43:23.960,0.066,-0.013,-0.995
2026/06/04 08:43:23.979,0.068,-0.014,-0.999
2026/06/04 08:43:23.998,0.068,-0.014,-1.001
2026/06/04 08:43:24.017,0.069,-0.009,-1.009
2026/06/04 08:43:24.036,0.071,-0.009,-1.004
2026/06/04 08:43:24.055,0.064,-0.011,-1.002
2026/06/04 08:43:24.075,0.071,-0.014,-0.999
2026/06/04 08:43:24.094,0.067,-0.015,-1.002
2026/06/04 08:43:24.113,0.067,-0.008,-1.001
2026/06/04 08:43:24.132,0.068,-0.014,-1.0
2026/06/04 08:43:24.151,0.07,-0.011,-0.997
2026/06/04 08:43:24.170,0.067,-0.012,-1.006
2026/06/04 08:43:24.190,0.067,-0.015,-1.005
2026/06/04 08:43:24.209,0.066,-0.012,-1.001
2026/06/04 08:43:24.228,0.067,-0.009,-1.003
2026/06/04 08:43:24.247,0.06,-0.011,-1.001
2026/06/04 08:43:24.266,0.066,-0.014,-1.001
2026/06/04 08:43:24.285,0.066,-0.009,-1.0
2026/06/04 08:43:24.305,0.064,-0.014,-1.0
2026/06/04 08:43:24.324,0.065,-0.014,-1.003
2026/06/04 08:43:24.343,0.071,-0.01,-0.996
2026/06/04 08:43:24.362,0.066,-0.015,-1.003
2026/06/04 08:43:24.381,0.067,-0.011,-1.009
2026/06/04 08:43:24.400,0.066,-0.008,-1.001
2026/06/04 08:43:24.420,0.068,-0.014,-1.003
2026/06/04 08:43:24.439,0.07,-0.012,-0.996
2026/06/04 08:43:24.458,0.07,-0.013,-0.999
2026/06/04 08:43:24.477,0.066,-0.014,-1.0
2026/06/04 08:43:24.496,0.069,-0.011,-1.004
2026/06/04 08:43:24.515,0.069,-0.01,-1.006
2026/06/04 08:43:24.534,0.07,-0.008,-1.002
2026/06/04 08:43:24.554,0.068,-0.015,-0.996
2026/06/04 08:43:24.573,0.068,-0.015,-0.999
2026/06/04 08:43:24.592,0.067,-0.01,-1.003
2026/06/04 08:43:24.611,0.065,-0.013,-0.998
2026/06/04 08:43:24.630,0.066,-0.011,-1.007
2026/06/04 08:43:24.649,0.066,-0.012,-1.002
2026/06/04 08:43:24.669,0.065,-0.016,-1.001
2026/06/04 08:43:24.688,0.07,-0.017,-1.001
2026/06/04 08:43:24.707,0.07,-0.013,-0.999
2026/06/04 08:43:24.726,0.069,-0.012,-1.006
2026/06/04 08:43:24.745,0.072,-0.016,-0.999
2026/06/04 08:43:24.764,0.068,-0.012,-1.002
2026/06/04 08:43:24.784,0.065,-0.012,-1.001
2026/06/04 08:43:24.803,0.065,-0.011,-1.005
2026/06/04 08:43:24.822,0.061,-0.011,-1.005
2026/06/04 08:43:24.841,0.07,-0.013,-1.003
2026/06/04 08:43:24.860,0.064,-0.013,-0.999
2026/06/04 08:43:24.879,0.07,-0.015,-0.999
2026/06/04 08:43:24.899,0.065,-0.015,-1.006
2026/06/04 08:43:24.918,0.067,-0.012,-0.995
2026/06/04 08:43:24.937,0.071,-0.013,-0.971
2026/06/04 08:43:24.956,0.066,-0.005,-1.007
2026/06/04 08:43:24.975,0.072,-0.009,-1.015
2026/06/04 08:43:24.994,0.069,-0.012,-0.995
2026/06/04 08:43:25.014,0.072,-0.018,-0.992
2026/06/04 08:43:25.033,0.072,-0.015,-1.004
2026/06/04 08:43:25.052,0.069,-0.014,-1.007
2026/06/04 08:43:25.071,0.069,-0.01,-1.004
2026/06/04 08:43:25.090,0.072,-0.014,-1.003
2026/06/04 08:43:25.109,0.067,-0.017,-0.995
2026/06/04 08:43:25.128,0.07,-0.009,-0.98
2026/06/04 08:43:25.148,0.061,-0.013,-1.043
2026/06/04 08:43:25.167,0.071,-0.009,-0.983
2026/06/04 08:43:25.186,0.071,-0.016,-0.989
2026/06/04 08:43:25.205,0.073,-0.016,-0.995
2026/06/04 08:43:25.224,0.072,-0.013,-0.985
2026/06/04 08:43:25.243,0.066,-0.015,-1.0
2026/06/04 08:43:25.263,0.065,-0.008,-1.005
2026/06/04 08:43:25.282,0.072,-0.01,-1.008
2026/06/04 08:43:25.301,0.074,-0.014,-1.009
2026/06/04 08:43:25.320,0.072,-0.017,-0.999
2026/06/04 08:43:25.339,0.065,-0.015,-0.993
2026/06/04 08:43:25.358,0.072,-0.011,-1.004
2026/06/04 08:43:25.378,0.062,-0.01,-1.006
2026/06/04 08:43:25.397,0.073,-0.012,-1.005
2026/06/04 08:43:25.416,0.072,-0.014,-0.993
2026/06/04 08:43:25.435,0.069,-0.015,-0.995
2026/06/04 08:43:25.454,0.082,-0.02,-1.347
2026/06/04 08:43:25.473,0.058,-0.029,-0.927
2026/06/04 08:43:25.492,0.089,0.01,-0.94
2026/06/04 08:43:25.512,0.064,-0.024,-1.021
2026/06/04 08:43:25.531,0.073,-0.017,-1.032
2026/06/04 08:43:25.550,0.08,-0.006,-0.997
2026/06/04 08:43:25.569,0.073,-0.016,-0.987
2026/06/04 08:43:25.588,0.073,-0.007,-1.006
2026/06/04 08:43:25.607,0.069,-0.011,-1.013
2026/06/04 08:43:25.627,0.067,-0.006,-1.005
2026/06/04 08:43:25.646,0.065,-0.011,-1.002
2026/06/04 08:43:25.665,0.068,-0.015,-0.991
2026/06/04 08:43:25.684,0.075,-0.013,-1.003
2026/06/04 08:43:25.703,0.069,-0.013,-1.002
2026/06/04 08:43:25.722,0.066,-0.008,-1.007
2026/06/04 08:43:25.742,0.068,-0.013,-1.011
2026/06/04 08:43:25.761,0.071,-0.017,-1.005
2026/06/04 08:43:25.780,0.068,-0.014,-0.997
2026/06/04 08:43:25.799,0.064,-0.006,-1.001
2026/06/04 08:43:25.818,0.064,-0.014,-1.006
2026/06/04 08:43:25.837,0.073,-0.015,-1.011
2026/06/04 08:43:25.857,0.071,-0.015,-0.996
2026/06/04 08:43:25.876,0.069,-0.015,-0.994
2026/06/04 08:43:25.895,0.068,-0.011,-0.998
2026/06/04 08:43:25.914,0.073,-0.017,-1.001
2026/06/04 08:43:25.933,0.074,-0.014,-1.003
2026/06/04 08:43:25.952,0.069,-0.008,-1.007
2026/06/04 08:43:25.971,0.068,-0.013,-1.004
2026/06/04 08:43:25.991,0.063,-0.014,-0.996
2026/06/04 08:43:26.010,0.07,-0.013,-1.011
2026/06/04 08:43:26.029,0.064,-0.016,-1.004
2026/06/04 08:43:26.048,0.065,-0.014,-1.003
2026/06/04 08:43:26.067,0.065,-0.01,-1.004
2026/06/04 08:43:26.086,0.07,-0.017,-1.005
2026/06/04 08:43:26.106,0.068,-0.017,-1.003
2026/06/04 08:43:26.125,0.065,-0.014,-1.0
2026/06/04 08:43:26.144,0.072,-0.014,-1.004
2026/06/04 08:43:26.163,0.064,-0.012,-1.0
2026/06/04 08:43:26.182,0.07,-0.014,-1.0
2026/06/04 08:43:26.201,0.065,-0.01,-1.005
2026/06/04 08:43:26.221,0.072,-0.012,-1.0
2026/06/04 08:43:26.240,0.07,-0.014,-1.003
2026/06/04 08:43:26.259,0.07,-0.01,-1.007
2026/06/04 08:43:26.278,0.071,-0.013,-1.0
2026/06/04 08:43:26.297,0.065,-0.009,-0.992
2026/06/04 08:43:26.316,0.068,-0.011,-0.999
2026/06/04 08:43:26.335,0.074,-0.014,-1.003
2026/06/04 08:43:26.355,0.069,-0.009,-0.997
2026/06/04 08:43:26.374,0.067,-0.013,-1.001
2026/06/04 08:43:26.393,0.067,-0.01,-1.001
2026/06/04 08:43:26.412,0.073,-0.012,-1.002
2026/06/04 08:43:26.431,0.072,-0.014,-1.004
2026/06/04 08:43:26.450,0.07,-0.013,-1.007
2026/06/04 08:43:26.470,0.071,-0.011,-1.009
2026/06/04 08:43:26.489,0.067,-0.013,-0.999
2026/06/04 08:43:26.508,0.067,-0.012,-1.002
2026/06/04 08:43:26.527,0.063,-0.013,-1.004
2026/06/04 08:43:26.546,0.07,-0.015,-1.008
2026/06/04 08:43:26.565,0.066,-0.013,-1.002
2026/06/04 08:43:26.585,0.07,-0.01,-1.001
2026/06/04 08:43:26.604,0.066,-0.014,-1.003
2026/06/04 08:43:26.623,0.067,-0.009,-1.005
2026/06/04 08:43:26.642,0.07,-0.013,-1.001
2026/06/04 08:43:26.661,0.067,-0.014,-0.999
2026/06/04 08:43:26.680,0.071,-0.013,-1.003
2026/06/04 08:43:26.699,0.068,-0.015,-1.01
2026/06/04 08:43:26.719,0.07,-0.015,-1.002
2026/06/04 08:43:26.738,0.072,-0.013,-1.0
2026/06/04 08:43:26.757,0.067,-0.015,-1.002
2026/06/04 08:43:26.776,0.073,-0.01,-1.001
2026/06/04 08:43:26.795,0.067,-0.012,-1.001
2026/06/04 08:43:26.814,0.072,-0.011,-1.007
2026/06/04 08:43:26.834,0.072,-0.012,-1.002
2026/06/04 08:43:26.853,0.069,-0.012,-0.999
2026/06/04 08:43:26.872,0.069,-0.014,-1.001
2026/06/04 08:43:26.891,0.07,-0.012,-1.005
2026/06/04 08:43:26.910,0.07,-0.01,-1.004
2026/06/04 08:43:26.929,0.065,-0.012,-0.998
2026/06/04 08:43:26.949,0.066,-0.009,-0.998
2026/06/04 08:43:26.968,0.065,-0.013,-1.0
2026/06/04 08:43:26.987,0.068,-0.011,-1.0
2026/06/04 08:43:27.006,0.067,-0.009,-1.002
2026/06/04 08:43:27.025,0.067,-0.015,-1.001
2026/06/04 08:43:27.044,0.058,-0.007,-0.966
2026/06/04 08:43:27.064,0.058,-0.036,-1.012
2026/06/04 08:43:27.083,0.061,-0.001,-1.03
2026/06/04 08:43:27.102,0.067,-0.006,-0.997
2026/06/04 08:43:27.121,0.073,-0.009,-0.996
2026/06/04 08:43:27.140,0.062,-0.01,-1.024
2026/06/04 08:43:27.159,0.062,-0.007,-1.002
2026/06/04 08:43:27.178,0.064,-0.007,-1.01
2026/06/04 08:43:27.198,0.06,-0.02,-1.083
2026/06/04 08:43:27.217,0.066,-0.01,-0.989
2026/06/04 08:43:27.236,0.064,-0.001,-0.984
2026/06/04 08:43:27.255,0.067,-0.01,-0.996
2026/06/04 08:43:27.274,0.066,-0.011,-1.011
2026/06/04 08:43:27.293,0.064,-0.012,-1.01
2026/06/04 08:43:27.313,0.067,-0.011,-0.99
2026/06/04 08:43:27.332,0.064,-0.01,-0.998
2026/06/04 08:43:27.351,0.067,-0.012,-1.056
2026/06/04 08:43:27.370,0.067,-0.014,-1.027
2026/06/04 08:43:27.389,0.067,-0.016,-1.034
2026/06/04 08:43:27.408,0.064,-0.013,-1.006
2026/06/04 08:43:27.428,0.069,-0.009,-0.988
2026/06/04 08:43:27.447,0.071,-0.012,-0.991
2026/06/04 08:43:27.466,0.07,-0.011,-1.008
2026/06/04 08:43:27.485,0.066,-0.012,-1.004
2026/06/04 08:43:27.504,0.072,-0.014,-1.003
2026/06/04 08:43:27.523,0.071,-0.012,-1.001
2026/06/04 08:43:27.542,0.071,-0.011,-1.006
2026/06/04 08:43:27.562,0.067,-0.014,-1.0
2026/06/04 08:43:27.581,0.072,-0.012,-1.006
2026/06/04 08:43:27.600,0.068,-0.016,-1.006
2026/06/04 08:43:27.619,0.072,-0.012,-1.003
2026/06/04 08:43:27.638,0.072,-0.01,-1.002
2026/06/04 08:43:27.657,0.07,-0.01,-1.011
2026/06/04 08:43:27.677,0.069,-0.009,-1.005
2026/06/04 08:43:27.696,0.068,-0.009,-1.01
2026/06/04 08:43:27.715,0.068,-0.012,-1.008
2026/06/04 08:43:27.734,0.069,-0.018,-1.002
2026/06/04 08:43:27.753,0.066,-0.013,-1.004
2026/06/04 08:43:27.772,0.066,-0.012,-1.003
2026/06/04 08:43:27.792,0.066,-0.01,-1.003
2026/06/04 08:43:27.811,0.067,-0.009,-0.996
2026/06/04 08:43:27.830,0.071,-0.009,-1.0
2026/06/04 08:43:27.849,0.071,-0.014,-0.997
2026/06/04 08:43:27.868,0.071,-0.013,-1.002
2026/06/04 08:43:27.887,0.065,-0.011,-1.005
2026/06/04 08:43:27.906,0.067,-0.008,-1.006
2026/06/04 08:43:27.926,0.067,-0.013,-0.999
2026/06/04 08:43:27.945,0.071,-0.008,-0.999
2026/06/04 08:43:27.964,0.068,-0.014,-0.999
2026/06/04 08:43:27.983,0.067,-0.013,-1.01
2026/06/04 08:43:28.002,0.069,-0.012,-1.008
2026/06/04 08:43:28.021,0.067,-0.009,-1.005
2026/06/04 08:43:28.041,0.069,-0.009,-1.004
2026/06/04 08:43:28.060,0.069,-0.009,-1.002
2026/06/04 08:43:28.079,0.067,-0.006,-1.005
2026/06/04 08:43:28.098,0.062,-0.006,-1.004
2026/06/04 08:43:28.117,0.058,-0.023,-1.16
2026/06/04 08:43:28.136,0.061,-0.017,-1.002
2026/06/04 08:43:28.156,0.064,-0.008,-0.998
2026/06/04 08:43:28.175,0.067,-0.008,-0.999
2026/06/04 08:43:28.194,0.068,-0.012,-0.994
2026/06/04 08:43:28.213,0.062,-0.015,-1.022
2026/06/04 08:43:28.232,0.071,-0.018,-1.008
2026/06/04 08:43:28.251,0.069,-0.013,-0.975
2026/06/04 08:43:28.271,0.063,-0.015,-1.007
2026/06/04 08:43:28.290,0.064,-0.007,-1.003
2026/06/04 08:43:28.309,0.07,-0.011,-0.995
2026/06/04 08:43:28.328,0.07,-0.013,-1.001
2026/06/04 08:43:28.347,0.065,-0.009,-1.0
2026/06/04 08:43:28.366,0.064,-0.01,-1.002
2026/06/04 08:43:28.385,0.07,-0.008,-1.004
2026/06/04 08:43:28.405,0.063,-0.009,-1.001
2026/06/04 08:43:28.424,0.061,-0.009,-1.003
2026/06/04 08:43:28.443,0.062,-0.009,-1.003
2026/06/04 08:43:28.462,0.068,-0.008,-1.005
2026/06/04 08:43:28.481,0.068,-0.01,-1.006
2026/06/04 08:43:28.500,0.067,-0.01,-1.007
2026/06/04 08:43:28.520,0.064,-0.005,-1.004
2026/06/04 08:43:28.539,0.063,-0.008,-0.999
2026/06/04 08:43:28.558,0.066,-0.012,-0.997
2026/06/04 08:43:28.577,0.067,-0.011,-0.999
2026/06/04 08:43:28.596,0.067,-0.011,-1.0
2026/06/04 08:43:28.615,0.064,-0.006,-1.006
2026/06/04 08:43:28.635,0.068,-0.009,-1.0
2026/06/04 08:43:28.654,0.061,-0.01,-1.0
2026/06/04 08:43:28.673,0.065,-0.009,-1.005
2026/06/04 08:43:28.692,0.066,-0.005,-1.006
2026/06/04 08:43:28.711,0.06,-0.009,-0.999
2026/06/04 08:43:28.730,0.061,-0.016,-1.003
2026/06/04 08:43:28.749,0.068,-0.01,-1.001
2026/06/04 08:43:28.769,0.063,-0.011,-1.001
2026/06/04 08:43:28.788,0.07,-0.013,-1.003
2026/06/04 08:43:28.807,0.069,-0.011,-0.995
2026/06/04 08:43:28.826,0.066,-0.012,-0.995
2026/06/04 08:43:28.845,0.062,-0.006,-1.006
2026/06/04 08:43:28.864,0.062,-0.011,-1.002
2026/06/04 08:43:28.884,0.063,-0.007,-1.007
2026/06/04 08:43:28.903,0.062,-0.008,-1.008
2026/06/04 08:43:28.922,0.066,-0.009,-1.006
2026/06/04 08:43:28.941,0.061,-0.007,-1.006
2026/06/04 08:43:28.960,0.065,-0.011,-1.006
2026/06/04 08:43:28.979,0.057,-0.005,-0.999
2026/06/04 08:43:28.999,0.06,-0.006,-1.001
2026/06/04 08:43:29.018,0.067,-0.018,-0.995
2026/06/04 08:43:29.037,0.067,-0.008,-0.995
2026/06/04 08:43:29.056,0.062,-0.009,-0.997
2026/06/04 08:43:29.075,0.064,-0.011,-0.997
2026/06/04 08:43:29.094,0.066,-0.013,-1.003
2026/06/04 08:43:29.113,0.064,-0.01,-1.001
2026/06/04 08:43:29.133,0.064,-0.011,-0.998
2026/06/04 08:43:29.152,0.067,-0.009,-1.002
2026/06/04 08:43:29.171,0.07,-0.012,-1.005
2026/06/04 08:43:29.190,0.066,-0.007,-1.001
2026/06/04 08:43:29.209,0.066,-0.012,-1.0
2026/06/04 08:43:29.228,0.067,-0.013,-1.009
2026/06/04 08:43:29.248,0.069,-0.014,-0.995
2026/06/04 08:43:29.267,0.068,-0.013,-0.996
2026/06/04 08:43:29.286,0.069,-0.013,-1.0
2026/06/04 08:43:29.305,0.067,-0.007,-1.002
2026/06/04 08:43:29.324,0.061,-0.008,-0.998
2026/06/04 08:43:29.343,0.062,-0.007,-1.008
2026/06/04 08:43:29.363,0.062,-0.008,-0.999
2026/06/04 08:43:29.382,0.065,-0.007,-1.004
2026/06/04 08:43:29.401,0.067,-0.012,-1.002
2026/06/04 08:43:29.420,0.06,-0.006,-0.993
2026/06/04 08:43:29.439,0.063,-0.014,-0.998
2026/06/04 08:43:29.458,0.064,-0.015,-0.999
2026/06/04 08:43:29.478,0.07,-0.012,-0.994
2026/06/04 08:43:29.497,0.065,-0.014,-1.0
2026/06/04 08:43:29.516,0.069,-0.015,-0.994
2026/06/04 08:43:29.535,0.07,-0.015,-0.999
2026/06/04 08:43:29.554,0.068,-0.012,-1.001
2026/06/04 08:43:29.573,0.063,-0.012,-0.998
2026/06/04 08:43:29.592,0.072,-0.013,-0.998
2026/06/04 08:43:29.612,0.069,-0.01,-1.008
2026/06/04 08:43:29.631,0.066,-0.016,-0.998
2026/06/04 08:43:29.650,0.067,-0.012,-0.997
2026/06/04 08:43:29.669,0.069,-0.017,-1.004
2026/06/04 08:43:29.688,0.069,-0.016,-0.995
2026/06/04 08:43:29.707,0.064,-0.013,-1.001
2026/06/04 08:43:29.727,0.063,-0.01,-1.007
2026/06/04 08:43:29.746,0.058,-0.007,-1.004
2026/06/04 08:43:29.765,0.064,-0.007,-1.008
2026/06/04 08:43:29.784,0.061,-0.007,-1.004
2026/06/04 08:43:29.803,0.059,-0.007,-1.0
2026/06/04 08:43:29.822,0.063,-0.008,-1.002
2026/06/04 08:43:29.842,0.06,-0.01,-1.001
2026/06/04 08:43:29.861,0.064,-0.008,-0.998
2026/06/04 08:43:29.880,0.062,-0.007,-0.997
2026/06/04 08:43:29.899,0.064,-0.009,-0.996
2026/06/04 08:43:29.918,0.065,-0.01,-0.998
2026/06/04 08:43:29.937,0.065,-0.01,-0.999
2026/06/04 08:43:29.957,0.071,-0.011,-1.001
2026/06/04 08:43:29.976,0.067,-0.013,-1.005
2026/06/04 08:43:29.995,0.066,-0.011,-1.003
2026/06/04 08:43:30.014,0.068,-0.012,-1.0
2026/06/04 08:43:30.033,0.069,-0.01,-1.003
2026/06/04 08:43:30.052,0.069,-0.011,-0.998
2026/06/04 08:43:30.071,0.069,-0.014,-0.994
2026/06/04 08:43:30.091,0.069,-0.009,-1.004
2026/06/04 08:43:30.110,0.066,-0.011,-0.998
2026/06/04 08:43:30.129,0.068,-0.015,-0.998
2026/06/04 08:43:30.148,0.067,-0.011,-1.004
2026/06/04 08:43:30.167,0.068,-0.01,-1.007
2026/06/04 08:43:30.186,0.062,-0.007,-1.003
2026/06/04 08:43:30.206,0.058,-0.01,-1.004
2026/06/04 08:43:30.225,0.063,-0.01,-1.001
2026/06/04 08:43:30.244,0.062,-0.011,-1.001
2026/06/04 08:43:30.263,0.063,-0.005,-0.996
2026/06/04 08:43:30.282,0.066,-0.018,-1.003
2026/06/04 08:43:30.301,0.065,-0.009,-0.998
2026/06/04 08:43:30.321,0.072,-0.014,-0.991
2026/06/04 08:43:30.340,0.064,-0.01,-1.0
2026/06/04 08:43:30.359,0.067,-0.012,-1.002
2026/06/04 08:43:30.378,0.068,-0.009,-1.004
2026/06/04 08:43:30.397,0.068,-0.01,-1.005
2026/06/04 08:43:30.416,0.07,-0.011,-0.999
2026/06/04 08:43:30.435,0.071,-0.011,-1.0
2026/06/04 08:43:30.455,0.07,-0.011,-0.999
2026/06/04 08:43:30.474,0.069,-0.013,-0.999
2026/06/04 08:43:30.493,0.066,-0.014,-1.006
2026/06/04 08:43:30.512,0.067,-0.012,-1.0
2026/06/04 08:43:30.531,0.072,-0.012,-0.996
2026/06/04 08:43:30.550,0.066,-0.014,-0.995
2026/06/04 08:43:30.570,0.064,-0.008,-0.999
2026/06/04 08:43:30.589,0.065,-0.007,-1.004
2026/06/04 08:43:30.608,0.065,-0.005,-1.002
2026/06/04 08:43:30.627,0.061,-0.006,-1.001
2026/06/04 08:43:30.646,0.059,-0.008,-0.998
2026/06/04 08:43:30.665,0.06,-0.007,-0.996
2026/06/04 08:43:30.685,0.059,-0.009,-1.0
2026/06/04 08:43:30.704,0.062,-0.011,-0.996
2026/06/04 08:43:30.723,0.068,-0.011,-1.002
2026/06/04 08:43:30.742,0.065,-0.012,-0.997
2026/06/04 08:43:30.761,0.067,-0.01,-0.999
2026/06/04 08:43:30.780,0.07,-0.01,-1.003
2026/06/04 08:43:30.800,0.068,-0.015,-1.003
2026/06/04 08:43:30.819,0.067,-0.013,-1.001
2026/06/04 08:43:30.838,0.07,-0.015,-1.002
2026/06/04 08:43:30.857,0.069,-0.013,-1.001
2026/06/04 08:43:30.876,0.069,-0.014,-1.005
2026/06/04 08:43:30.895,0.069,-0.006,-1.004
2026/06/04 08:43:30.914,0.066,-0.012,-1.007
2026/06/04 08:43:30.934,0.065,-0.008,-1.0
2026/06/04 08:43:30.953,0.068,-0.015,-1.01
2026/06/04 08:43:30.972,0.066,-0.011,-0.999
2026/06/04 08:43:30.991,0.067,-0.009,-1.001
2026/06/04 08:43:31.010,0.065,-0.011,-1.01
2026/06/04 08:43:31.029,0.067,-0.01,-0.997
2026/06/04 08:43:31.049,0.066,-0.013,-0.994
2026/06/04 08:43:31.068,0.063,-0.008,-0.995
2026/06/04 08:43:31.087,0.065,-0.014,-0.996
2026/06/04 08:43:31.106,0.068,-0.017,-0.997
2026/06/04 08:43:31.125,0.067,-0.017,-0.997
2026/06/04 08:43:31.144,0.072,-0.015,-0.999
2026/06/04 08:43:31.164,0.071,-0.014,-1.0
2026/06/04 08:43:31.183,0.069,-0.016,-1.002
2026/06/04 08:43:31.202,0.072,-0.011,-0.998
2026/06/04 08:43:31.221,0.071,-0.016,-0.997
2026/06/04 08:43:31.240,0.07,-0.009,-1.002
2026/06/04 08:43:31.259,0.064,-0.009,-1.004
2026/06/04 08:43:31.279,0.068,-0.011,-1.001
2026/06/04 08:43:31.298,0.067,-0.013,-1.006
2026/06/04 08:43:31.317,0.063,-0.014,-1.001
2026/06/04 08:43:31.336,0.069,-0.012,-0.999
2026/06/04 08:43:31.355,0.06,-0.014,-0.999
2026/06/04 08:43:31.374,0.067,-0.014,-1.003
2026/06/04 08:43:31.393,0.068,-0.013,-0.996
2026/06/04 08:43:31.413,0.07,-0.015,-0.997
2026/06/04 08:43:31.432,0.065,-0.014,-0.995
2026/06/04 08:43:31.451,0.071,-0.016,-0.996
2026/06/04 08:43:31.470,0.074,-0.018,-0.999
2026/06/04 08:43:31.489,0.074,-0.018,-0.998
2026/06/04 08:43:31.508,0.074,-0.02,-1.0
2026/06/04 08:43:31.528,0.071,-0.015,-0.997
2026/06/04 08:43:31.547,0.072,-0.016,-1.002
2026/06/04 08:43:31.566,0.072,-0.017,-1.0
2026/06/04 08:43:31.585,0.075,-0.015,-0.998
2026/06/04 08:43:31.604,0.07,-0.013,-1.004
2026/06/04 08:43:31.623,0.073,-0.015,-1.003
2026/06/04 08:43:31.643,0.074,-0.007,-1.001
2026/06/04 08:43:31.662,0.069,-0.011,-1.0
2026/06/04 08:43:31.681,0.072,-0.016,-1.002
2026/06/04 08:43:31.700,0.071,-0.015,-1.006
2026/06/04 08:43:31.719,0.068,-0.01,-1.004
2026/06/04 08:43:31.738,0.069,-0.011,-1.004
2026/06/04 08:43:31.758,0.07,-0.014,-1.006
2026/06/04 08:43:31.777,0.069,-0.011,-1.005
2026/06/04 08:43:31.796,0.067,-0.01,-1.005
2026/06/04 08:43:31.815,0.07,-0.014,-1.005
2026/06/04 08:43:31.834,0.072,-0.016,-0.995
2026/06/04 08:43:31.853,0.073,-0.016,-0.998
2026/06/04 08:43:31.872,0.073,-0.016,-0.996
2026/06/04 08:43:31.892,0.07,-0.014,-0.994
2026/06/04 08:43:31.911,0.074,-0.016,-0.999
2026/06/04 08:43:31.930,0.07,-0.013,-0.999
2026/06/04 08:43:31.949,0.068,-0.013,-1.0
2026/06/04 08:43:31.968,0.074,-0.016,-1.001
2026/06/04 08:43:31.987,0.071,-0.015,-1.002
2026/06/04 08:43:32.007,0.071,-0.016,-1.005
2026/06/04 08:43:32.026,0.072,-0.017,-0.997
2026/06/04 08:43:32.045,0.073,-0.014,-1.006
2026/06/04 08:43:32.064,0.073,-0.013,-1.006
2026/06/04 08:43:32.083,0.068,-0.014,-0.997
2026/06/04 08:43:32.102,0.065,-0.011,-1.002
2026/06/04 08:43:32.122,0.071,-0.011,-1.003
2026/06/04 08:43:32.141,0.07,-0.012,-1.005
2026/06/04 08:43:32.160,0.069,-0.011,-0.998
2026/06/04 08:43:32.179,0.07,-0.011,-1.001
2026/06/04 08:43:32.198,0.071,-0.011,-0.998
2026/06/04 08:43:32.217,0.065,-0.01,-0.997
2026/06/04 08:43:32.237,0.065,-0.008,-1.002
2026/06/04 08:43:32.256,0.069,-0.011,-0.998
2026/06/04 08:43:32.275,0.07,-0.014,-0.999
2026/06/04 08:43:32.294,0.072,-0.019,-0.999
2026/06/04 08:43:32.313,0.076,-0.021,-0.997
2026/06/04 08:43:32.332,0.071,-0.015,-0.995
2026/06/04 08:43:32.351,0.077,-0.011,-0.998
2026/06/04 08:43:32.371,0.077,-0.015,-0.996
2026/06/04 08:43:32.390,0.078,-0.017,-1.0
2026/06/04 08:43:32.409,0.077,-0.014,-0.997
2026/06/04 08:43:32.428,0.073,-0.017,-1.0
2026/06/04 08:43:32.447,0.07,-0.01,-1.003
2026/06/04 08:43:32.466,0.069,-0.015,-1.01
2026/06/04 08:43:32.486,0.071,-0.015,-0.997
2026/06/04 08:43:32.505,0.074,-0.012,-1.004
2026/06/04 08:43:32.524,0.074,-0.01,-1.004
2026/06/04 08:43:32.543,0.067,-0.013,-0.994
2026/06/04 08:43:32.562,0.065,-0.009,-1.006
2026/06/04 08:43:32.581,0.074,-0.015,-1.002
2026/06/04 08:43:32.601,0.067,-0.013,-1.003
2026/06/04 08:43:32.620,0.07,-0.013,-0.995
2026/06/04 08:43:32.639,0.07,-0.01,-0.998
2026/06/04 08:43:32.658,0.07,-0.01,-0.995
2026/06/04 08:43:32.677,0.069,-0.009,-1.007
2026/06/04 08:43:32.696,0.067,-0.015,-1.007
2026/06/04 08:43:32.716,0.069,-0.011,-1.001
2026/06/04 08:43:32.735,0.071,-0.012,-1.002
2026/06/04 08:43:32.754,0.073,-0.013,-0.997
2026/06/04 08:43:32.773,0.075,-0.014,-1.002
2026/06/04 08:43:32.792,0.071,-0.015,-1.0
2026/06/04 08:43:32.811,0.072,-0.011,-1.007
2026/06/04 08:43:32.830,0.071,-0.009,-1.005
2026/06/04 08:43:32.850,0.07,-0.013,-0.996
2026/06/04 08:43:32.869,0.069,-0.012,-1.0
2026/06/04 08:43:32.888,0.071,-0.012,-1.005
2026/06/04 08:43:32.907,0.071,-0.014,-0.994
2026/06/04 08:43:32.926,0.067,-0.012,-1.004
2026/06/04 08:43:32.945,0.066,-0.007,-0.999
2026/06/04 08:43:32.965,0.073,-0.014,-1.001
2026/06/04 08:43:32.984,0.068,-0.012,-1.0
2026/06/04 08:43:33.003,0.072,-0.011,-1.002
2026/06/04 08:43:33.022,0.069,-0.013,-0.997
2026/06/04 08:43:33.041,0.072,-0.011,-1.0
2026/06/04 08:43:33.060,0.068,-0.013,-1.003
2026/06/04 08:43:33.080,0.066,-0.013,-1.003
2026/06/04 08:43:33.099,0.064,-0.01,-1.004
2026/06/04 08:43:33.118,0.066,-0.013,-1.005
2026/06/04 08:43:33.137,0.071,-0.012,-1.005
2026/06/04 08:43:33.156,0.072,-0.018,-0.997
2026/06/04 08:43:33.175,0.069,-0.014,-0.998
2026/06/04 08:43:33.195,0.072,-0.017,-0.998
2026/06/04 08:43:33.214,0.072,-0.017,-0.995
2026/06/04 08:43:33.233,0.072,-0.016,-0.999
2026/06/04 08:43:33.252,0.075,-0.018,-1.0
2026/06/04 08:43:33.271,0.075,-0.015,-1.0
2026/06/04 08:43:33.290,0.072,-0.015,-1.001
2026/06/04 08:43:33.309,0.074,-0.012,-1.003
2026/06/04 08:43:33.329,0.071,-0.015,-1.001
2026/06/04 08:43:33.348,0.069,-0.014,-1.003
2026/06/04 08:43:33.367,0.069,-0.013,-1.0
2026/06/04 08:43:33.386,0.066,-0.014,-0.996
2026/06/04 08:43:33.405,0.069,-0.013,-1.005
2026/06/04 08:43:33.424,0.072,-0.017,-1.005
2026/06/04 08:43:33.444,0.067,-0.015,-0.998
2026/06/04 08:43:33.463,0.064,-0.01,-1.018
2026/06/04 08:43:33.482,0.068,-0.011,-0.998
2026/06/04 08:43:33.501,0.07,-0.013,-1.003
2026/06/04 08:43:33.520,0.072,-0.018,-0.997
2026/06/04 08:43:33.539,0.07,-0.016,-1.003
2026/06/04 08:43:33.559,0.072,-0.015,-1.007
2026/06/04 08:43:33.578,0.074,-0.017,-1.001
2026/06/04 08:43:33.597,0.072,-0.013,-1.0
2026/06/04 08:43:33.616,0.073,-0.02,-1.001
2026/06/04 08:43:33.635,0.074,-0.016,-0.995
2026/06/04 08:43:33.654,0.073,-0.018,-1.002
2026/06/04 08:43:33.674,0.075,-0.015,-1.006
2026/06/04 08:43:33.693,0.072,-0.016,-1.003
2026/06/04 08:43:33.712,0.075,-0.012,-1.003
2026/06/04 08:43:33.731,0.07,-0.014,-1.002
2026/06/04 08:43:33.750,0.071,-0.011,-0.996
2026/06/04 08:43:33.769,0.071,-0.011,-1.007
2026/06/04 08:43:33.788,0.07,-0.013,-0.996
2026/06/04 08:43:33.808,0.068,-0.009,-1.01
2026/06/04 08:43:33.827,0.073,-0.015,-1.001
2026/06/04 08:43:33.846,0.071,-0.013,-0.996
2026/06/04 08:43:33.865,0.073,-0.013,-1.0
2026/06/04 08:43:33.884,0.068,-0.013,-1.005
2026/06/04 08:43:33.903,0.071,-0.012,-1.004
2026/06/04 08:43:33.923,0.071,-0.012,-1.0
2026/06/04 08:43:33.942,0.069,-0.015,-0.999
2026/06/04 08:43:33.961,0.07,-0.013,-1.0
2026/06/04 08:43:33.980,0.065,-0.011,-1.003
2026/06/04 08:43:33.999,0.071,-0.01,-1.004
2026/06/04 08:43:34.018,0.071,-0.016,-1.004
2026/06/04 08:43:34.038,0.076,-0.014,-1.002
2026/06/04 08:43:34.057,0.076,-0.017,-0.999
2026/06/04 08:43:34.076,0.071,-0.017,-1.006
2026/06/04 08:43:34.095,0.075,-0.011,-1.003
2026/06/04 08:43:34.114,0.073,-0.012,-1.006
2026/06/04 08:43:34.133,0.074,-0.013,-1.004
2026/06/04 08:43:34.152,0.071,-0.014,-1.006
2026/06/04 08:43:34.172,0.073,-0.009,-1.006
2026/06/04 08:43:34.191,0.069,-0.009,-0.998
2026/06/04 08:43:34.210,0.069,-0.014,-1.004
2026/06/04 08:43:34.229,0.068,-0.009,-1.004
2026/06/04 08:43:34.248,0.068,-0.013,-1.0
2026/06/04 08:43:34.267,0.071,-0.009,-1.003
2026/06/04 08:43:34.287,0.068,-0.012,-0.999
2026/06/04 08:43:34.306,0.066,-0.009,-1.003
2026/06/04 08:43:34.325,0.071,-0.013,-1.0
2026/06/04 08:43:34.344,0.069,-0.009,-0.999
2026/06/04 08:43:34.363,0.069,-0.013,-1.007
2026/06/04 08:43:34.382,0.072,-0.012,-0.999
2026/06/04 08:43:34.402,0.071,-0.012,-0.996
2026/06/04 08:43:34.421,0.07,-0.015,-1.004
2026/06/04 08:43:34.440,0.074,-0.019,-1.004
2026/06/04 08:43:34.459,0.074,-0.018,-1.006
2026/06/04 08:43:34.478,0.074,-0.017,-0.997
2026/06/04 08:43:34.497,0.078,-0.016,-1.006
2026/06/04 08:43:34.516,0.074,-0.019,-1.001
2026/06/04 08:43:34.536,0.076,-0.014,-1.0
2026/06/04 08:43:34.555,0.072,-0.011,-1.003
2026/06/04 08:43:34.574,0.071,-0.014,-1.005
2026/06/04 08:43:34.593,0.075,-0.01,-1.001
2026/06/04 08:43:34.612,0.07,-0.015,-1.003
2026/06/04 08:43:34.631,0.066,-0.01,-1.009
2026/06/04 08:43:34.651,0.069,-0.008,-1.006
2026/06/04 08:43:34.670,0.062,-0.009,-1.001
2026/06/04 08:43:34.689,0.068,-0.017,-1.006
2026/06/04 08:43:34.708,0.07,-0.016,-1.002
2026/06/04 08:43:34.727,0.069,-0.014,-1.002
2026/06/04 08:43:34.746,0.071,-0.015,-1.001
2026/06/04 08:43:34.766,0.068,-0.009,-1.009
2026/06/04 08:43:34.785,0.072,-0.007,-1.0
2026/06/04 08:43:34.804,0.072,-0.013,-1.003
2026/06/04 08:43:34.823,0.071,-0.014,-1.005
2026/06/04 08:43:34.842,0.065,-0.011,-1.005
2026/06/04 08:43:34.861,0.068,-0.012,-1.005
2026/06/04 08:43:34.881,0.071,-0.014,-1.001
2026/06/04 08:43:34.900,0.073,-0.015,-1.003
2026/06/04 08:43:34.919,0.07,-0.016,-1.002
2026/06/04 08:43:34.938,0.072,-0.009,-1.002
2026/06/04 08:43:34.957,0.069,-0.011,-1.001
2026/06/04 08:43:34.976,0.076,-0.013,-1.008
2026/06/04 08:43:34.995,0.071,-0.015,-1.003
2026/06/04 08:43:35.015,0.071,-0.011,-1.003
2026/06/04 08:43:35.034,0.069,-0.014,-1.004
2026/06/04 08:43:35.053,0.069,-0.006,-1.0
2026/06/04 08:43:35.072,0.064,-0.008,-1.002
2026/06/04 08:43:35.091,0.067,-0.01,-1.0
2026/06/04 08:43:35.110,0.069,-0.012,-0.999
2026/06/04 08:43:35.130,0.068,-0.009,-1.002
2026/06/04 08:43:35.149,0.064,-0.003,-0.996
2026/06/04 08:43:35.168,0.067,-0.011,-1.001
2026/06/04 08:43:35.187,0.07,-0.016,-1.004
2026/06/04 08:43:35.206,0.072,-0.013,-0.999
2026/06/04 08:43:35.225,0.069,-0.013,-0.998
2026/06/04 08:43:35.245,0.063,-0.012,-1.006
2026/06/04 08:43:35.264,0.062,-0.011,-1.012
2026/06/04 08:43:35.283,0.066,-0.01,-1.005
2026/06/04 08:43:35.302,0.073,-0.013,-1.002
2026/06/04 08:43:35.321,0.067,-0.015,-1.008
2026/06/04 08:43:35.340,0.076,-0.017,-1.001
2026/06/04 08:43:35.359,0.072,-0.01,-0.995
2026/06/04 08:43:35.379,0.077,-0.01,-1.001
2026/06/04 08:43:35.398,0.07,-0.009,-1.008
2026/06/04 08:43:35.417,0.073,-0.006,-1.0
2026/06/04 08:43:35.436,0.071,-0.015,-1.005
2026/06/04 08:43:35.455,0.068,-0.01,-1.007
2026/06/04 08:43:35.474,0.063,-0.006,-1.007
2026/06/04 08:43:35.494,0.067,-0.012,-1.008
2026/06/04 08:43:35.513,0.062,-0.008,-1.003
2026/06/04 08:43:35.532,0.065,-0.007,-1.008
2026/06/04 08:43:35.551,0.057,-0.006,-1.001
2026/06/04 08:43:35.570,0.068,-0.009,-1.001
2026/06/04 08:43:35.589,0.063,-0.008,-1.003
2026/06/04 08:43:35.609,0.068,-0.009,-1.001
2026/06/04 08:43:35.628,0.069,-0.011,-1.0
2026/06/04 08:43:35.647,0.071,-0.013,-1.006
2026/06/04 08:43:35.666,0.069,-0.014,-0.995
2026/06/04 08:43:35.685,0.066,-0.009,-1.001
2026/06/04 08:43:35.704,0.064,-0.01,-1.007
2026/06/04 08:43:35.723,0.065,-0.012,-1.009
2026/06/04 08:43:35.743,0.069,-0.013,-1.008
2026/06/04 08:43:35.762,0.068,-0.008,-1.007
2026/06/04 08:43:35.781,0.072,-0.013,-1.002
2026/06/04 08:43:35.800,0.069,-0.008,-1.003
2026/06/04 08:43:35.819,0.07,-0.01,-1.001
2026/06/04 08:43:35.838,0.065,-0.011,-1.006
2026/06/04 08:43:35.858,0.073,-0.011,-1.005
2026/06/04 08:43:35.877,0.069,-0.012,-1.003
2026/06/04 08:43:35.896,0.066,-0.012,-1.005
2026/06/04 08:43:35.915,0.065,-0.011,-1.002
2026/06/04 08:43:35.934,0.069,-0.008,-0.998
2026/06/04 08:43:35.953,0.068,-0.013,-1.001
2026/06/04 08:43:35.973,0.068,-0.011,-0.998
2026/06/04 08:43:35.992,0.065,-0.005,-1.001
2026/06/04 08:43:36.011,0.064,-0.01,-1.002
2026/06/04 08:43:36.030,0.065,-0.012,-1.002
2026/06/04 08:43:36.049,0.068,-0.01,-1.004
2026/06/04 08:43:36.068,0.065,-0.012,-1.0
2026/06/04 08:43:36.088,0.07,-0.014,-1.002
2026/06/04 08:43:36.107,0.068,-0.014,-0.996
2026/06/04 08:43:36.126,0.066,-0.013,-0.996
2026/06/04 08:43:36.145,0.062,-0.011,-1.006
2026/06/04 08:43:36.164,0.066,-0.011,-1.006
2026/06/04 08:43:36.183,0.066,-0.008,-1.008
2026/06/04 08:43:36.202,0.07,-0.011,-1.002
2026/06/04 08:43:36.222,0.068,-0.014,-1.003
2026/06/04 08:43:36.241,0.069,-0.01,-1.005
2026/06/04 08:43:36.260,0.068,-0.012,-1.001
2026/06/04 08:43:36.279,0.067,-0.011,-1.002
2026/06/04 08:43:36.298,0.068,-0.009,-1.0
2026/06/04 08:43:36.317,0.066,-0.015,-0.994
2026/06/04 08:43:36.337,0.064,-0.01,-1.001
2026/06/04 08:43:36.356,0.065,-0.012,-1.0
2026/06/04 08:43:36.375,0.062,-0.011,-1.002
2026/06/04 08:43:36.394,0.062,-0.005,-1.005
2026/06/04 08:43:36.413,0.063,-0.011,-1.001
2026/06/04 08:43:36.432,0.061,-0.01,-0.999
2026/06/04 08:43:36.452,0.06,-0.005,-1.003
2026/06/04 08:43:36.471,0.065,-0.007,-0.999
2026/06/04 08:43:36.490,0.063,-0.01,-1.0
2026/06/04 08:43:36.509,0.062,-0.008,-0.996
2026/06/04 08:43:36.528,0.063,-0.009,-1.001
2026/06/04 08:43:36.547,0.066,-0.014,-0.999
2026/06/04 08:43:36.566,0.067,-0.009,-1.0
2026/06/04 08:43:36.586,0.064,-0.005,-1.009
2026/06/04 08:43:36.605,0.066,-0.009,-1.005
2026/06/04 08:43:36.624,0.065,-0.009,-1.007
2026/06/04 08:43:36.643,0.067,-0.007,-1.005
2026/06/04 08:43:36.662,0.067,-0.007,-1.003
2026/06/04 08:43:36.681,0.066,-0.012,-1.005
2026/06/04 08:43:36.701,0.064,-0.009,-1.005
2026/06/04 08:43:36.720,0.062,-0.002,-0.998
2026/06/04 08:43:36.739,0.063,-0.012,-1.004
2026/06/04 08:43:36.758,0.065,-0.011,-1.007
2026/06/04 08:43:36.777,0.071,-0.015,-1.004
2026/06/04 08:43:36.796,0.066,-0.009,-0.998
2026/06/04 08:43:36.816,0.067,-0.014,-1.002
2026/06/04 08:43:36.835,0.068,-0.008,-1.0
2026/06/04 08:43:36.854,0.063,-0.012,-0.997
2026/06/04 08:43:36.873,0.069,-0.014,-1.002
2026/06/04 08:43:36.892,0.065,-0.009,-0.995
2026/06/04 08:43:36.911,0.071,-0.014,-1.005
2026/06/04 08:43:36.930,0.066,-0.009,-0.997
2026/06/04 08:43:36.950,0.07,-0.01,-1.0
2026/06/04 08:43:36.969,0.074,-0.009,-1.0
2026/06/04 08:43:36.988,0.068,-0.012,-0.998
2026/06/04 08:43:37.007,0.066,-0.012,-1.0
2026/06/04 08:43:37.026,0.066,-0.01,-1.004
2026/06/04 08:43:37.045,0.068,-0.008,-1.005
2026/06/04 08:43:37.065,0.075,-0.015,-1.003
2026/06/04 08:43:37.084,0.071,-0.014,-0.993
2026/06/04 08:43:37.103,0.069,-0.011,-0.994
2026/06/04 08:43:37.122,0.07,-0.013,-1.009
2026/06/04 08:43:37.141,0.069,-0.011,-1.004
2026/06/04 08:43:37.160,0.068,-0.014,-1.008
2026/06/04 08:43:37.180,0.059,-0.028,-1.132
2026/06/04 08:43:37.199,0.076,-0.009,-0.98
2026/06/04 08:43:37.218,0.068,-0.015,-1.007
2026/06/04 08:43:37.237,0.075,-0.008,-1.001
2026/06/04 08:43:37.256,0.069,-0.005,-0.983
2026/06/04 08:43:37.275,0.066,-0.005,-0.978
2026/06/04 08:43:37.295,0.075,-0.013,-0.99
2026/06/04 08:43:37.314,0.069,-0.012,-0.992
2026/06/04 08:43:37.333,0.069,-0.011,-1.005
2026/06/04 08:43:37.352,0.066,-0.009,-1.011
2026/06/04 08:43:37.371,0.066,-0.009,-1.001
2026/06/04 08:43:37.390,0.068,-0.014,-1.004
2026/06/04 08:43:37.409,0.068,-0.015,-1.005
2026/06/04 08:43:37.429,0.072,-0.01,-0.997
2026/06/04 08:43:37.448,0.069,-0.014,-0.995
2026/06/04 08:43:37.467,0.064,-0.008,-0.997
2026/06/04 08:43:37.486,0.068,-0.01,-1.005
2026/06/04 08:43:37.505,0.068,-0.012,-1.008
2026/06/04 08:43:37.524,0.067,-0.01,-1.004
2026/06/04 08:43:37.544,0.069,-0.014,-1.001
2026/06/04 08:43:37.563,0.068,-0.011,-1.001
2026/06/04 08:43:37.582,0.07,-0.01,-1.001
2026/06/04 08:43:37.601,0.067,-0.005,-1.007
2026/06/04 08:43:37.620,0.063,-0.012,-1.012
2026/06/04 08:43:37.639,0.068,-0.011,-0.997
2026/06/04 08:43:37.659,0.069,-0.014,-0.996
2026/06/04 08:43:37.678,0.067,-0.017,-1.004
2026/06/04 08:43:37.697,0.069,-0.008,-1.004
2026/06/04 08:43:37.716,0.069,-0.011,-1.005
2026/06/04 08:43:37.735,0.068,-0.011,-1.004
2026/06/04 08:43:37.754,0.066,-0.011,-1.005
2026/06/04 08:43:37.773,0.069,-0.016,-1.001
2026/06/04 08:43:37.793,0.068,-0.013,-1.008
2026/06/04 08:43:37.812,0.064,-0.013,-0.996
2026/06/04 08:43:37.831,0.07,-0.011,-0.999
2026/06/04 08:43:37.850,0.066,-0.01,-1.0
2026/06/04 08:43:37.869,0.068,-0.012,-1.006
2026/06/04 08:43:37.888,0.069,-0.015,-1.004
2026/06/04 08:43:37.908,0.069,-0.013,-0.995
2026/06/04 08:43:37.927,0.071,-0.012,-1.003
2026/06/04 08:43:37.946,0.064,-0.011,-1.003
2026/06/04 08:43:37.965,0.068,-0.008,-1.004
2026/06/04 08:43:37.984,0.072,-0.012,-0.992
2026/06/04 08:43:38.003,0.072,-0.014,-0.993
2026/06/04 08:43:38.023,0.067,-0.013,-1.003
2026/06/04 08:43:38.042,0.065,-0.008,-1.002
2026/06/04 08:43:38.061,0.07,-0.014,-1.006
2026/06/04 08:43:38.080,0.068,-0.01,-1.0
2026/06/04 08:43:38.099,0.071,-0.015,-0.996
2026/06/04 08:43:38.118,0.069,-0.013,-0.999
2026/06/04 08:43:38.138,0.069,-0.014,-1.0
2026/06/04 08:43:38.157,0.066,-0.008,-1.0
2026/06/04 08:43:38.176,0.069,-0.012,-1.001
2026/06/04 08:43:38.195,0.07,-0.017,-1.002
2026/06/04 08:43:38.214,0.069,-0.012,-0.995
2026/06/04 08:43:38.233,0.067,-0.014,-1.007
2026/06/04 08:43:38.252,0.068,-0.012,-0.999
2026/06/04 08:43:38.272,0.068,-0.011,-0.997
2026/06/04 08:43:38.291,0.067,-0.01,-1.004
2026/06/04 08:43:38.310,0.069,-0.014,-0.998
2026/06/04 08:43:38.329,0.066,-0.011,-1.0
2026/06/04 08:43:38.348,0.068,-0.006,-0.998
2026/06/04 08:43:38.367,0.067,-0.013,-0.999
2026/06/04 08:43:38.387,0.066,-0.005,-1.005
2026/06/04 08:43:38.406,0.064,-0.006,-1.008
2026/06/04 08:43:38.425,0.067,-0.013,-0.995
2026/06/04 08:43:38.444,0.072,-0.019,-1.003
2026/06/04 08:43:38.463,0.069,-0.012,-1.001
2026/06/04 08:43:38.482,0.067,-0.013,-1.001
2026/06/04 08:43:38.502,0.068,-0.009,-1.007
2026/06/04 08:43:38.521,0.068,-0.014,-1.003
2026/06/04 08:43:38.540,0.072,-0.016,-0.998
2026/06/04 08:43:38.559,0.071,-0.012,-1.0
2026/06/04 08:43:38.578,0.067,-0.013,-1.005
2026/06/04 08:43:38.597,0.068,-0.013,-0.995
2026/06/04 08:43:38.617,0.071,-0.014,-0.996
2026/06/04 08:43:38.636,0.067,-0.01,-0.997
2026/06/04 08:43:38.655,0.067,-0.01,-1.004
2026/06/04 08:43:38.674,0.072,-0.015,-1.003
2026/06/04 08:43:38.693,0.07,-0.012,-0.996
2026/06/04 08:43:38.712,0.07,-0.009,-0.998
2026/06/04 08:43:38.731,0.067,-0.007,-1.001
2026/06/04 08:43:38.751,0.064,-0.008,-1.005
2026/06/04 08:43:38.770,0.066,-0.008,-0.999
2026/06/04 08:43:38.789,0.066,-0.011,-1.005
2026/06/04 08:43:38.808,0.061,-0.008,-0.99
2026/06/04 08:43:38.827,0.059,-0.008,-0.992
2026/06/04 08:43:38.846,0.066,-0.012,-1.002
2026/06/04 08:43:38.866,0.066,-0.011,-0.995
2026/06/04 08:43:38.885,0.064,-0.011,-1.001
2026/06/04 08:43:38.904,0.07,-0.011,-0.995
2026/06/04 08:43:38.923,0.07,-0.014,-1.001
2026/06/04 08:43:38.942,0.071,-0.01,-1.004
2026/06/04 08:43:38.961,0.07,-0.012,-0.995
2026/06/04 08:43:38.981,0.07,-0.008,-1.005
2026/06/04 08:43:39.000,0.068,-0.012,-1.0
2026/06/04 08:43:39.019,0.071,-0.012,-1.001
2026/06/04 08:43:39.038,0.065,-0.011,-1.0
2026/06/04 08:43:39.057,0.072,-0.009,-0.997
2026/06/04 08:43:39.076,0.071,-0.013,-1.0
2026/06/04 08:43:39.096,0.068,-0.008,-1.002
2026/06/04 08:43:39.115,0.068,-0.012,-1.004
2026/06/04 08:43:39.134,0.069,-0.013,-0.998
2026/06/04 08:43:39.153,0.07,-0.014,-0.994
2026/06/04 08:43:39.172,0.073,-0.019,-0.996
2026/06/04 08:43:39.191,0.07,-0.012,-1.0
2026/06/04 08:43:39.210,0.073,-0.016,-1.004
2026/06/04 08:43:39.230,0.072,-0.015,-0.997
2026/06/04 08:43:39.249,0.065,-0.01,-0.992
2026/06/04 08:43:39.268,0.065,-0.005,-0.995
2026/06/04 08:43:39.287,0.067,-0.01,-0.994
2026/06/04 08:43:39.306,0.072,-0.011,-1.003
2026/06/04 08:43:39.325,0.074,-0.017,-1.006
2026/06/04 08:43:39.345,0.07,-0.017,-0.999
2026/06/04 08:43:39.364,0.073,-0.017,-1.007
2026/06/04 08:43:39.383,0.067,-0.009,-0.995
2026/06/04 08:43:39.402,0.069,-0.012,-1.003
2026/06/04 08:43:39.421,0.069,-0.009,-1.0
2026/06/04 08:43:39.440,0.073,-0.013,-0.996
2026/06/04 08:43:39.460,0.069,-0.014,-1.004
2026/06/04 08:43:39.479,0.068,-0.008,-1.002
2026/06/04 08:43:39.498,0.067,-0.011,-0.997
2026/06/04 08:43:39.517,0.068,-0.012,-0.995
2026/06/04 08:43:39.536,0.068,-0.008,-1.001
2026/06/04 08:43:39.555,0.07,-0.01,-1.004
2026/06/04 08:43:39.574,0.066,-0.012,-1.002
2026/06/04 08:43:39.594,0.07,-0.008,-0.998
2026/06/04 08:43:39.613,0.068,-0.017,-0.991
2026/06/04 08:43:39.632,0.069,-0.015,-1.0
2026/06/04 08:43:39.651,0.073,-0.011,-1.005
2026/06/04 08:43:39.670,0.066,-0.012,-0.994
2026/06/04 08:43:39.689,0.068,-0.01,-1.004
2026/06/04 08:43:39.709,0.067,-0.013,-0.999
2026/06/04 08:43:39.728,0.064,-0.014,-1.001
2026/06/04 08:43:39.747,0.068,-0.007,-0.997
2026/06/04 08:43:39.766,0.069,-0.016,-1.005
2026/06/04 08:43:39.785,0.071,-0.015,-1.001
2026/06/04 08:43:39.804,0.07,-0.016,-1.008
2026/06/04 08:43:39.824,0.065,-0.013,-1.0
2026/06/04 08:43:39.843,0.065,-0.012,-0.998
2026/06/04 08:43:39.862,0.064,-0.013,-1.003
2026/06/04 08:43:39.881,0.066,-0.008,-1.008
2026/06/04 08:43:39.900,0.071,-0.014,-1.006
2026/06/04 08:43:39.919,0.07,-0.009,-1.003
2026/06/04 08:43:39.939,0.072,-0.012,-0.994
2026/06/04 08:43:39.958,0.069,-0.011,-1.005
2026/06/04 08:43:39.977,0.074,-0.011,-1.002
2026/06/04 08:43:39.996,0.069,-0.012,-0.998
2026/06/04 08:43:40.015,0.069,-0.015,-0.993
2026/06/04 08:43:40.034,0.066,-0.014,-0.994
2026/06/04 08:43:40.053,0.073,-0.015,-0.996
2026/06/04 08:43:40.073,0.069,-0.015,-0.999
2026/06/04 08:43:40.092,0.072,-0.014,-0.995
2026/06/04 08:43:40.111,0.074,-0.013,-1.003
2026/06/04 08:43:40.130,0.071,-0.018,-0.995
2026/06/04 08:43:40.149,0.068,-0.01,-1.003
2026/06/04 08:43:40.168,0.07,-0.013,-1.003
2026/06/04 08:43:40.188,0.074,-0.014,-1.001
2026/06/04 08:43:40.207,0.067,-0.017,-0.995
2026/06/04 08:43:40.226,0.072,-0.01,-1.002
2026/06/04 08:43:40.245,0.072,-0.009,-1.007
2026/06/04 08:43:40.264,0.066,-0.013,-1.003
2026/06/04 08:43:40.283,0.072,-0.016,-0.998
2026/06/04 08:43:40.303,0.068,-0.014,-0.991
2026/06/04 08:43:40.322,0.073,-0.012,-1.0
2026/06/04 08:43:40.341,0.062,-0.011,-0.995
2026/06/04 08:43:40.360,0.071,-0.013,-1.008
2026/06/04 08:43:40.379,0.07,-0.014,-1.001
2026/06/04 08:43:40.398,0.071,-0.013,-0.999
2026/06/04 08:43:40.418,0.065,-0.013,-0.998
2026/06/04 08:43:40.437,0.068,-0.015,-0.996
2026/06/04 08:43:40.456,0.071,-0.011,-0.998
2026/06/04 08:43:40.475,0.067,-0.013,-0.994
2026/06/04 08:43:40.494,0.072,-0.018,-1.0
2026/06/04 08:43:40.513,0.068,-0.015,-0.996
2026/06/04 08:43:40.532,0.071,-0.016,-0.998
2026/06/04 08:43:40.552,0.077,-0.02,-1.004
2026/06/04 08:43:40.571,0.063,-0.019,-1.081
2026/06/04 08:43:40.590,0.07,-0.016,-0.989
2026/06/04 08:43:40.609,0.066,-0.015,-1.01
2026/06/04 08:43:40.628,0.078,-0.011,-0.994
2026/06/04 08:43:40.647,0.07,-0.017,-0.998
2026/06/04 08:43:40.667,0.069,-0.007,-0.998
2026/06/04 08:43:40.686,0.071,-0.014,-1.005
2026/06/04 08:43:40.705,0.068,-0.014,-0.989
2026/06/04 08:43:40.724,0.077,-0.01,-0.997
2026/06/04 08:43:40.743,0.062,-0.015,-1.019
2026/06/04 08:43:40.762,0.073,-0.016,-1.008
2026/06/04 08:43:40.782,0.076,-0.012,-0.995
2026/06/04 08:43:40.801,0.073,-0.012,-0.994
2026/06/04 08:43:40.820,0.065,-0.008,-0.996
2026/06/04 08:43:40.839,0.069,-0.006,-0.996
2026/06/04 08:43:40.858,0.067,-0.015,-0.995
2026/06/04 08:43:40.877,0.063,-0.01,-0.996
2026/06/04 08:43:40.897,0.063,-0.006,-1.002
2026/06/04 08:43:40.916,0.056,-0.007,-1.001
2026/06/04 08:43:40.935,0.061,-0.007,-0.997
2026/06/04 08:43:40.954,0.067,-0.01,-0.993
2026/06/04 08:43:40.973,0.058,-0.009,-1.004
2026/06/04 08:43:40.992,0.06,-0.012,-0.989
2026/06/04 08:43:41.011,0.071,-0.012,-0.992
2026/06/04 08:43:41.031,0.062,-0.015,-0.995
2026/06/04 08:43:41.050,0.073,-0.011,-1.003
2026/06/04 08:43:41.069,0.066,-0.014,-0.998
2026/06/04 08:43:41.088,0.072,-0.014,-1.005
2026/06/04 08:43:41.107,0.066,-0.013,-0.995
2026/06/04 08:43:41.126,0.068,-0.01,-1.004
2026/06/04 08:43:41.146,0.072,-0.011,-0.995
2026/06/04 08:43:41.165,0.071,-0.015,-1.001
2026/06/04 08:43:41.184,0.071,-0.008,-0.96
2026/06/04 08:43:41.203,0.069,-0.009,-1.019
2026/06/04 08:43:41.222,0.078,-0.011,-0.979
2026/06/04 08:43:41.241,0.069,-0.009,-1.013
2026/06/04 08:43:41.261,0.068,-0.01,-1.018
2026/06/04 08:43:41.280,0.075,-0.015,-0.959
2026/06/04 08:43:41.299,0.077,-0.012,-0.986
2026/06/04 08:43:41.318,0.078,-0.02,-0.998
2026/06/04 08:43:41.337,0.076,-0.015,-1.015
2026/06/04 08:43:41.356,0.076,-0.019,-1.004
2026/06/04 08:43:41.375,0.079,-0.015,-0.999
2026/06/04 08:43:41.395,0.075,-0.021,-1.021
2026/06/04 08:43:41.414,0.072,-0.014,-1.007
2026/06/04 08:43:41.433,0.076,-0.012,-1.008
2026/06/04 08:43:41.452,0.068,-0.013,-1.0
2026/06/04 08:43:41.471,0.074,-0.016,-1.007
2026/06/04 08:43:41.490,0.074,-0.01,-0.998
2026/06/04 08:43:41.510,0.069,-0.012,-1.015
2026/06/04 08:43:41.529,0.07,-0.014,-1.001
2026/06/04 08:43:41.548,0.069,-0.013,-1.006
2026/06/04 08:43:41.567,0.071,-0.011,-1.002
2026/06/04 08:43:41.586,0.072,-0.01,-1.009
2026/06/04 08:43:41.605,0.066,-0.009,-1.002
2026/06/04 08:43:41.625,0.07,-0.008,-1.0
2026/06/04 08:43:41.644,0.074,-0.013,-0.999
2026/06/04 08:43:41.663,0.065,-0.014,-1.0
2026/06/04 08:43:41.682,0.072,-0.013,-1.006
2026/06/04 08:43:41.701,0.064,-0.012,-1.013
2026/06/04 08:43:41.720,0.075,-0.01,-0.994
2026/06/04 08:43:41.740,0.072,-0.015,-1.003
2026/06/04 08:43:41.759,0.074,-0.018,-1.006
2026/06/04 08:43:41.778,0.072,-0.015,-0.996
2026/06/04 08:43:41.797,0.076,-0.012,-1.005
2026/06/04 08:43:41.816,0.082,-0.011,-1.012
2026/06/04 08:43:41.835,0.07,-0.014,-0.985
2026/06/04 08:43:41.854,0.071,-0.009,-1.009
2026/06/04 08:43:41.874,0.069,-0.006,-0.999
2026/06/04 08:43:41.893,0.073,-0.009,-1.011
2026/06/04 08:43:41.912,0.07,-0.017,-1.021
2026/06/04 08:43:41.931,0.063,-0.013,-1.01
2026/06/04 08:43:41.950,0.065,-0.015,-1.004
2026/06/04 08:43:41.969,0.067,-0.012,-1.001
2026/06/04 08:43:41.989,0.069,-0.013,-1.006
2026/06/04 08:43:42.008,0.063,-0.007,-0.999
2026/06/04 08:43:42.027,0.07,-0.016,-1.005
2026/06/04 08:43:42.046,0.061,-0.005,-0.996
