Timestamp,ACC X,ACC Y,ACC Z
2026/06/04 08:44:23.805,-0.019,0.068,-0.998
2026/06/04 08:44:23.825,-0.014,0.065,-1.004
2026/06/04 08:44:23.844,-0.013,0.066,-1.003
2026/06/04 08:44:23.863,-0.015,0.067,-0.999
2026/06/04 08:44:23.882,-0.014,0.068,-1.005
2026/06/04 08:44:23.902,-0.017,0.07,-1.001
2026/06/04 08:44:23.921,-0.009,0.066,-1.002
2026/06/04 08:44:23.940,-0.015,0.067,-0.994
2026/06/04 08:44:23.959,-0.018,0.065,-0.99
2026/06/04 08:44:23.978,-0.013,0.061,-0.993
2026/06/04 08:44:23.998,-0.014,0.064,-0.99
2026/06/04 08:44:24.017,-0.013,0.063,-0.994
2026/06/04 08:44:24.036,-0.012,0.063,-0.99
2026/06/04 08:44:24.055,-0.009,0.067,-0.996
2026/06/04 08:44:24.075,-0.013,0.065,-0.993
2026/06/04 08:44:24.094,-0.012,0.065,-1.002
2026/06/04 08:44:24.113,-0.013,0.072,-0.996
2026/06/04 08:44:24.132,-0.015,0.062,-1.001
2026/06/04 08:44:24.152,-0.011,0.068,-1.003
2026/06/04 08:44:24.171,-0.013,0.068,-1.002
2026/06/04 08:44:24.190,-0.013,0.069,-1.002
2026/06/04 08:44:24.209,-0.016,0.069,-1.0
2026/06/04 08:44:24.228,-0.011,0.072,-0.997
2026/06/04 08:44:24.248,-0.011,0.065,-1.008
2026/06/04 08:44:24.267,-0.014,0.07,-1.001
2026/06/04 08:44:24.286,-0.012,0.066,-1.0
2026/06/04 08:44:24.305,-0.011,0.065,-1.004
2026/06/04 08:44:24.325,-0.013,0.07,-1.005
2026/06/04 08:44:24.344,-0.013,0.068,-1.007
2026/06/04 08:44:24.363,-0.012,0.065,-1.002
2026/06/04 08:44:24.382,-0.015,0.069,-0.995
2026/06/04 08:44:24.402,-0.015,0.067,-0.992
2026/06/04 08:44:24.421,-0.012,0.061,-0.992
2026/06/04 08:44:24.440,-0.01,0.064,-0.99
2026/06/04 08:44:24.459,-0.014,0.063,-0.992
2026/06/04 08:44:24.478,-0.013,0.064,-0.998
2026/06/04 08:44:24.498,-0.013,0.064,-0.997
2026/06/04 08:44:24.517,-0.011,0.068,-0.993
2026/06/04 08:44:24.536,-0.011,0.066,-0.996
2026/06/04 08:44:24.555,-0.01,0.07,-1.002
2026/06/04 08:44:24.575,-0.012,0.065,-1.002
2026/06/04 08:44:24.594,-0.015,0.068,-1.005
2026/06/04 08:44:24.613,-0.015,0.065,-1.002
2026/06/04 08:44:24.632,-0.008,0.064,-1.006
2026/06/04 08:44:24.652,-0.014,0.07,-1.001
2026/06/04 08:44:24.671,-0.017,0.066,-1.005
2026/06/04 08:44:24.690,-0.012,0.066,-1.001
2026/06/04 08:44:24.709,-0.015,0.074,-1.002
2026/06/04 08:44:24.728,-0.016,0.07,-1.006
2026/06/04 08:44:24.748,-0.013,0.064,-1.008
2026/06/04 08:44:24.767,-0.01,0.071,-1.002
2026/06/04 08:44:24.786,-0.012,0.067,-1.001
2026/06/04 08:44:24.805,-0.014,0.064,-0.997
2026/06/04 08:44:24.825,-0.009,0.063,-0.993
2026/06/04 08:44:24.844,-0.012,0.061,-0.992
2026/06/04 08:44:24.863,-0.012,0.056,-0.992
2026/06/04 08:44:24.882,-0.01,0.064,-0.995
2026/06/04 08:44:24.902,-0.014,0.065,-0.999
2026/06/04 08:44:24.921,-0.013,0.066,-0.996
2026/06/04 08:44:24.940,-0.011,0.066,-1.008
2026/06/04 08:44:24.959,-0.012,0.068,-1.005
2026/06/04 08:44:24.978,-0.009,0.068,-0.999
2026/06/04 08:44:24.998,-0.013,0.068,-1.003
2026/06/04 08:44:25.017,-0.013,0.068,-1.001
2026/06/04 08:44:25.036,-0.015,0.063,-0.999
2026/06/04 08:44:25.055,-0.015,0.063,-1.003
2026/06/04 08:44:25.075,-0.016,0.068,-0.997
2026/06/04 08:44:25.094,-0.013,0.065,-1.008
2026/06/04 08:44:25.113,-0.012,0.072,-1.003
2026/06/04 08:44:25.132,-0.015,0.071,-1.007
2026/06/04 08:44:25.152,-0.014,0.071,-1.005
2026/06/04 08:44:25.171,-0.011,0.071,-1.005
2026/06/04 08:44:25.190,-0.01,0.074,-1.003
2026/06/04 08:44:25.209,-0.01,0.068,-0.999
2026/06/04 08:44:25.228,-0.015,0.066,-1.001
2026/06/04 08:44:25.248,-0.009,0.066,-1.001
2026/06/04 08:44:25.267,-0.013,0.062,-0.996
2026/06/04 08:44:25.286,-0.012,0.062,-0.996
2026/06/04 08:44:25.305,-0.014,0.067,-0.995
2026/06/04 08:44:25.325,-0.013,0.068,-0.995
2026/06/04 08:44:25.344,-0.013,0.066,-1.001
2026/06/04 08:44:25.363,-0.011,0.066,-1.007
2026/06/04 08:44:25.382,-0.012,0.066,-1.001
2026/06/04 08:44:25.402,-0.017,0.068,-0.998
2026/06/04 08:44:25.421,-0.013,0.069,-1.002
2026/06/04 08:44:25.440,-0.014,0.069,-1.003
2026/06/04 08:44:25.459,-0.013,0.072,-1.0
2026/06/04 08:44:25.478,-0.011,0.067,-0.999
2026/06/04 08:44:25.498,-0.012,0.069,-0.997
2026/06/04 08:44:25.517,-0.014,0.069,-1.006
2026/06/04 08:44:25.536,-0.015,0.068,-1.001
2026/06/04 08:44:25.555,-0.013,0.066,-0.999
2026/06/04 08:44:25.575,-0.012,0.069,-0.996
2026/06/04 08:44:25.594,-0.014,0.068,-1.003
2026/06/04 08:44:25.613,-0.015,0.068,-1.001
2026/06/04 08:44:25.632,-0.015,0.066,-0.992
2026/06/04 08:44:25.652,-0.016,0.065,-0.992
2026/06/04 08:44:25.671,-0.008,0.067,-1.002
2026/06/04 08:44:25.690,-0.01,0.065,-0.998
2026/06/04 08:44:25.709,-0.007,0.061,-0.999
2026/06/04 08:44:25.728,-0.015,0.066,-1.004
2026/06/04 08:44:25.748,-0.012,0.066,-1.0
2026/06/04 08:44:25.767,-0.013,0.064,-0.998
2026/06/04 08:44:25.786,-0.013,0.066,-1.006
2026/06/04 08:44:25.805,-0.02,0.07,-0.996
2026/06/04 08:44:25.825,-0.013,0.064,-1.003
2026/06/04 08:44:25.844,-0.011,0.067,-1.003
2026/06/04 08:44:25.863,-0.014,0.068,-1.0
2026/06/04 08:44:25.882,-0.012,0.069,-1.007
2026/06/04 08:44:25.902,-0.014,0.07,-1.0
2026/06/04 08:44:25.921,-0.014,0.067,-1.002
2026/06/04 08:44:25.940,-0.015,0.069,-1.003
2026/06/04 08:44:25.959,-0.013,0.071,-1.009
2026/06/04 08:44:25.978,-0.011,0.069,-1.007
2026/06/04 08:44:25.998,-0.009,0.068,-1.011
2026/06/04 08:44:26.017,-0.012,0.075,-1.009
2026/06/04 08:44:26.036,-0.012,0.07,-1.012
2026/06/04 08:44:26.056,-0.012,0.072,-1.007
2026/06/04 08:44:26.076,-0.012,0.067,-1.006
2026/06/04 08:44:26.096,-0.01,0.066,-1.006
2026/06/04 08:44:26.116,-0.012,0.063,-1.0
2026/06/04 08:44:26.136,-0.012,0.064,-1.005
2026/06/04 08:44:26.156,-0.012,0.069,-1.001
2026/06/04 08:44:26.176,-0.016,0.063,-1.004
2026/06/04 08:44:26.196,-0.012,0.067,-1.006
2026/06/04 08:44:26.216,-0.011,0.07,-1.001
2026/06/04 08:44:26.237,-0.011,0.065,-1.001
2026/06/04 08:44:26.257,-0.015,0.065,-0.993
2026/06/04 08:44:26.277,-0.015,0.067,-1.002
2026/06/04 08:44:26.297,-0.012,0.064,-1.001
2026/06/04 08:44:26.317,-0.015,0.068,-0.993
2026/06/04 08:44:26.337,-0.011,0.065,-0.997
2026/06/04 08:44:26.357,-0.015,0.068,-0.994
2026/06/04 08:44:26.377,-0.014,0.063,-1.002
2026/06/04 08:44:26.397,-0.012,0.068,-1.006
2026/06/04 08:44:26.417,-0.014,0.073,-1.009
2026/06/04 08:44:26.437,-0.012,0.071,-1.016
2026/06/04 08:44:26.457,-0.011,0.068,-1.01
2026/06/04 08:44:26.477,-0.01,0.068,-1.018
2026/06/04 08:44:26.497,-0.013,0.072,-1.008
2026/06/04 08:44:26.517,-0.013,0.07,-1.009
2026/06/04 08:44:26.537,-0.013,0.068,-1.009
2026/06/04 08:44:26.557,-0.01,0.065,-1.006
2026/06/04 08:44:26.577,-0.009,0.067,-1.008
2026/06/04 08:44:26.597,-0.014,0.063,-1.006
2026/06/04 08:44:26.617,-0.015,0.07,-1.011
2026/06/04 08:44:26.637,-0.014,0.072,-1.009
2026/06/04 08:44:26.657,-0.012,0.067,-1.007
2026/06/04 08:44:26.677,-0.011,0.071,-1.0
2026/06/04 08:44:26.697,-0.015,0.066,-1.001
2026/06/04 08:44:26.717,-0.013,0.063,-0.997
2026/06/04 08:44:26.737,-0.014,0.064,-0.998
2026/06/04 08:44:26.758,-0.012,0.061,-1.001
2026/06/04 08:44:26.778,-0.017,0.066,-0.997
2026/06/04 08:44:26.798,-0.016,0.064,-1.0
2026/06/04 08:44:26.818,-0.014,0.067,-0.998
2026/06/04 08:44:26.838,-0.016,0.068,-1.003
2026/06/04 08:44:26.858,-0.012,0.07,-1.009
2026/06/04 08:44:26.878,-0.01,0.071,-1.009
2026/06/04 08:44:26.898,-0.015,0.068,-1.012
2026/06/04 08:44:26.918,-0.013,0.07,-1.013
2026/06/04 08:44:26.938,-0.011,0.072,-1.013
2026/06/04 08:44:26.958,-0.011,0.07,-1.014
2026/06/04 08:44:26.978,-0.012,0.068,-1.009
2026/06/04 08:44:26.998,-0.012,0.068,-1.006
2026/06/04 08:44:27.018,-0.014,0.071,-1.006
2026/06/04 08:44:27.038,-0.016,0.067,-1.002
2026/06/04 08:44:27.058,-0.014,0.068,-1.002
2026/06/04 08:44:27.078,-0.015,0.071,-1.002
2026/06/04 08:44:27.098,-0.012,0.064,-1.005
2026/06/04 08:44:27.118,-0.014,0.069,-1.003
2026/06/04 08:44:27.138,-0.015,0.065,-1.004
2026/06/04 08:44:27.158,-0.015,0.066,-1.003
2026/06/04 08:44:27.178,-0.012,0.071,-1.008
2026/06/04 08:44:27.198,-0.018,0.067,-1.004
2026/06/04 08:44:27.218,-0.015,0.066,-1.003
2026/06/04 08:44:27.238,-0.01,0.065,-1.001
2026/06/04 08:44:27.258,-0.012,0.066,-1.003
2026/06/04 08:44:27.279,-0.011,0.064,-1.01
2026/06/04 08:44:27.299,-0.012,0.067,-1.013
2026/06/04 08:44:27.319,-0.012,0.07,-1.011
2026/06/04 08:44:27.339,-0.013,0.075,-1.012
2026/06/04 08:44:27.359,-0.016,0.072,-1.013
2026/06/04 08:44:27.379,-0.012,0.072,-1.008
2026/06/04 08:44:27.399,-0.012,0.074,-1.007
2026/06/04 08:44:27.419,-0.017,0.073,-1.009
2026/06/04 08:44:27.439,-0.012,0.07,-1.003
2026/06/04 08:44:27.459,-0.014,0.071,-1.001
2026/06/04 08:44:27.479,-0.011,0.064,-1.002
2026/06/04 08:44:27.499,-0.01,0.065,-0.999
2026/06/04 08:44:27.519,-0.014,0.064,-0.995
2026/06/04 08:44:27.539,-0.012,0.065,-0.999
2026/06/04 08:44:27.559,-0.016,0.069,-0.996
2026/06/04 08:44:27.579,-0.013,0.068,-0.999
2026/06/04 08:44:27.599,-0.012,0.064,-1.005
2026/06/04 08:44:27.619,-0.013,0.067,-1.001
2026/06/04 08:44:27.639,-0.016,0.068,-1.002
2026/06/04 08:44:27.659,-0.01,0.071,-0.997
2026/06/04 08:44:27.679,-0.013,0.067,-1.007
2026/06/04 08:44:27.699,-0.017,0.065,-1.005
2026/06/04 08:44:27.719,-0.011,0.068,-1.011
2026/06/04 08:44:27.739,-0.015,0.072,-1.011
2026/06/04 08:44:27.759,-0.012,0.068,-1.016
2026/06/04 08:44:27.780,-0.013,0.073,-1.015
2026/06/04 08:44:27.800,-0.013,0.074,-1.014
2026/06/04 08:44:27.820,-0.013,0.072,-1.008
2026/06/04 08:44:27.840,-0.014,0.071,-1.003
2026/06/04 08:44:27.860,-0.014,0.068,-1.004
2026/06/04 08:44:27.880,-0.014,0.063,-1.01
2026/06/04 08:44:27.900,-0.011,0.069,-1.005
2026/06/04 08:44:27.920,-0.012,0.066,-1.003
2026/06/04 08:44:27.940,-0.015,0.069,-1.006
2026/06/04 08:44:27.960,-0.011,0.065,-1.009
2026/06/04 08:44:27.980,-0.014,0.068,-1.003
2026/06/04 08:44:28.000,-0.013,0.067,-0.998
2026/06/04 08:44:28.020,-0.014,0.063,-1.002
2026/06/04 08:44:28.040,-0.013,0.065,-1.002
2026/06/04 08:44:28.060,-0.014,0.067,-0.997
2026/06/04 08:44:28.080,-0.011,0.064,-1.002
2026/06/04 08:44:28.100,-0.013,0.066,-0.998
2026/06/04 08:44:28.120,-0.013,0.068,-0.999
2026/06/04 08:44:28.140,-0.015,0.067,-0.994
2026/06/04 08:44:28.160,-0.011,0.065,-1.0
2026/06/04 08:44:28.180,-0.014,0.066,-1.0
2026/06/04 08:44:28.200,-0.014,0.066,-1.005
2026/06/04 08:44:28.220,-0.016,0.071,-1.003
2026/06/04 08:44:28.240,-0.016,0.068,-1.011
2026/06/04 08:44:28.260,-0.013,0.073,-1.007
2026/06/04 08:44:28.280,-0.013,0.073,-1.01
2026/06/04 08:44:28.301,-0.014,0.075,-1.005
2026/06/04 08:44:28.321,-0.016,0.065,-1.002
2026/06/04 08:44:28.341,-0.012,0.067,-1.0
2026/06/04 08:44:28.361,-0.013,0.063,-0.996
2026/06/04 08:44:28.381,-0.015,0.063,-0.995
2026/06/04 08:44:28.401,-0.013,0.065,-0.994
2026/06/04 08:44:28.421,-0.013,0.06,-0.996
2026/06/04 08:44:28.441,-0.013,0.064,-1.0
2026/06/04 08:44:28.461,-0.013,0.066,-1.004
2026/06/04 08:44:28.481,-0.014,0.071,-1.0
2026/06/04 08:44:28.501,-0.011,0.072,-1.007
2026/06/04 08:44:28.521,-0.017,0.071,-1.006
2026/06/04 08:44:28.541,-0.013,0.069,-1.008
2026/06/04 08:44:28.561,-0.016,0.07,-1.006
2026/06/04 08:44:28.581,-0.012,0.066,-1.005
2026/06/04 08:44:28.601,-0.016,0.066,-1.004
2026/06/04 08:44:28.621,-0.016,0.065,-1.003
2026/06/04 08:44:28.641,-0.013,0.068,-0.999
2026/06/04 08:44:28.661,-0.015,0.066,-1.004
2026/06/04 08:44:28.681,-0.017,0.068,-1.003
2026/06/04 08:44:28.701,-0.014,0.065,-0.999
2026/06/04 08:44:28.721,-0.011,0.067,-1.004
2026/06/04 08:44:28.741,-0.011,0.063,-1.008
2026/06/04 08:44:28.761,-0.014,0.065,-1.004
2026/06/04 08:44:28.781,-0.013,0.066,-1.001
2026/06/04 08:44:28.801,-0.015,0.069,-1.001
2026/06/04 08:44:28.822,-0.011,0.069,-1.003
2026/06/04 08:44:28.842,-0.012,0.069,-1.005
2026/06/04 08:44:28.862,-0.014,0.066,-1.002
2026/06/04 08:44:28.882,-0.013,0.068,-0.997
2026/06/04 08:44:28.902,-0.013,0.063,-0.999
2026/06/04 08:44:28.922,-0.018,0.067,-1.003
2026/06/04 08:44:28.942,-0.014,0.07,-1.005
2026/06/04 08:44:28.962,-0.01,0.065,-1.0
2026/06/04 08:44:28.982,-0.015,0.064,-0.999
2026/06/04 08:44:29.002,-0.018,0.07,-0.998
2026/06/04 08:44:29.022,-0.008,0.073,-1.005
2026/06/04 08:44:29.042,-0.011,0.065,-1.0
2026/06/04 08:44:29.062,-0.011,0.062,-1.001
2026/06/04 08:44:29.082,-0.011,0.069,-1.002
2026/06/04 08:44:29.102,-0.015,0.069,-1.003
2026/06/04 08:44:29.122,-0.013,0.07,-1.004
2026/06/04 08:44:29.142,-0.009,0.062,-0.999
2026/06/04 08:44:29.162,-0.011,0.069,-1.003
2026/06/04 08:44:29.182,-0.018,0.072,-1.008
2026/06/04 08:44:29.202,-0.012,0.07,-1.007
2026/06/04 08:44:29.222,-0.01,0.064,-1.004
2026/06/04 08:44:29.242,-0.014,0.061,-1.001
2026/06/04 08:44:29.262,-0.017,0.071,-1.003
2026/06/04 08:44:29.282,-0.012,0.068,-1.003
2026/06/04 08:44:29.302,-0.017,0.061,-0.997
2026/06/04 08:44:29.322,-0.013,0.068,-0.996
2026/06/04 08:44:29.343,-0.015,0.067,-0.999
2026/06/04 08:44:29.363,-0.016,0.063,-1.009
2026/06/04 08:44:29.383,-0.015,0.067,-1.006
2026/06/04 08:44:29.403,-0.013,0.067,-1.002
2026/06/04 08:44:29.423,-0.01,0.07,-1.005
2026/06/04 08:44:29.443,-0.014,0.063,-1.002
2026/06/04 08:44:29.463,-0.009,0.067,-1.002
2026/06/04 08:44:29.483,-0.017,0.07,-1.001
2026/06/04 08:44:29.503,-0.012,0.07,-1.004
2026/06/04 08:44:29.523,-0.015,0.07,-1.004
2026/06/04 08:44:29.543,-0.014,0.065,-1.005
2026/06/04 08:44:29.563,-0.014,0.069,-1.002
2026/06/04 08:44:29.583,-0.013,0.069,-1.006
2026/06/04 08:44:29.603,-0.012,0.066,-1.006
2026/06/04 08:44:29.623,-0.016,0.065,-0.999
2026/06/04 08:44:29.643,-0.013,0.067,-1.01
2026/06/04 08:44:29.663,-0.013,0.07,-0.996
2026/06/04 08:44:29.683,-0.011,0.066,-1.003
2026/06/04 08:44:29.703,-0.016,0.064,-1.002
2026/06/04 08:44:29.723,-0.009,0.067,-0.996
2026/06/04 08:44:29.743,-0.016,0.065,-1.004
2026/06/04 08:44:29.763,-0.011,0.063,-1.005
2026/06/04 08:44:29.783,-0.008,0.071,-1.004
2026/06/04 08:44:29.803,-0.011,0.074,-1.004
2026/06/04 08:44:29.823,-0.013,0.063,-1.001
2026/06/04 08:44:29.844,-0.013,0.066,-0.992
2026/06/04 08:44:29.864,-0.018,0.071,-0.987
2026/06/04 08:44:29.884,-0.011,0.063,-0.995
2026/06/04 08:44:29.904,-0.016,0.061,-0.989
2026/06/04 08:44:29.924,-0.014,0.064,-0.993
2026/06/04 08:44:29.944,-0.014,0.064,-0.995
2026/06/04 08:44:29.964,-0.017,0.069,-0.998
2026/06/04 08:44:29.984,-0.016,0.066,-1.005
2026/06/04 08:44:30.004,-0.013,0.072,-0.998
2026/06/04 08:44:30.024,-0.013,0.075,-1.006
2026/06/04 08:44:30.044,-0.017,0.069,-1.003
2026/06/04 08:44:30.064,-0.015,0.07,-0.998
2026/06/04 08:44:30.084,-0.015,0.068,-1.002
2026/06/04 08:44:30.104,-0.011,0.067,-1.009
2026/06/04 08:44:30.124,-0.01,0.068,-1.002
2026/06/04 08:44:30.144,-0.009,0.068,-1.002
2026/06/04 08:44:30.164,-0.018,0.069,-1.005
2026/06/04 08:44:30.184,-0.02,0.068,-1.001
2026/06/04 08:44:30.204,-0.013,0.064,-0.999
2026/06/04 08:44:30.224,-0.012,0.067,-1.009
2026/06/04 08:44:30.244,-0.01,0.07,-1.004
2026/06/04 08:44:30.264,-0.011,0.069,-1.004
2026/06/04 08:44:30.284,-0.01,0.068,-1.0
2026/06/04 08:44:30.304,-0.012,0.07,-0.999
2026/06/04 08:44:30.324,-0.013,0.057,-0.998
2026/06/04 08:44:30.344,-0.013,0.069,-0.991
2026/06/04 08:44:30.365,-0.016,0.063,-0.998
2026/06/04 08:44:30.385,-0.01,0.061,-0.989
2026/06/04 08:44:30.405,-0.014,0.068,-0.997
2026/06/04 08:44:30.425,-0.016,0.059,-1.007
2026/06/04 08:44:30.445,-0.011,0.069,-0.995
2026/06/04 08:44:30.465,-0.014,0.066,-1.005
2026/06/04 08:44:30.485,-0.02,0.063,-1.007
2026/06/04 08:44:30.505,-0.015,0.068,-0.992
2026/06/04 08:44:30.525,-0.017,0.065,-1.004
2026/06/04 08:44:30.545,-0.012,0.064,-1.002
2026/06/04 08:44:30.565,-0.015,0.072,-1.004
2026/06/04 08:44:30.585,-0.012,0.071,-1.003
2026/06/04 08:44:30.605,-0.018,0.067,-1.002
2026/06/04 08:44:30.625,-0.013,0.063,-0.994
2026/06/04 08:44:30.645,-0.014,0.067,-1.003
2026/06/04 08:44:30.665,-0.017,0.068,-1.01
2026/06/04 08:44:30.685,-0.01,0.07,-1.001
2026/06/04 08:44:30.705,-0.009,0.066,-0.998
2026/06/04 08:44:30.725,-0.017,0.067,-0.997
2026/06/04 08:44:30.745,-0.015,0.065,-0.995
2026/06/04 08:44:30.765,-0.014,0.063,-0.992
2026/06/04 08:44:30.785,-0.013,0.063,-0.991
2026/06/04 08:44:30.805,-0.016,0.061,-0.993
2026/06/04 08:44:30.825,-0.018,0.063,-0.992
2026/06/04 08:44:30.845,-0.014,0.066,-0.997
2026/06/04 08:44:30.865,-0.013,0.068,-1.004
2026/06/04 08:44:30.886,-0.009,0.063,-1.006
2026/06/04 08:44:30.906,-0.021,0.068,-1.0
2026/06/04 08:44:30.926,-0.015,0.067,-0.999
2026/06/04 08:44:30.946,-0.01,0.07,-1.005
2026/06/04 08:44:30.966,-0.009,0.065,-1.005
2026/06/04 08:44:30.986,-0.016,0.067,-1.005
2026/06/04 08:44:31.006,-0.011,0.062,-1.009
2026/06/04 08:44:31.026,-0.012,0.067,-1.004
2026/06/04 08:44:31.046,-0.017,0.065,-1.002
2026/06/04 08:44:31.066,-0.013,0.067,-0.996
2026/06/04 08:44:31.086,-0.015,0.064,-0.999
2026/06/04 08:44:31.106,-0.018,0.066,-1.008
2026/06/04 08:44:31.126,-0.015,0.071,-1.011
2026/06/04 08:44:31.146,-0.01,0.065,-1.002
2026/06/04 08:44:31.166,-0.011,0.067,-1.004
2026/06/04 08:44:31.186,-0.013,0.068,-0.996
2026/06/04 08:44:31.206,-0.013,0.064,-0.999
2026/06/04 08:44:31.226,-0.01,0.063,-0.992
2026/06/04 08:44:31.246,-0.012,0.059,-0.993
2026/06/04 08:44:31.266,-0.015,0.064,-0.996
2026/06/04 08:44:31.286,-0.016,0.063,-0.998
2026/06/04 08:44:31.306,-0.015,0.069,-0.997
2026/06/04 08:44:31.326,-0.014,0.066,-1.0
2026/06/04 08:44:31.346,-0.015,0.069,-1.003
2026/06/04 08:44:31.366,-0.013,0.072,-1.001
2026/06/04 08:44:31.387,-0.017,0.066,-1.004
2026/06/04 08:44:31.407,-0.015,0.068,-1.004
2026/06/04 08:44:31.427,-0.008,0.066,-1.001
2026/06/04 08:44:31.447,-0.013,0.065,-1.002
2026/06/04 08:44:31.467,-0.019,0.065,-1.0
2026/06/04 08:44:31.487,-0.013,0.068,-1.004
2026/06/04 08:44:31.507,-0.012,0.069,-1.005
2026/06/04 08:44:31.527,-0.015,0.066,-1.003
2026/06/04 08:44:31.547,-0.012,0.07,-1.009
2026/06/04 08:44:31.567,-0.016,0.067,-1.003
2026/06/04 08:44:31.587,-0.014,0.068,-1.002
2026/06/04 08:44:31.607,-0.009,0.069,-1.0
2026/06/04 08:44:31.627,-0.012,0.063,-0.996
2026/06/04 08:44:31.647,-0.012,0.069,-0.998
2026/06/04 08:44:31.667,-0.015,0.065,-1.0
2026/06/04 08:44:31.687,-0.012,0.065,-1.003
2026/06/04 08:44:31.707,-0.011,0.067,-1.004
2026/06/04 08:44:31.727,-0.012,0.07,-1.002
2026/06/04 08:44:31.747,-0.015,0.063,-1.003
2026/06/04 08:44:31.767,-0.006,0.07,-1.005
2026/06/04 08:44:31.787,-0.014,0.067,-1.002
2026/06/04 08:44:31.807,-0.017,0.065,-1.003
2026/06/04 08:44:31.827,-0.009,0.07,-1.003
2026/06/04 08:44:31.847,-0.014,0.066,-1.003
2026/06/04 08:44:31.867,-0.015,0.07,-1.005
2026/06/04 08:44:31.887,-0.017,0.07,-0.993
2026/06/04 08:44:31.908,-0.014,0.069,-0.996
2026/06/04 08:44:31.928,-0.016,0.072,-1.0
2026/06/04 08:44:31.948,-0.013,0.067,-0.999
2026/06/04 08:44:31.968,-0.013,0.066,-1.0
2026/06/04 08:44:31.988,-0.016,0.065,-1.009
2026/06/04 08:44:32.008,-0.015,0.068,-1.01
2026/06/04 08:44:32.028,-0.016,0.075,-1.009
2026/06/04 08:44:32.048,-0.01,0.07,-1.015
2026/06/04 08:44:32.068,-0.019,0.076,-1.013
2026/06/04 08:44:32.088,-0.014,0.074,-1.013
2026/06/04 08:44:32.108,-0.015,0.072,-1.009
2026/06/04 08:44:32.128,-0.017,0.069,-1.003
2026/06/04 08:44:32.148,-0.017,0.071,-1.002
2026/06/04 08:44:32.168,-0.012,0.068,-1.005
2026/06/04 08:44:32.188,-0.014,0.065,-1.005
2026/06/04 08:44:32.208,-0.014,0.067,-1.002
2026/06/04 08:44:32.228,-0.013,0.067,-1.007
2026/06/04 08:44:32.248,-0.013,0.067,-1.003
2026/06/04 08:44:32.268,-0.014,0.066,-1.003
2026/06/04 08:44:32.288,-0.011,0.066,-1.003
2026/06/04 08:44:32.308,-0.014,0.068,-1.006
2026/06/04 08:44:32.328,-0.011,0.067,-1.003
2026/06/04 08:44:32.348,-0.011,0.062,-1.007
2026/06/04 08:44:32.368,-0.011,0.066,-1.01
2026/06/04 08:44:32.388,-0.012,0.069,-1.005
2026/06/04 08:44:32.408,-0.013,0.071,-1.006
2026/06/04 08:44:32.429,-0.011,0.073,-1.004
2026/06/04 08:44:32.449,-0.009,0.069,-1.004
2026/06/04 08:44:32.469,-0.015,0.069,-1.004
2026/06/04 08:44:32.489,-0.009,0.063,-1.007
2026/06/04 08:44:32.509,-0.014,0.069,-1.003
2026/06/04 08:44:32.529,-0.014,0.066,-1.0
2026/06/04 08:44:32.549,-0.015,0.063,-0.998
2026/06/04 08:44:32.569,-0.01,0.065,-1.003
2026/06/04 08:44:32.589,-0.012,0.065,-1.0
2026/06/04 08:44:32.609,-0.014,0.066,-0.998
2026/06/04 08:44:32.629,-0.013,0.067,-0.997
2026/06/04 08:44:32.649,-0.016,0.068,-0.998
2026/06/04 08:44:32.669,-0.013,0.07,-1.001
2026/06/04 08:44:32.689,-0.014,0.067,-1.005
2026/06/04 08:44:32.709,-0.014,0.07,-1.004
2026/06/04 08:44:32.729,-0.013,0.064,-1.004
2026/06/04 08:44:32.749,-0.011,0.071,-1.005
2026/06/04 08:44:32.769,-0.018,0.067,-1.005
2026/06/04 08:44:32.789,-0.015,0.066,-1.002
2026/06/04 08:44:32.809,-0.012,0.069,-1.006
2026/06/04 08:44:32.829,-0.016,0.074,-1.008
2026/06/04 08:44:32.849,-0.014,0.07,-1.013
2026/06/04 08:44:32.869,-0.012,0.068,-1.017
2026/06/04 08:44:32.889,-0.01,0.074,-1.016
2026/06/04 08:44:32.909,-0.011,0.076,-1.018
2026/06/04 08:44:32.929,-0.011,0.071,-1.014
2026/06/04 08:44:32.950,-0.01,0.069,-1.015
2026/06/04 08:44:32.970,-0.013,0.075,-1.012
2026/06/04 08:44:32.990,-0.012,0.066,-1.008
2026/06/04 08:44:33.010,-0.011,0.067,-1.004
2026/06/04 08:44:33.030,-0.012,0.067,-1.003
2026/06/04 08:44:33.050,-0.018,0.064,-1.008
2026/06/04 08:44:33.070,-0.012,0.066,-1.004
2026/06/04 08:44:33.090,-0.015,0.072,-1.006
2026/06/04 08:44:33.110,-0.009,0.067,-1.009
2026/06/04 08:44:33.130,-0.016,0.07,-1.006
2026/06/04 08:44:33.150,-0.016,0.073,-1.005
2026/06/04 08:44:33.170,-0.014,0.066,-1.004
2026/06/04 08:44:33.190,-0.012,0.068,-1.0
2026/06/04 08:44:33.210,-0.012,0.064,-0.995
2026/06/04 08:44:33.230,-0.012,0.065,-1.002
2026/06/04 08:44:33.250,-0.017,0.069,-1.004
2026/06/04 08:44:33.270,-0.011,0.07,-1.008
2026/06/04 08:44:33.290,-0.013,0.068,-1.003
2026/06/04 08:44:33.310,-0.016,0.067,-1.007
2026/06/04 08:44:33.330,-0.014,0.067,-0.999
2026/06/04 08:44:33.350,-0.012,0.067,-0.999
2026/06/04 08:44:33.370,-0.011,0.066,-1.001
2026/06/04 08:44:33.390,-0.013,0.063,-0.999
2026/06/04 08:44:33.410,-0.013,0.068,-0.998
2026/06/04 08:44:33.430,-0.012,0.065,-1.002
2026/06/04 08:44:33.451,-0.012,0.063,-1.0
2026/06/04 08:44:33.471,-0.013,0.069,-1.0
2026/06/04 08:44:33.491,-0.014,0.065,-0.995
2026/06/04 08:44:33.511,-0.014,0.065,-0.998
2026/06/04 08:44:33.531,-0.015,0.064,-0.991
2026/06/04 08:44:33.551,-0.013,0.063,-1.003
2026/06/04 08:44:33.571,-0.017,0.065,-0.999
2026/06/04 08:44:33.591,-0.013,0.063,-0.997
2026/06/04 08:44:33.611,-0.015,0.065,-0.995
2026/06/04 08:44:33.631,-0.019,0.07,-0.995
2026/06/04 08:44:33.651,-0.011,0.066,-1.008
2026/06/04 08:44:33.671,-0.015,0.067,-1.009
2026/06/04 08:44:33.691,-0.018,0.068,-1.006
2026/06/04 08:44:33.711,-0.015,0.065,-0.997
2026/06/04 08:44:33.731,-0.016,0.062,-0.993
2026/06/04 08:44:33.751,-0.015,0.064,-0.991
2026/06/04 08:44:33.771,-0.019,0.063,-0.99
2026/06/04 08:44:33.791,-0.011,0.058,-0.987
2026/06/04 08:44:33.811,-0.011,0.06,-0.988
2026/06/04 08:44:33.831,-0.013,0.065,-1.006
2026/06/04 08:44:33.851,-0.013,0.062,-0.992
2026/06/04 08:44:33.871,-0.011,0.065,-0.999
2026/06/04 08:44:33.891,-0.016,0.065,-0.997
2026/06/04 08:44:33.911,-0.012,0.066,-1.002
2026/06/04 08:44:33.931,-0.011,0.062,-1.002
2026/06/04 08:44:33.951,-0.01,0.061,-1.003
2026/06/04 08:44:33.972,-0.011,0.072,-1.0
2026/06/04 08:44:33.992,-0.014,0.067,-0.999
2026/06/04 08:44:34.012,-0.016,0.061,-0.995
2026/06/04 08:44:34.032,-0.011,0.068,-1.0
2026/06/04 08:44:34.052,-0.017,0.067,-1.001
2026/06/04 08:44:34.072,-0.013,0.07,-1.002
2026/06/04 08:44:34.092,-0.013,0.065,-1.008
2026/06/04 08:44:34.112,-0.014,0.069,-1.006
2026/06/04 08:44:34.132,-0.012,0.069,-1.002
2026/06/04 08:44:34.152,-0.013,0.067,-0.994
2026/06/04 08:44:34.172,-0.017,0.063,-0.992
2026/06/04 08:44:34.192,-0.012,0.062,-0.992
2026/06/04 08:44:34.212,-0.013,0.061,-0.995
2026/06/04 08:44:34.232,-0.013,0.064,-0.989
2026/06/04 08:44:34.252,-0.015,0.066,-0.995
2026/06/04 08:44:34.272,-0.015,0.067,-0.997
2026/06/04 08:44:34.292,-0.011,0.064,-1.001
2026/06/04 08:44:34.312,-0.017,0.067,-1.003
2026/06/04 08:44:34.332,-0.012,0.067,-1.009
2026/06/04 08:44:34.352,-0.012,0.074,-1.006
2026/06/04 08:44:34.372,-0.01,0.07,-1.012
2026/06/04 08:44:34.392,-0.018,0.073,-1.015
2026/06/04 08:44:34.412,-0.014,0.073,-1.004
2026/06/04 08:44:34.432,-0.012,0.071,-1.003
2026/06/04 08:44:34.452,-0.013,0.063,-1.0
2026/06/04 08:44:34.472,-0.012,0.068,-1.0
2026/06/04 08:44:34.493,-0.014,0.064,-0.999
2026/06/04 08:44:34.513,-0.013,0.057,-0.998
2026/06/04 08:44:34.533,-0.013,0.063,-0.998
2026/06/04 08:44:34.553,-0.011,0.067,-1.008
2026/06/04 08:44:34.573,-0.015,0.072,-1.007
2026/06/04 08:44:34.593,-0.011,0.073,-1.006
2026/06/04 08:44:34.613,-0.009,0.073,-1.013
2026/06/04 08:44:34.633,-0.014,0.073,-1.01
2026/06/04 08:44:34.653,-0.012,0.075,-1.005
2026/06/04 08:44:34.673,-0.011,0.072,-1.01
2026/06/04 08:44:34.693,-0.011,0.066,-1.003
2026/06/04 08:44:34.713,-0.013,0.061,-1.0
2026/06/04 08:44:34.733,-0.01,0.065,-1.005
2026/06/04 08:44:34.753,-0.01,0.067,-1.006
2026/06/04 08:44:34.773,-0.01,0.068,-1.002
2026/06/04 08:44:34.793,-0.011,0.067,-1.009
2026/06/04 08:44:34.813,-0.013,0.066,-1.006
2026/06/04 08:44:34.833,-0.012,0.07,-1.006
2026/06/04 08:44:34.853,-0.013,0.068,-1.003
2026/06/04 08:44:34.873,-0.013,0.065,-0.993
2026/06/04 08:44:34.893,-0.013,0.066,-1.0
2026/06/04 08:44:34.913,-0.015,0.064,-0.998
2026/06/04 08:44:34.933,-0.014,0.067,-0.999
2026/06/04 08:44:34.953,-0.012,0.07,-0.998
2026/06/04 08:44:34.973,-0.018,0.065,-1.003
2026/06/04 08:44:34.993,-0.022,0.067,-1.004
2026/06/04 08:44:35.013,-0.013,0.07,-1.01
2026/06/04 08:44:35.034,-0.013,0.07,-1.008
2026/06/04 08:44:35.054,-0.013,0.07,-1.006
2026/06/04 08:44:35.074,-0.017,0.071,-1.007
2026/06/04 08:44:35.094,-0.014,0.066,-1.007
2026/06/04 08:44:35.114,-0.015,0.066,-1.008
2026/06/04 08:44:35.134,-0.017,0.067,-1.012
2026/06/04 08:44:35.154,-0.014,0.066,-1.004
2026/06/04 08:44:35.174,-0.015,0.069,-1.011
2026/06/04 08:44:35.194,-0.015,0.072,-1.009
2026/06/04 08:44:35.214,-0.013,0.075,-1.01
2026/06/04 08:44:35.234,-0.015,0.067,-1.014
2026/06/04 08:44:35.254,-0.014,0.073,-1.007
2026/06/04 08:44:35.274,-0.013,0.068,-1.001
2026/06/04 08:44:35.294,-0.013,0.063,-1.006
2026/06/04 08:44:35.314,-0.01,0.067,-1.001
2026/06/04 08:44:35.334,-0.01,0.062,-0.998
2026/06/04 08:44:35.354,-0.01,0.062,-0.996
2026/06/04 08:44:35.374,-0.012,0.062,-0.995
2026/06/04 08:44:35.394,-0.015,0.063,-1.002
2026/06/04 08:44:35.414,-0.012,0.067,-1.006
2026/06/04 08:44:35.434,-0.013,0.07,-1.013
2026/06/04 08:44:35.454,-0.016,0.076,-1.013
2026/06/04 08:44:35.474,-0.011,0.073,-1.015
2026/06/04 08:44:35.494,-0.014,0.079,-1.013
2026/06/04 08:44:35.514,-0.019,0.072,-1.014
2026/06/04 08:44:35.534,-0.013,0.07,-1.013
2026/06/04 08:44:35.555,-0.015,0.07,-1.012
2026/06/04 08:44:35.575,-0.012,0.069,-1.013
2026/06/04 08:44:35.595,-0.016,0.073,-1.007
2026/06/04 08:44:35.615,-0.016,0.066,-1.003
2026/06/04 08:44:35.635,-0.014,0.068,-1.004
2026/06/04 08:44:35.655,-0.011,0.069,-1.004
2026/06/04 08:44:35.675,-0.015,0.07,-1.004
2026/06/04 08:44:35.695,-0.013,0.067,-0.999
2026/06/04 08:44:35.715,-0.015,0.063,-1.001
2026/06/04 08:44:35.735,-0.014,0.066,-1.003
2026/06/04 08:44:35.755,-0.01,0.065,-1.005
2026/06/04 08:44:35.775,-0.013,0.065,-1.004
2026/06/04 08:44:35.795,-0.014,0.068,-0.996
2026/06/04 08:44:35.815,-0.012,0.065,-0.999
2026/06/04 08:44:35.835,-0.017,0.065,-0.999
2026/06/04 08:44:35.855,-0.013,0.067,-0.982
2026/06/04 08:44:35.875,-0.015,0.065,-0.999
2026/06/04 08:44:35.895,-0.013,0.062,-0.993
2026/06/04 08:44:35.915,-0.015,0.061,-0.993
2026/06/04 08:44:35.935,-0.013,0.065,-0.992
2026/06/04 08:44:35.955,-0.008,0.064,-0.995
2026/06/04 08:44:35.975,-0.015,0.067,-1.005
2026/06/04 08:44:35.995,-0.015,0.065,-1.002
2026/06/04 08:44:36.015,-0.013,0.069,-0.995
2026/06/04 08:44:36.035,-0.013,0.066,-1.005
2026/06/04 08:44:36.055,-0.014,0.072,-0.995
2026/06/04 08:44:36.075,-0.011,0.072,-1.006
2026/06/04 08:44:36.096,-0.011,0.072,-1.003
2026/06/04 08:44:36.116,-0.014,0.065,-1.002
2026/06/04 08:44:36.136,-0.009,0.068,-1.007
2026/06/04 08:44:36.156,-0.012,0.068,-1.006
2026/06/04 08:44:36.176,-0.016,0.07,-1.007
2026/06/04 08:44:36.196,-0.015,0.067,-1.003
2026/06/04 08:44:36.216,-0.014,0.066,-1.004
2026/06/04 08:44:36.236,-0.011,0.068,-1.0
2026/06/04 08:44:36.256,-0.014,0.063,-0.999
2026/06/04 08:44:36.276,-0.019,0.064,-0.995
2026/06/04 08:44:36.296,-0.016,0.061,-0.988
2026/06/04 08:44:36.316,-0.017,0.063,-0.994
2026/06/04 08:44:36.336,-0.017,0.062,-0.986
2026/06/04 08:44:36.356,-0.014,0.06,-0.987
2026/06/04 08:44:36.376,-0.015,0.064,-0.996
2026/06/04 08:44:36.396,-0.012,0.065,-0.988
2026/06/04 08:44:36.416,-0.011,0.07,-0.999
2026/06/04 08:44:36.436,-0.017,0.064,-0.998
2026/06/04 08:44:36.456,-0.015,0.065,-0.996
2026/06/04 08:44:36.476,-0.018,0.067,-1.005
2026/06/04 08:44:36.496,-0.014,0.062,-1.001
2026/06/04 08:44:36.516,-0.013,0.068,-1.019
2026/06/04 08:44:36.536,-0.018,0.067,-1.001
2026/06/04 08:44:36.556,-0.013,0.059,-0.998
2026/06/04 08:44:36.576,-0.016,0.068,-1.012
2026/06/04 08:44:36.597,-0.014,0.07,-1.0
2026/06/04 08:44:36.617,-0.014,0.058,-1.0
2026/06/04 08:44:36.637,-0.011,0.066,-0.999
2026/06/04 08:44:36.657,-0.009,0.069,-1.006
2026/06/04 08:44:36.677,-0.013,0.065,-1.003
2026/06/04 08:44:36.697,-0.012,0.062,-0.998
2026/06/04 08:44:36.717,-0.013,0.063,-0.991
2026/06/04 08:44:36.737,-0.011,0.065,-0.991
2026/06/04 08:44:36.757,-0.018,0.062,-0.99
2026/06/04 08:44:36.777,-0.01,0.055,-1.0
2026/06/04 08:44:36.797,-0.018,0.063,-0.988
2026/06/04 08:44:36.817,-0.017,0.064,-0.994
2026/06/04 08:44:36.837,-0.012,0.07,-1.002
2026/06/04 08:44:36.857,-0.01,0.066,-0.999
2026/06/04 08:44:36.877,-0.016,0.067,-1.004
2026/06/04 08:44:36.897,-0.013,0.071,-1.0
2026/06/04 08:44:36.917,-0.014,0.069,-1.004
2026/06/04 08:44:36.937,-0.017,0.067,-0.998
2026/06/04 08:44:36.957,-0.011,0.068,-1.0
2026/06/04 08:44:36.977,-0.01,0.069,-1.003
2026/06/04 08:44:36.997,-0.013,0.068,-0.999
2026/06/04 08:44:37.017,-0.012,0.065,-1.002
2026/06/04 08:44:37.037,-0.01,0.067,-1.0
2026/06/04 08:44:37.057,-0.012,0.064,-1.005
2026/06/04 08:44:37.077,-0.012,0.064,-1.006
2026/06/04 08:44:37.097,-0.012,0.072,-1.006
2026/06/04 08:44:37.118,-0.012,0.069,-1.009
2026/06/04 08:44:37.138,-0.008,0.068,-1.005
2026/06/04 08:44:37.158,-0.015,0.068,-1.002
2026/06/04 08:44:37.178,-0.013,0.066,-0.998
2026/06/04 08:44:37.198,-0.018,0.066,-0.987
2026/06/04 08:44:37.218,-0.008,0.061,-0.997
2026/06/04 08:44:37.238,-0.015,0.061,-0.997
2026/06/04 08:44:37.258,-0.01,0.063,-0.998
2026/06/04 08:44:37.278,-0.011,0.064,-0.995
2026/06/04 08:44:37.298,-0.014,0.062,-1.001
2026/06/04 08:44:37.318,-0.009,0.068,-0.998
2026/06/04 08:44:37.338,-0.012,0.066,-1.0
2026/06/04 08:44:37.358,-0.014,0.069,-1.003
2026/06/04 08:44:37.378,-0.014,0.068,-0.997
2026/06/04 08:44:37.398,-0.013,0.069,-1.0
2026/06/04 08:44:37.418,-0.017,0.069,-0.999
2026/06/04 08:44:37.438,-0.013,0.065,-1.004
2026/06/04 08:44:37.458,-0.01,0.058,-1.009
2026/06/04 08:44:37.478,-0.012,0.066,-1.0
2026/06/04 08:44:37.498,-0.013,0.065,-1.003
2026/06/04 08:44:37.518,-0.014,0.067,-0.996
2026/06/04 08:44:37.538,-0.01,0.071,-1.004
2026/06/04 08:44:37.558,-0.015,0.067,-1.008
2026/06/04 08:44:37.578,-0.01,0.067,-0.997
2026/06/04 08:44:37.598,-0.013,0.065,-0.999
2026/06/04 08:44:37.619,-0.017,0.066,-0.986
2026/06/04 08:44:37.639,-0.011,0.067,-0.996
2026/06/04 08:44:37.659,-0.012,0.065,-1.0
2026/06/04 08:44:37.679,-0.014,0.068,-1.0
2026/06/04 08:44:37.699,-0.014,0.069,-1.002
2026/06/04 08:44:37.719,-0.017,0.066,-0.995
2026/06/04 08:44:37.739,-0.01,0.065,-1.001
2026/06/04 08:44:37.759,-0.012,0.065,-1.012
2026/06/04 08:44:37.779,-0.014,0.07,-1.0
2026/06/04 08:44:37.799,-0.014,0.066,-1.009
2026/06/04 08:44:37.819,-0.017,0.067,-0.995
2026/06/04 08:44:37.839,-0.012,0.067,-1.005
2026/06/04 08:44:37.859,-0.007,0.065,-1.003
2026/06/04 08:44:37.879,-0.016,0.07,-1.004
2026/06/04 08:44:37.899,-0.012,0.062,-1.006
2026/06/04 08:44:37.919,-0.013,0.064,-0.997
2026/06/04 08:44:37.939,-0.014,0.067,-1.008
2026/06/04 08:44:37.959,-0.013,0.065,-0.998
2026/06/04 08:44:37.979,-0.012,0.07,-1.001
2026/06/04 08:44:37.999,-0.014,0.074,-1.01
2026/06/04 08:44:38.019,-0.01,0.067,-0.998
2026/06/04 08:44:38.039,-0.016,0.068,-1.005
2026/06/04 08:44:38.059,-0.014,0.068,-0.999
2026/06/04 08:44:38.079,-0.012,0.066,-0.998
2026/06/04 08:44:38.099,-0.009,0.063,-1.004
2026/06/04 08:44:38.120,-0.011,0.066,-1.0
2026/06/04 08:44:38.140,-0.011,0.065,-1.003
2026/06/04 08:44:38.160,-0.017,0.064,-0.999
2026/06/04 08:44:38.180,-0.013,0.064,-1.002
2026/06/04 08:44:38.200,-0.016,0.067,-1.001
2026/06/04 08:44:38.220,-0.014,0.066,-0.999
2026/06/04 08:44:38.240,-0.015,0.066,-1.01
2026/06/04 08:44:38.260,-0.014,0.068,-0.999
2026/06/04 08:44:38.280,-0.01,0.066,-1.008
2026/06/04 08:44:38.300,-0.014,0.068,-1.004
2026/06/04 08:44:38.320,-0.014,0.069,-1.001
2026/06/04 08:44:38.340,-0.014,0.069,-1.001
2026/06/04 08:44:38.360,-0.017,0.07,-1.005
2026/06/04 08:44:38.380,-0.014,0.07,-1.013
2026/06/04 08:44:38.400,-0.009,0.068,-1.007
2026/06/04 08:44:38.420,-0.012,0.075,-1.005
2026/06/04 08:44:38.440,-0.012,0.069,-1.009
2026/06/04 08:44:38.460,-0.013,0.071,-1.005
2026/06/04 08:44:38.480,-0.013,0.067,-1.005
2026/06/04 08:44:38.500,-0.013,0.07,-1.0
2026/06/04 08:44:38.520,-0.013,0.066,-1.005
2026/06/04 08:44:38.540,-0.011,0.066,-1.002
2026/06/04 08:44:38.560,-0.011,0.061,-0.998
2026/06/04 08:44:38.580,-0.014,0.065,-1.003
2026/06/04 08:44:38.600,-0.014,0.066,-1.001
2026/06/04 08:44:38.621,-0.014,0.066,-1.003
2026/06/04 08:44:38.641,-0.009,0.064,-1.006
2026/06/04 08:44:38.661,-0.01,0.068,-0.996
2026/06/04 08:44:38.681,-0.012,0.063,-1.003
2026/06/04 08:44:38.701,-0.013,0.066,-1.002
2026/06/04 08:44:38.721,-0.013,0.064,-1.004
2026/06/04 08:44:38.741,-0.013,0.067,-1.003
2026/06/04 08:44:38.761,-0.019,0.067,-1.005
2026/06/04 08:44:38.781,-0.015,0.068,-0.994
2026/06/04 08:44:38.801,-0.011,0.066,-1.001
2026/06/04 08:44:38.821,-0.02,0.066,-0.997
2026/06/04 08:44:38.841,-0.016,0.062,-1.0
2026/06/04 08:44:38.861,-0.013,0.064,-1.001
2026/06/04 08:44:38.881,-0.016,0.068,-1.01
2026/06/04 08:44:38.901,-0.013,0.071,-1.002
2026/06/04 08:44:38.921,-0.012,0.07,-1.011
2026/06/04 08:44:38.941,-0.017,0.069,-1.01
2026/06/04 08:44:38.961,-0.018,0.074,-1.013
2026/06/04 08:44:38.981,-0.018,0.077,-0.997
2026/06/04 08:44:39.001,-0.016,0.073,-0.997
2026/06/04 08:44:39.021,-0.014,0.067,-1.007
2026/06/04 08:44:39.041,-0.015,0.066,-1.003
2026/06/04 08:44:39.061,-0.015,0.07,-1.004
2026/06/04 08:44:39.081,-0.016,0.064,-1.004
2026/06/04 08:44:39.101,-0.016,0.07,-1.0
2026/06/04 08:44:39.122,-0.014,0.068,-1.008
2026/06/04 08:44:39.142,-0.012,0.068,-1.002
2026/06/04 08:44:39.162,-0.016,0.066,-1.007
2026/06/04 08:44:39.182,-0.016,0.073,-1.003
2026/06/04 08:44:39.202,-0.015,0.068,-1.003
2026/06/04 08:44:39.222,-0.017,0.064,-1.003
2026/06/04 08:44:39.242,-0.013,0.067,-1.01
2026/06/04 08:44:39.262,-0.013,0.072,-1.011
2026/06/04 08:44:39.282,-0.006,0.072,-1.013
2026/06/04 08:44:39.302,-0.011,0.076,-1.014
2026/06/04 08:44:39.322,-0.012,0.071,-1.016
2026/06/04 08:44:39.342,-0.011,0.071,-1.022
2026/06/04 08:44:39.362,-0.012,0.073,-1.011
2026/06/04 08:44:39.382,-0.013,0.069,-1.013
2026/06/04 08:44:39.402,-0.013,0.065,-1.013
2026/06/04 08:44:39.422,-0.013,0.072,-1.006
2026/06/04 08:44:39.442,-0.013,0.067,-1.005
2026/06/04 08:44:39.462,-0.016,0.064,-1.006
2026/06/04 08:44:39.482,-0.014,0.072,-1.003
2026/06/04 08:44:39.502,-0.013,0.066,-1.004
2026/06/04 08:44:39.522,-0.018,0.065,-0.997
2026/06/04 08:44:39.542,-0.015,0.068,-1.002
2026/06/04 08:44:39.562,-0.011,0.064,-1.005
2026/06/04 08:44:39.582,-0.013,0.068,-1.002
2026/06/04 08:44:39.602,-0.013,0.065,-1.0
2026/06/04 08:44:39.623,-0.017,0.066,-0.999
2026/06/04 08:44:39.643,-0.015,0.066,-1.006
2026/06/04 08:44:39.663,-0.011,0.066,-1.005
2026/06/04 08:44:39.683,-0.018,0.067,-1.0
2026/06/04 08:44:39.703,-0.013,0.07,-1.005
2026/06/04 08:44:39.723,-0.009,0.068,-1.012
2026/06/04 08:44:39.743,-0.013,0.07,-1.02
2026/06/04 08:44:39.763,-0.01,0.07,-1.01
2026/06/04 08:44:39.783,-0.017,0.073,-1.018
2026/06/04 08:44:39.803,-0.013,0.07,-1.015
2026/06/04 08:44:39.823,-0.014,0.07,-1.009
2026/06/04 08:44:39.843,-0.015,0.073,-1.009
2026/06/04 08:44:39.863,-0.017,0.071,-1.007
2026/06/04 08:44:39.883,-0.015,0.068,-1.005
2026/06/04 08:44:39.903,-0.015,0.071,-1.001
2026/06/04 08:44:39.923,-0.013,0.067,-1.01
2026/06/04 08:44:39.943,-0.014,0.064,-1.009
2026/06/04 08:44:39.963,-0.013,0.069,-1.009
2026/06/04 08:44:39.983,-0.011,0.069,-1.012
2026/06/04 08:44:40.003,-0.014,0.07,-1.002
2026/06/04 08:44:40.023,-0.014,0.072,-1.007
2026/06/04 08:44:40.043,-0.014,0.067,-1.008
2026/06/04 08:44:40.063,-0.013,0.064,-0.996
2026/06/04 08:44:40.083,-0.017,0.065,-1.003
2026/06/04 08:44:40.103,-0.014,0.065,-0.998
2026/06/04 08:44:40.124,-0.009,0.071,-1.008
2026/06/04 08:44:40.144,-0.014,0.07,-1.008
2026/06/04 08:44:40.164,-0.013,0.071,-1.01
2026/06/04 08:44:40.184,-0.015,0.071,-1.001
2026/06/04 08:44:40.204,-0.017,0.069,-1.003
2026/06/04 08:44:40.224,-0.014,0.071,-1.003
2026/06/04 08:44:40.244,-0.011,0.064,-0.996
2026/06/04 08:44:40.264,-0.013,0.061,-0.994
2026/06/04 08:44:40.284,-0.015,0.07,-1.001
2026/06/04 08:44:40.304,-0.013,0.063,-0.998
2026/06/04 08:44:40.324,-0.013,0.065,-1.005
2026/06/04 08:44:40.344,-0.013,0.065,-0.996
2026/06/04 08:44:40.364,-0.012,0.068,-1.003
2026/06/04 08:44:40.384,-0.013,0.073,-1.002
2026/06/04 08:44:40.404,-0.016,0.064,-0.993
2026/06/04 08:44:40.424,-0.009,0.065,-1.002
2026/06/04 08:44:40.444,-0.013,0.065,-0.992
2026/06/04 08:44:40.464,-0.013,0.067,-0.996
2026/06/04 08:44:40.484,-0.01,0.065,-1.003
2026/06/04 08:44:40.504,-0.015,0.066,-0.997
2026/06/04 08:44:40.524,-0.012,0.068,-1.008
2026/06/04 08:44:40.544,-0.015,0.065,-1.004
2026/06/04 08:44:40.564,-0.012,0.077,-1.013
2026/06/04 08:44:40.584,-0.014,0.07,-1.012
2026/06/04 08:44:40.604,-0.013,0.077,-1.011
2026/06/04 08:44:40.625,-0.015,0.07,-1.008
2026/06/04 08:44:40.645,-0.015,0.071,-1.0
2026/06/04 08:44:40.665,-0.013,0.069,-1.005
2026/06/04 08:44:40.685,-0.014,0.064,-1.0
2026/06/04 08:44:40.705,-0.011,0.063,-1.003
2026/06/04 08:44:40.725,-0.015,0.062,-1.002
2026/06/04 08:44:40.745,-0.014,0.07,-1.001
2026/06/04 08:44:40.765,-0.013,0.069,-1.003
2026/06/04 08:44:40.785,-0.015,0.066,-0.997
2026/06/04 08:44:40.805,-0.017,0.065,-0.995
2026/06/04 08:44:40.825,-0.017,0.066,-0.999
2026/06/04 08:44:40.845,-0.017,0.065,-0.997
2026/06/04 08:44:40.865,-0.013,0.072,-0.999
2026/06/04 08:44:40.885,-0.013,0.065,-1.001
2026/06/04 08:44:40.905,-0.012,0.063,-0.997
2026/06/04 08:44:40.925,-0.009,0.065,-1.002
2026/06/04 08:44:40.945,-0.013,0.067,-1.001
2026/06/04 08:44:40.965,-0.013,0.068,-1.002
2026/06/04 08:44:40.985,-0.016,0.068,-1.006
2026/06/04 08:44:41.005,-0.014,0.064,-0.992
2026/06/04 08:44:41.025,-0.014,0.066,-1.002
2026/06/04 08:44:41.045,-0.015,0.062,-0.983
2026/06/04 08:44:41.065,-0.017,0.062,-0.991
2026/06/04 08:44:41.085,-0.014,0.066,-0.996
2026/06/04 08:44:41.105,-0.013,0.066,-0.99
2026/06/04 08:44:41.125,-0.009,0.065,-1.002
2026/06/04 08:44:41.146,-0.017,0.064,-0.997
2026/06/04 08:44:41.166,-0.014,0.069,-1.01
2026/06/04 08:44:41.186,-0.016,0.074,-1.004
2026/06/04 08:44:41.206,-0.014,0.068,-1.0
2026/06/04 08:44:41.226,-0.013,0.069,-1.015
2026/06/04 08:44:41.246,-0.014,0.074,-1.004
2026/06/04 08:44:41.266,-0.013,0.066,-1.006
2026/06/04 08:44:41.286,-0.014,0.069,-1.005
2026/06/04 08:44:41.306,-0.014,0.072,-0.998
2026/06/04 08:44:41.326,-0.015,0.065,-1.005
2026/06/04 08:44:41.346,-0.012,0.061,-0.999
2026/06/04 08:44:41.366,-0.009,0.063,-0.993
2026/06/04 08:44:41.386,-0.012,0.065,-1.004
2026/06/04 08:44:41.406,-0.016,0.067,-1.002
2026/06/04 08:44:41.426,-0.014,0.069,-0.988
2026/06/04 08:44:41.446,-0.013,0.064,-1.0
2026/06/04 08:44:41.466,-0.016,0.061,-0.983
2026/06/04 08:44:41.486,-0.012,0.068,-0.996
2026/06/04 08:44:41.506,-0.015,0.061,-0.988
2026/06/04 08:44:41.526,-0.013,0.073,-1.002
2026/06/04 08:44:41.546,-0.012,0.063,-0.995
2026/06/04 08:44:41.566,-0.014,0.059,-0.992
2026/06/04 08:44:41.586,-0.011,0.072,-1.006
2026/06/04 08:44:41.606,-0.016,0.07,-0.991
2026/06/04 08:44:41.626,-0.012,0.066,-1.004
2026/06/04 08:44:41.647,-0.015,0.066,-1.003
2026/06/04 08:44:41.667,-0.015,0.065,-1.0
2026/06/04 08:44:41.687,-0.014,0.067,-1.003
2026/06/04 08:44:41.707,-0.013,0.07,-0.999
2026/06/04 08:44:41.727,-0.016,0.07,-0.989
2026/06/04 08:44:41.747,-0.013,0.071,-1.006
2026/06/04 08:44:41.767,-0.015,0.066,-1.0
2026/06/04 08:44:41.787,-0.014,0.07,-1.007
2026/06/04 08:44:41.807,-0.013,0.069,-1.008
2026/06/04 08:44:41.827,-0.015,0.07,-1.008
2026/06/04 08:44:41.847,-0.013,0.065,-1.004
2026/06/04 08:44:41.867,-0.012,0.072,-1.011
2026/06/04 08:44:41.887,-0.015,0.07,-1.009
2026/06/04 08:44:41.907,-0.01,0.072,-1.008
2026/06/04 08:44:41.927,-0.008,0.073,-1.009
2026/06/04 08:44:41.947,-0.016,0.066,-0.995
2026/06/04 08:44:41.967,-0.016,0.065,-0.989
2026/06/04 08:44:41.987,-0.009,0.064,-0.996
2026/06/04 08:44:42.007,-0.013,0.061,-0.999
2026/06/04 08:44:42.027,-0.015,0.065,-0.997
2026/06/04 08:44:42.047,-0.015,0.065,-1.001
2026/06/04 08:44:42.067,-0.013,0.067,-1.007
2026/06/04 08:44:42.087,-0.018,0.072,-1.007
2026/06/04 08:44:42.107,-0.014,0.071,-1.009
2026/06/04 08:44:42.127,-0.015,0.072,-1.011
2026/06/04 08:44:42.148,-0.015,0.067,-1.009
2026/06/04 08:44:42.168,-0.012,0.07,-1.005
2026/06/04 08:44:42.188,-0.011,0.069,-1.011
2026/06/04 08:44:42.208,-0.013,0.066,-1.004
2026/06/04 08:44:42.228,-0.014,0.064,-1.004
2026/06/04 08:44:42.248,-0.011,0.069,-1.002
2026/06/04 08:44:42.268,-0.015,0.067,-0.997
2026/06/04 08:44:42.288,-0.013,0.067,-1.002
2026/06/04 08:44:42.308,-0.01,0.066,-1.005
2026/06/04 08:44:42.328,-0.015,0.074,-1.0
2026/06/04 08:44:42.348,-0.014,0.065,-1.0
2026/06/04 08:44:42.368,-0.013,0.065,-1.006
2026/06/04 08:44:42.388,-0.016,0.068,-1.005
2026/06/04 08:44:42.408,-0.015,0.063,-1.002
2026/06/04 08:44:42.428,-0.015,0.072,-1.008
2026/06/04 08:44:42.448,-0.018,0.071,-1.004
2026/06/04 08:44:42.468,-0.017,0.068,-0.994
2026/06/04 08:44:42.488,-0.014,0.066,-1.002
2026/06/04 08:44:42.508,-0.011,0.068,-0.997
2026/06/04 08:44:42.528,-0.014,0.07,-1.003
2026/06/04 08:44:42.548,-0.016,0.068,-1.003
2026/06/04 08:44:42.568,-0.01,0.067,-1.002
2026/06/04 08:44:42.588,-0.011,0.07,-1.0
2026/06/04 08:44:42.608,-0.019,0.07,-1.004
2026/06/04 08:44:42.628,-0.018,0.068,-1.009
2026/06/04 08:44:42.648,-0.009,0.069,-1.004
2026/06/04 08:44:42.669,-0.016,0.064,-1.002
2026/06/04 08:44:42.689,-0.016,0.069,-0.999
2026/06/04 08:44:42.709,-0.009,0.069,-1.002
2026/06/04 08:44:42.729,-0.011,0.069,-1.003
2026/06/04 08:44:42.749,-0.011,0.065,-0.996
2026/06/04 08:44:42.769,-0.014,0.065,-0.995
2026/06/04 08:44:42.789,-0.013,0.07,-1.01
2026/06/04 08:44:42.809,-0.013,0.066,-0.996
2026/06/04 08:44:42.829,-0.011,0.069,-1.006
2026/06/04 08:44:42.849,-0.014,0.067,-0.998
2026/06/04 08:44:42.869,-0.017,0.068,-1.001
2026/06/04 08:44:42.889,-0.014,0.077,-1.008
2026/06/04 08:44:42.909,-0.013,0.068,-1.003
2026/06/04 08:44:42.929,-0.012,0.07,-1.004
2026/06/04 08:44:42.949,-0.011,0.064,-1.008
2026/06/04 08:44:42.969,-0.015,0.071,-0.998
2026/06/04 08:44:42.989,-0.011,0.061,-1.003
2026/06/04 08:44:43.009,-0.011,0.07,-1.003
2026/06/04 08:44:43.029,-0.018,0.068,-1.005
2026/06/04 08:44:43.049,-0.011,0.062,-1.004
2026/06/04 08:44:43.069,-0.016,0.069,-1.009
2026/06/04 08:44:43.089,-0.013,0.067,-0.999
2026/06/04 08:44:43.109,-0.014,0.064,-1.01
2026/06/04 08:44:43.129,-0.012,0.069,-1.004
2026/06/04 08:44:43.149,-0.016,0.062,-1.001
2026/06/04 08:44:43.170,-0.013,0.068,-1.001
2026/06/04 08:44:43.190,-0.013,0.065,-1.006
2026/06/04 08:44:43.210,-0.015,0.066,-0.995
2026/06/04 08:44:43.230,-0.01,0.068,-1.016
2026/06/04 08:44:43.250,-0.017,0.068,-0.995
2026/06/04 08:44:43.270,-0.015,0.073,-1.004
2026/06/04 08:44:43.290,-0.017,0.07,-1.004
2026/06/04 08:44:43.310,-0.011,0.065,-0.993
2026/06/04 08:44:43.330,-0.014,0.07,-1.012
2026/06/04 08:44:43.350,-0.014,0.068,-1.0
2026/06/04 08:44:43.370,-0.013,0.066,-0.996
2026/06/04 08:44:43.390,-0.011,0.066,-1.015
2026/06/04 08:44:43.410,-0.015,0.067,-0.995
2026/06/04 08:44:43.430,-0.013,0.068,-1.005
2026/06/04 08:44:43.450,-0.015,0.069,-1.002
2026/06/04 08:44:43.470,-0.014,0.065,-1.003
2026/06/04 08:44:43.490,-0.016,0.065,-1.006
2026/06/04 08:44:43.510,-0.018,0.07,-1.001
2026/06/04 08:44:43.530,-0.015,0.07,-1.007
2026/06/04 08:44:43.550,-0.011,0.065,-1.003
2026/06/04 08:44:43.570,-0.019,0.066,-0.989
2026/06/04 08:44:43.590,-0.014,0.064,-1.0
2026/06/04 08:44:43.610,-0.012,0.061,-0.989
2026/06/04 08:44:43.630,-0.013,0.063,-0.992
2026/06/04 08:44:43.650,-0.014,0.066,-0.998
2026/06/04 08:44:43.671,-0.013,0.061,-0.998
2026/06/04 08:44:43.691,-0.014,0.071,-0.996
2026/06/04 08:44:43.711,-0.014,0.073,-1.004
2026/06/04 08:44:43.731,-0.015,0.068,-1.004
2026/06/04 08:44:43.751,-0.013,0.069,-1.001
2026/06/04 08:44:43.771,-0.01,0.069,-1.006
2026/06/04 08:44:43.791,-0.015,0.072,-1.002
2026/06/04 08:44:43.811,-0.015,0.071,-1.0
2026/06/04 08:44:43.831,-0.013,0.067,-1.007
2026/06/04 08:44:43.851,-0.013,0.065,-0.995
2026/06/04 08:44:43.871,-0.015,0.069,-1.015
2026/06/04 08:44:43.891,-0.016,0.07,-0.998
2026/06/04 08:44:43.911,-0.011,0.063,-1.007
2026/06/04 08:44:43.931,-0.014,0.065,-1.001
2026/06/04 08:44:43.951,-0.014,0.065,-0.997
2026/06/04 08:44:43.971,-0.01,0.073,-1.012
2026/06/04 08:44:43.991,-0.012,0.064,-0.991
2026/06/04 08:44:44.011,-0.013,0.068,-0.991
2026/06/04 08:44:44.031,-0.014,0.066,-0.994
2026/06/04 08:44:44.051,-0.013,0.065,-0.983
2026/06/04 08:44:44.071,-0.011,0.065,-0.996
2026/06/04 08:44:44.091,-0.013,0.062,-0.994
2026/06/04 08:44:44.111,-0.012,0.065,-1.003
2026/06/04 08:44:44.131,-0.011,0.066,-1.003
2026/06/04 08:44:44.151,-0.013,0.071,-1.003
2026/06/04 08:44:44.172,-0.012,0.066,-1.005
2026/06/04 08:44:44.192,-0.017,0.066,-1.0
2026/06/04 08:44:44.212,-0.011,0.066,-1.006
2026/06/04 08:44:44.232,-0.014,0.066,-1.0
2026/06/04 08:44:44.252,-0.01,0.064,-1.005
2026/06/04 08:44:44.272,-0.011,0.066,-1.013
2026/06/04 08:44:44.292,-0.01,0.065,-0.997
2026/06/04 08:44:44.312,-0.012,0.069,-1.005
2026/06/04 08:44:44.332,-0.013,0.063,-1.005
2026/06/04 08:44:44.352,-0.014,0.068,-1.002
2026/06/04 08:44:44.372,-0.01,0.068,-1.016
2026/06/04 08:44:44.392,-0.013,0.07,-0.994
2026/06/04 08:44:44.412,-0.013,0.066,-1.011
2026/06/04 08:44:44.432,-0.013,0.067,-0.995
2026/06/04 08:44:44.452,-0.019,0.07,-0.994
2026/06/04 08:44:44.472,-0.015,0.071,-1.001
2026/06/04 08:44:44.492,-0.011,0.065,-0.99
2026/06/04 08:44:44.512,-0.01,0.065,-1.007
2026/06/04 08:44:44.532,-0.013,0.066,-0.995
2026/06/04 08:44:44.552,-0.013,0.062,-1.0
2026/06/04 08:44:44.572,-0.014,0.071,-1.011
2026/06/04 08:44:44.592,-0.016,0.067,-0.996
2026/06/04 08:44:44.612,-0.011,0.065,-1.014
2026/06/04 08:44:44.632,-0.012,0.068,-0.996
2026/06/04 08:44:44.652,-0.013,0.066,-1.009
2026/06/04 08:44:44.672,-0.014,0.067,-1.009
2026/06/04 08:44:44.693,-0.013,0.073,-0.994
2026/06/04 08:44:44.713,-0.013,0.068,-1.007
2026/06/04 08:44:44.733,-0.017,0.065,-0.995
2026/06/04 08:44:44.753,-0.013,0.07,-1.009
2026/06/04 08:44:44.773,-0.016,0.066,-1.011
2026/06/04 08:44:44.793,-0.015,0.062,-0.997
2026/06/04 08:44:44.813,-0.011,0.07,-1.009
2026/06/04 08:44:44.833,-0.009,0.066,-0.998
2026/06/04 08:44:44.853,-0.014,0.066,-1.005
2026/06/04 08:44:44.873,-0.016,0.073,-0.996
2026/06/04 08:44:44.893,-0.014,0.065,-0.99
2026/06/04 08:44:44.913,-0.017,0.072,-0.994
2026/06/04 08:44:44.933,-0.013,0.065,-0.998
2026/06/04 08:44:44.953,-0.009,0.063,-0.999
2026/06/04 08:44:44.973,-0.018,0.067,-1.003
2026/06/04 08:44:44.993,-0.014,0.065,-0.99
2026/06/04 08:44:45.013,-0.013,0.066,-1.004
2026/06/04 08:44:45.033,-0.018,0.069,-0.997
2026/06/04 08:44:45.053,-0.011,0.063,-1.0
2026/06/04 08:44:45.073,-0.013,0.065,-1.006
2026/06/04 08:44:45.093,-0.017,0.066,-0.999
2026/06/04 08:44:45.113,-0.012,0.068,-0.999
2026/06/04 08:44:45.133,-0.013,0.06,-1.012
2026/06/04 08:44:45.153,-0.013,0.07,-1.005
2026/06/04 08:44:45.173,-0.01,0.066,-1.003
2026/06/04 08:44:45.194,-0.017,0.066,-0.998
2026/06/04 08:44:45.214,-0.014,0.066,-1.009
2026/06/04 08:44:45.234,-0.015,0.071,-1.003
2026/06/04 08:44:45.254,-0.013,0.065,-1.021
2026/06/04 08:44:45.274,-0.012,0.075,-1.004
2026/06/04 08:44:45.294,-0.017,0.073,-1.007
2026/06/04 08:44:45.314,-0.01,0.073,-1.013
2026/06/04 08:44:45.334,-0.012,0.069,-1.0
2026/06/04 08:44:45.354,-0.012,0.072,-1.012
2026/06/04 08:44:45.374,-0.012,0.064,-1.005
2026/06/04 08:44:45.394,-0.01,0.065,-1.003
2026/06/04 08:44:45.414,-0.012,0.067,-1.001
2026/06/04 08:44:45.434,-0.011,0.067,-0.992
2026/06/04 08:44:45.454,-0.016,0.068,-1.012
2026/06/04 08:44:45.474,-0.013,0.069,-0.996
2026/06/04 08:44:45.494,-0.016,0.064,-1.008
2026/06/04 08:44:45.514,-0.013,0.063,-1.004
2026/06/04 08:44:45.534,-0.015,0.066,-0.997
2026/06/04 08:44:45.554,-0.016,0.069,-1.008
2026/06/04 08:44:45.574,-0.015,0.068,-1.002
2026/06/04 08:44:45.594,-0.013,0.067,-0.999
2026/06/04 08:44:45.614,-0.013,0.069,-1.002
2026/06/04 08:44:45.634,-0.021,0.068,-0.999
2026/06/04 08:44:45.654,-0.015,0.062,-1.0
2026/06/04 08:44:45.674,-0.012,0.065,-1.006
2026/06/04 08:44:45.695,-0.015,0.07,-1.011
2026/06/04 08:44:45.715,-0.015,0.072,-1.01
2026/06/04 08:44:45.735,-0.01,0.072,-1.017
2026/06/04 08:44:45.755,-0.013,0.073,-1.019
2026/06/04 08:44:45.775,-0.009,0.071,-1.009
2026/06/04 08:44:45.795,-0.015,0.074,-1.017
2026/06/04 08:44:45.815,-0.014,0.068,-1.008
2026/06/04 08:44:45.835,-0.013,0.072,-1.006
2026/06/04 08:44:45.855,-0.015,0.067,-1.009
2026/06/04 08:44:45.875,-0.014,0.07,-1.002
2026/06/04 08:44:45.895,-0.016,0.064,-1.002
2026/06/04 08:44:45.915,-0.014,0.059,-0.997
2026/06/04 08:44:45.935,-0.014,0.068,-1.011
2026/06/04 08:44:45.955,-0.009,0.068,-1.003
2026/06/04 08:44:45.975,-0.013,0.07,-0.999
2026/06/04 08:44:45.995,-0.011,0.065,-0.998
2026/06/04 08:44:46.015,-0.011,0.069,-1.005
2026/06/04 08:44:46.035,-0.01,0.064,-1.008
2026/06/04 08:44:46.055,-0.012,0.068,-1.004
2026/06/04 08:44:46.075,-0.013,0.069,-1.001
2026/06/04 08:44:46.095,-0.014,0.069,-1.007
2026/06/04 08:44:46.115,-0.011,0.071,-1.009
2026/06/04 08:44:46.135,-0.01,0.071,-1.011
2026/06/04 08:44:46.155,-0.015,0.073,-1.009
2026/06/04 08:44:46.175,-0.017,0.069,-1.011
2026/06/04 08:44:46.195,-0.013,0.075,-1.012
2026/06/04 08:44:46.216,-0.014,0.071,-1.01
2026/06/04 08:44:46.236,-0.013,0.065,-1.001
2026/06/04 08:44:46.256,-0.008,0.06,-1.012
2026/06/04 08:44:46.276,-0.016,0.067,-0.999
2026/06/04 08:44:46.296,-0.01,0.063,-1.006
2026/06/04 08:44:46.316,-0.015,0.069,-1.0
2026/06/04 08:44:46.336,-0.017,0.071,-1.005
2026/06/04 08:44:46.356,-0.017,0.071,-1.004
2026/06/04 08:44:46.376,-0.01,0.065,-1.002
2026/06/04 08:44:46.396,-0.012,0.066,-1.003
2026/06/04 08:44:46.416,-0.021,0.067,-1.003
2026/06/04 08:44:46.436,-0.013,0.066,-1.005
2026/06/04 08:44:46.456,-0.015,0.073,-0.999
2026/06/04 08:44:46.476,-0.014,0.064,-0.999
2026/06/04 08:44:46.496,-0.012,0.067,-1.005
2026/06/04 08:44:46.516,-0.014,0.07,-1.001
2026/06/04 08:44:46.536,-0.014,0.063,-1.003
2026/06/04 08:44:46.556,-0.02,0.071,-1.003
2026/06/04 08:44:46.576,-0.008,0.07,-1.012
2026/06/04 08:44:46.596,-0.008,0.066,-1.014
2026/06/04 08:44:46.616,-0.013,0.07,-1.013
2026/06/04 08:44:46.636,-0.012,0.076,-1.013
2026/06/04 08:44:46.656,-0.015,0.076,-1.014
2026/06/04 08:44:46.676,-0.015,0.071,-1.003
2026/06/04 08:44:46.696,-0.012,0.065,-1.007
2026/06/04 08:44:46.716,-0.012,0.064,-0.997
2026/06/04 08:44:46.737,-0.016,0.07,-0.998
2026/06/04 08:44:46.757,-0.009,0.067,-0.997
2026/06/04 08:44:46.777,-0.013,0.064,-1.004
2026/06/04 08:44:46.797,-0.018,0.068,-0.997
2026/06/04 08:44:46.817,-0.016,0.067,-1.003
2026/06/04 08:44:46.837,-0.013,0.062,-1.006
2026/06/04 08:44:46.857,-0.015,0.068,-0.997
2026/06/04 08:44:46.877,-0.013,0.068,-1.002
2026/06/04 08:44:46.897,-0.015,0.065,-1.004
2026/06/04 08:44:46.917,-0.015,0.068,-1.0
2026/06/04 08:44:46.937,-0.01,0.066,-1.006
2026/06/04 08:44:46.957,-0.015,0.066,-0.998
2026/06/04 08:44:46.977,-0.012,0.068,-1.009
2026/06/04 08:44:46.997,-0.016,0.072,-1.009
2026/06/04 08:44:47.017,-0.013,0.067,-1.013
2026/06/04 08:44:47.037,-0.015,0.068,-1.008
2026/06/04 08:44:47.057,-0.011,0.071,-1.007
2026/06/04 08:44:47.077,-0.013,0.067,-1.013
2026/06/04 08:44:47.097,-0.015,0.069,-1.003
2026/06/04 08:44:47.117,-0.013,0.064,-1.004
2026/06/04 08:44:47.137,-0.016,0.066,-1.004
2026/06/04 08:44:47.157,-0.012,0.07,-1.006
2026/06/04 08:44:47.177,-0.013,0.067,-1.009
2026/06/04 08:44:47.197,-0.01,0.068,-1.007
2026/06/04 08:44:47.217,-0.017,0.068,-1.012
2026/06/04 08:44:47.237,-0.014,0.067,-1.005
2026/06/04 08:44:47.258,-0.014,0.068,-1.003
2026/06/04 08:44:47.278,-0.015,0.068,-1.002
2026/06/04 08:44:47.298,-0.012,0.063,-0.997
2026/06/04 08:44:47.318,-0.011,0.065,-1.002
2026/06/04 08:44:47.338,-0.017,0.073,-1.001
2026/06/04 08:44:47.358,-0.019,0.07,-1.0
2026/06/04 08:44:47.378,-0.014,0.068,-1.002
2026/06/04 08:44:47.398,-0.019,0.07,-0.996
2026/06/04 08:44:47.418,-0.012,0.063,-1.005
2026/06/04 08:44:47.438,-0.015,0.072,-1.007
2026/06/04 08:44:47.458,-0.02,0.066,-1.005
2026/06/04 08:44:47.478,-0.013,0.072,-1.01
2026/06/04 08:44:47.498,-0.015,0.069,-1.01
2026/06/04 08:44:47.518,-0.018,0.074,-1.002
2026/06/04 08:44:47.538,-0.018,0.071,-1.007
2026/06/04 08:44:47.558,-0.018,0.068,-1.005
2026/06/04 08:44:47.578,-0.015,0.07,-1.006
2026/06/04 08:44:47.598,-0.016,0.069,-1.001
2026/06/04 08:44:47.618,-0.014,0.071,-1.002
2026/06/04 08:44:47.638,-0.017,0.064,-0.998
2026/06/04 08:44:47.658,-0.014,0.065,-1.006
2026/06/04 08:44:47.678,-0.013,0.067,-1.01
2026/06/04 08:44:47.698,-0.011,0.068,-1.005
2026/06/04 08:44:47.718,-0.011,0.067,-1.007
2026/06/04 08:44:47.738,-0.014,0.068,-1.008
2026/06/04 08:44:47.758,-0.013,0.065,-1.01
2026/06/04 08:44:47.779,-0.016,0.067,-0.999
2026/06/04 08:44:47.799,-0.012,0.066,-1.005
2026/06/04 08:44:47.819,-0.016,0.067,-1.009
2026/06/04 08:44:47.839,-0.012,0.07,-1.009
2026/06/04 08:44:47.859,-0.011,0.069,-1.009
2026/06/04 08:44:47.879,-0.01,0.066,-1.009
2026/06/04 08:44:47.899,-0.013,0.072,-1.007
2026/06/04 08:44:47.919,-0.011,0.068,-1.01
2026/06/04 08:44:47.939,-0.017,0.07,-1.007
2026/06/04 08:44:47.959,-0.016,0.066,-1.005
2026/06/04 08:44:47.979,-0.012,0.07,-1.006
2026/06/04 08:44:47.999,-0.009,0.066,-1.009
2026/06/04 08:44:48.019,-0.01,0.069,-1.007
2026/06/04 08:44:48.039,-0.014,0.07,-1.002
2026/06/04 08:44:48.059,-0.015,0.07,-0.996
2026/06/04 08:44:48.079,-0.012,0.064,-0.995
2026/06/04 08:44:48.099,-0.013,0.065,-0.997
2026/06/04 08:44:48.119,-0.014,0.067,-0.996
2026/06/04 08:44:48.139,-0.011,0.062,-1.007
2026/06/04 08:44:48.159,-0.017,0.069,-0.993
2026/06/04 08:44:48.179,-0.014,0.07,-0.999
2026/06/04 08:44:48.199,-0.013,0.066,-1.01
2026/06/04 08:44:48.219,-0.013,0.07,-0.999
2026/06/04 08:44:48.239,-0.012,0.063,-1.006
2026/06/04 08:44:48.259,-0.017,0.067,-0.999
2026/06/04 08:44:48.279,-0.019,0.066,-1.002
2026/06/04 08:44:48.299,-0.015,0.065,-1.001
2026/06/04 08:44:48.320,-0.011,0.068,-1.003
2026/06/04 08:44:48.340,-0.017,0.069,-1.003
2026/06/04 08:44:48.360,-0.02,0.07,-1.003
2026/06/04 08:44:48.380,-0.016,0.07,-1.007
2026/06/04 08:44:48.400,-0.021,0.07,-1.002
2026/06/04 08:44:48.420,-0.016,0.07,-1.001
2026/06/04 08:44:48.440,-0.014,0.067,-1.006
2026/06/04 08:44:48.460,-0.013,0.069,-1.001
2026/06/04 08:44:48.480,-0.016,0.065,-1.001
2026/06/04 08:44:48.500,-0.013,0.068,-0.998
2026/06/04 08:44:48.520,-0.016,0.072,-1.003
2026/06/04 08:44:48.540,-0.011,0.069,-1.006
2026/06/04 08:44:48.560,-0.013,0.073,-1.006
2026/06/04 08:44:48.580,-0.015,0.071,-1.013
2026/06/04 08:44:48.600,-0.009,0.072,-1.007
2026/06/04 08:44:48.620,-0.013,0.068,-1.002
2026/06/04 08:44:48.640,-0.013,0.066,-1.003
2026/06/04 08:44:48.660,-0.015,0.066,-1.005
2026/06/04 08:44:48.680,-0.015,0.07,-1.007
2026/06/04 08:44:48.700,-0.011,0.069,-0.999
2026/06/04 08:44:48.720,-0.011,0.069,-1.002
2026/06/04 08:44:48.740,-0.015,0.07,-1.003
2026/06/04 08:44:48.760,-0.012,0.06,-1.001
2026/06/04 08:44:48.780,-0.012,0.065,-0.999
2026/06/04 08:44:48.800,-0.013,0.064,-0.992
2026/06/04 08:44:48.821,-0.011,0.064,-0.994
2026/06/04 08:44:48.841,-0.016,0.062,-0.996
2026/06/04 08:44:48.861,-0.011,0.066,-0.999
2026/06/04 08:44:48.881,-0.016,0.072,-1.001
2026/06/04 08:44:48.901,-0.017,0.065,-1.0
2026/06/04 08:44:48.921,-0.008,0.066,-0.999
2026/06/04 08:44:48.941,-0.012,0.062,-1.007
2026/06/04 08:44:48.961,-0.014,0.066,-1.004
2026/06/04 08:44:48.981,-0.01,0.068,-1.004
2026/06/04 08:44:49.001,-0.011,0.065,-1.002
2026/06/04 08:44:49.021,-0.015,0.07,-1.003
2026/06/04 08:44:49.041,-0.016,0.067,-1.002
2026/06/04 08:44:49.061,-0.01,0.066,-1.004
2026/06/04 08:44:49.081,-0.01,0.068,-1.013
2026/06/04 08:44:49.101,-0.009,0.071,-0.998
2026/06/04 08:44:49.121,-0.013,0.069,-0.997
2026/06/04 08:44:49.141,-0.013,0.064,-0.993
2026/06/04 08:44:49.161,-0.015,0.058,-0.987
2026/06/04 08:44:49.181,-0.02,0.061,-0.99
2026/06/04 08:44:49.201,-0.007,0.057,-0.997
2026/06/04 08:44:49.221,-0.016,0.059,-0.985
2026/06/04 08:44:49.241,-0.012,0.062,-0.99
2026/06/04 08:44:49.261,-0.012,0.067,-0.995
2026/06/04 08:44:49.281,-0.022,0.071,-0.993
2026/06/04 08:44:49.301,-0.011,0.07,-1.004
2026/06/04 08:44:49.321,-0.013,0.067,-0.995
2026/06/04 08:44:49.342,-0.016,0.069,-1.003
2026/06/04 08:44:49.362,-0.011,0.066,-1.008
2026/06/04 08:44:49.382,-0.014,0.07,-1.002
2026/06/04 08:44:49.402,-0.014,0.07,-1.001
2026/06/04 08:44:49.422,-0.016,0.065,-1.0
2026/06/04 08:44:49.442,-0.014,0.07,-1.007
2026/06/04 08:44:49.462,-0.016,0.071,-1.002
2026/06/04 08:44:49.482,-0.016,0.069,-1.004
2026/06/04 08:44:49.502,-0.011,0.066,-1.007
2026/06/04 08:44:49.522,-0.009,0.07,-1.0
2026/06/04 08:44:49.542,-0.01,0.067,-1.003
2026/06/04 08:44:49.562,-0.009,0.069,-0.992
2026/06/04 08:44:49.582,-0.017,0.065,-0.993
2026/06/04 08:44:49.602,-0.014,0.063,-0.991
2026/06/04 08:44:49.622,-0.016,0.065,-0.992
2026/06/04 08:44:49.642,-0.012,0.061,-0.992
2026/06/04 08:44:49.662,-0.012,0.062,-0.992
2026/06/04 08:44:49.682,-0.016,0.065,-0.997
2026/06/04 08:44:49.702,-0.013,0.061,-0.999
2026/06/04 08:44:49.722,-0.013,0.067,-0.999
2026/06/04 08:44:49.742,-0.013,0.065,-1.002
2026/06/04 08:44:49.762,-0.014,0.063,-1.0
2026/06/04 08:44:49.782,-0.014,0.068,-1.002
2026/06/04 08:44:49.802,-0.013,0.064,-1.011
2026/06/04 08:44:49.822,-0.017,0.067,-1.003
2026/06/04 08:44:49.842,-0.013,0.071,-0.997
2026/06/04 08:44:49.863,-0.015,0.063,-1.003
2026/06/04 08:44:49.883,-0.014,0.066,-0.999
2026/06/04 08:44:49.903,-0.015,0.066,-1.0
2026/06/04 08:44:49.923,-0.015,0.066,-1.006
2026/06/04 08:44:49.943,-0.014,0.067,-1.001
2026/06/04 08:44:49.963,-0.013,0.069,-1.003
2026/06/04 08:44:49.983,-0.013,0.064,-1.004
2026/06/04 08:44:50.003,-0.013,0.064,-0.998
2026/06/04 08:44:50.023,-0.015,0.064,-0.996
2026/06/04 08:44:50.043,-0.015,0.063,-0.997
2026/06/04 08:44:50.063,-0.015,0.065,-0.992
2026/06/04 08:44:50.083,-0.016,0.067,-0.992
2026/06/04 08:44:50.103,-0.011,0.065,-1.003
2026/06/04 08:44:50.123,-0.016,0.066,-1.001
2026/06/04 08:44:50.143,-0.014,0.072,-1.005
2026/06/04 08:44:50.163,-0.013,0.07,-1.005
2026/06/04 08:44:50.183,-0.015,0.067,-1.011
2026/06/04 08:44:50.203,-0.013,0.068,-0.999
2026/06/04 08:44:50.223,-0.009,0.063,-1.006
2026/06/04 08:44:50.243,-0.011,0.066,-1.001
2026/06/04 08:44:50.263,-0.013,0.07,-1.005
2026/06/04 08:44:50.283,-0.019,0.067,-1.005
2026/06/04 08:44:50.303,-0.013,0.065,-1.002
2026/06/04 08:44:50.323,-0.013,0.065,-1.006
2026/06/04 08:44:50.343,-0.013,0.071,-1.003
2026/06/04 08:44:50.363,-0.009,0.062,-1.002
2026/06/04 08:44:50.384,-0.013,0.065,-0.997
2026/06/04 08:44:50.404,-0.011,0.071,-1.004
2026/06/04 08:44:50.424,-0.01,0.063,-0.998
2026/06/04 08:44:50.444,-0.019,0.075,-0.988
2026/06/04 08:44:50.464,-0.018,0.063,-0.996
2026/06/04 08:44:50.484,-0.013,0.063,-0.996
2026/06/04 08:44:50.504,-0.016,0.069,-1.002
2026/06/04 08:44:50.524,-0.011,0.064,-0.999
2026/06/04 08:44:50.544,-0.023,0.071,-1.003
2026/06/04 08:44:50.564,-0.015,0.066,-1.002
2026/06/04 08:44:50.584,-0.017,0.068,-0.998
2026/06/04 08:44:50.604,-0.015,0.073,-1.007
2026/06/04 08:44:50.624,-0.013,0.062,-1.002
2026/06/04 08:44:50.644,-0.012,0.063,-1.013
2026/06/04 08:44:50.664,-0.018,0.08,-1.003
2026/06/04 08:44:50.684,-0.009,0.059,-1.007
2026/06/04 08:44:50.704,-0.014,0.068,-1.0
2026/06/04 08:44:50.724,-0.013,0.074,-1.001
2026/06/04 08:44:50.744,-0.013,0.068,-1.008
2026/06/04 08:44:50.764,-0.01,0.062,-0.998
2026/06/04 08:44:50.784,-0.017,0.069,-1.003
2026/06/04 08:44:50.804,-0.018,0.072,-1.004
2026/06/04 08:44:50.824,-0.019,0.069,-1.002
2026/06/04 08:44:50.844,-0.01,0.065,-0.998
2026/06/04 08:44:50.864,-0.015,0.066,-0.997
2026/06/04 08:44:50.885,-0.012,0.064,-0.996
2026/06/04 08:44:50.905,-0.013,0.063,-0.989
2026/06/04 08:44:50.925,-0.014,0.063,-0.996
2026/06/04 08:44:50.945,-0.014,0.069,-0.991
2026/06/04 08:44:50.965,-0.011,0.064,-1.0
2026/06/04 08:44:50.985,-0.012,0.065,-1.0
2026/06/04 08:44:51.005,-0.012,0.065,-1.0
2026/06/04 08:44:51.025,-0.012,0.063,-0.999
2026/06/04 08:44:51.045,-0.013,0.064,-1.001
2026/06/04 08:44:51.065,-0.011,0.067,-1.0
2026/06/04 08:44:51.085,-0.012,0.067,-1.002
2026/06/04 08:44:51.105,-0.016,0.068,-1.001
2026/06/04 08:44:51.125,-0.017,0.067,-1.001
2026/06/04 08:44:51.145,-0.011,0.067,-1.001
2026/06/04 08:44:51.165,-0.017,0.067,-1.004
2026/06/04 08:44:51.185,-0.014,0.063,-1.003
2026/06/04 08:44:51.205,-0.012,0.06,-1.006
2026/06/04 08:44:51.225,-0.013,0.069,-1.003
2026/06/04 08:44:51.245,-0.014,0.072,-1.01
2026/06/04 08:44:51.265,-0.012,0.075,-1.011
2026/06/04 08:44:51.285,-0.007,0.077,-1.014
2026/06/04 08:44:51.305,-0.012,0.072,-1.007
2026/06/04 08:44:51.325,-0.015,0.071,-1.006
2026/06/04 08:44:51.345,-0.013,0.067,-1.002
2026/06/04 08:44:51.365,-0.012,0.065,-1.006
2026/06/04 08:44:51.385,-0.013,0.069,-1.004
2026/06/04 08:44:51.406,-0.01,0.068,-1.003
2026/06/04 08:44:51.426,-0.011,0.06,-1.008
2026/06/04 08:44:51.446,-0.012,0.067,-1.002
2026/06/04 08:44:51.466,-0.014,0.064,-1.0
2026/06/04 08:44:51.486,-0.013,0.07,-0.999
2026/06/04 08:44:51.506,-0.016,0.073,-0.998
2026/06/04 08:44:51.526,-0.012,0.067,-0.998
2026/06/04 08:44:51.546,-0.015,0.067,-1.0
2026/06/04 08:44:51.566,-0.01,0.066,-1.005
2026/06/04 08:44:51.586,-0.014,0.068,-1.008
2026/06/04 08:44:51.606,-0.014,0.065,-0.998
2026/06/04 08:44:51.626,-0.015,0.067,-0.998
2026/06/04 08:44:51.646,-0.012,0.067,-1.003
2026/06/04 08:44:51.666,-0.01,0.071,-1.01
2026/06/04 08:44:51.686,-0.009,0.071,-1.009
2026/06/04 08:44:51.706,-0.008,0.07,-1.014
2026/06/04 08:44:51.726,-0.014,0.071,-1.011
2026/06/04 08:44:51.746,-0.012,0.07,-1.011
2026/06/04 08:44:51.766,-0.013,0.066,-1.003
2026/06/04 08:44:51.786,-0.014,0.067,-0.996
2026/06/04 08:44:51.806,-0.008,0.066,-1.007
2026/06/04 08:44:51.826,-0.008,0.066,-0.998
2026/06/04 08:44:51.846,-0.012,0.063,-0.999
2026/06/04 08:44:51.866,-0.013,0.063,-1.0
2026/06/04 08:44:51.886,-0.013,0.065,-0.998
2026/06/04 08:44:51.907,-0.016,0.063,-1.005
2026/06/04 08:44:51.927,-0.013,0.063,-1.003
2026/06/04 08:44:51.947,-0.011,0.065,-1.002
2026/06/04 08:44:51.967,-0.016,0.07,-0.997
2026/06/04 08:44:51.987,-0.017,0.067,-1.003
2026/06/04 08:44:52.007,-0.013,0.071,-1.001
2026/06/04 08:44:52.027,-0.013,0.07,-1.004
2026/06/04 08:44:52.047,-0.014,0.075,-0.998
2026/06/04 08:44:52.067,-0.017,0.068,-0.995
2026/06/04 08:44:52.087,-0.016,0.066,-1.001
2026/06/04 08:44:52.107,-0.015,0.066,-1.007
2026/06/04 08:44:52.127,-0.017,0.071,-1.008
2026/06/04 08:44:52.147,-0.011,0.072,-1.017
2026/06/04 08:44:52.167,-0.014,0.067,-1.022
2026/06/04 08:44:52.187,-0.014,0.072,-1.013
2026/06/04 08:44:52.207,-0.014,0.078,-1.016
2026/06/04 08:44:52.227,-0.013,0.071,-1.011
2026/06/04 08:44:52.247,-0.016,0.072,-1.009
2026/06/04 08:44:52.267,-0.012,0.065,-1.006
2026/06/04 08:44:52.287,-0.011,0.069,-1.006
2026/06/04 08:44:52.307,-0.013,0.066,-1.007
2026/06/04 08:44:52.327,-0.014,0.064,-1.003
2026/06/04 08:44:52.347,-0.011,0.066,-1.003
2026/06/04 08:44:52.367,-0.011,0.066,-1.01
2026/06/04 08:44:52.387,-0.016,0.067,-1.008
2026/06/04 08:44:52.407,-0.012,0.069,-1.003
2026/06/04 08:44:52.428,-0.009,0.065,-1.001
2026/06/04 08:44:52.448,-0.016,0.065,-1.002
2026/06/04 08:44:52.468,-0.012,0.067,-1.006
2026/06/04 08:44:52.488,-0.012,0.065,-0.999
2026/06/04 08:44:52.508,-0.009,0.067,-0.998
2026/06/04 08:44:52.528,-0.013,0.07,-1.003
2026/06/04 08:44:52.548,-0.016,0.075,-1.013
2026/06/04 08:44:52.568,-0.013,0.07,-1.01
2026/06/04 08:44:52.588,-0.013,0.071,-1.016
2026/06/04 08:44:52.608,-0.011,0.077,-1.014
2026/06/04 08:44:52.628,-0.01,0.076,-1.013
2026/06/04 08:44:52.648,-0.011,0.074,-1.009
2026/06/04 08:44:52.668,-0.011,0.065,-1.007
2026/06/04 08:44:52.688,-0.013,0.066,-1.005
2026/06/04 08:44:52.708,-0.013,0.063,-1.005
2026/06/04 08:44:52.728,-0.011,0.069,-1.003
2026/06/04 08:44:52.748,-0.013,0.068,-0.999
2026/06/04 08:44:52.768,-0.015,0.067,-1.006
2026/06/04 08:44:52.788,-0.018,0.066,-0.998
2026/06/04 08:44:52.808,-0.013,0.064,-1.002
2026/06/04 08:44:52.828,-0.007,0.065,-1.002
2026/06/04 08:44:52.848,-0.011,0.064,-0.999
2026/06/04 08:44:52.868,-0.011,0.067,-0.998
2026/06/04 08:44:52.888,-0.014,0.062,-1.003
2026/06/04 08:44:52.908,-0.013,0.068,-1.005
2026/06/04 08:44:52.929,-0.016,0.069,-0.998
2026/06/04 08:44:52.949,-0.011,0.065,-1.009
2026/06/04 08:44:52.969,-0.015,0.072,-1.01
2026/06/04 08:44:52.989,-0.013,0.066,-1.016
2026/06/04 08:44:53.009,-0.013,0.069,-1.011
2026/06/04 08:44:53.029,-0.015,0.069,-1.011
2026/06/04 08:44:53.049,-0.016,0.07,-1.014
2026/06/04 08:44:53.069,-0.011,0.073,-1.01
2026/06/04 08:44:53.089,-0.015,0.068,-1.007
2026/06/04 08:44:53.109,-0.018,0.068,-1.006
2026/06/04 08:44:53.129,-0.011,0.07,-1.01
2026/06/04 08:44:53.149,-0.013,0.071,-1.006
2026/06/04 08:44:53.169,-0.013,0.066,-1.001
2026/06/04 08:44:53.189,-0.013,0.066,-0.996
2026/06/04 08:44:53.209,-0.018,0.068,-0.996
2026/06/04 08:44:53.229,-0.015,0.07,-0.999
2026/06/04 08:44:53.249,-0.013,0.069,-1.003
2026/06/04 08:44:53.269,-0.017,0.066,-0.999
2026/06/04 08:44:53.289,-0.014,0.066,-1.005
2026/06/04 08:44:53.309,-0.017,0.069,-1.003
2026/06/04 08:44:53.329,-0.013,0.066,-0.997
2026/06/04 08:44:53.349,-0.013,0.073,-0.997
2026/06/04 08:44:53.369,-0.009,0.064,-1.01
2026/06/04 08:44:53.389,-0.015,0.064,-1.002
2026/06/04 08:44:53.409,-0.013,0.067,-1.006
2026/06/04 08:44:53.430,-0.014,0.07,-1.013
2026/06/04 08:44:53.450,-0.012,0.066,-1.019
2026/06/04 08:44:53.470,-0.011,0.071,-1.015
2026/06/04 08:44:53.490,-0.011,0.072,-1.013
2026/06/04 08:44:53.510,-0.013,0.071,-1.011
2026/06/04 08:44:53.530,-0.015,0.067,-1.012
2026/06/04 08:44:53.550,-0.012,0.068,-1.002
2026/06/04 08:44:53.570,-0.018,0.07,-1.002
2026/06/04 08:44:53.590,-0.018,0.069,-0.996
2026/06/04 08:44:53.610,-0.012,0.065,-1.009
2026/06/04 08:44:53.630,-0.008,0.07,-1.009
2026/06/04 08:44:53.650,-0.011,0.067,-1.005
2026/06/04 08:44:53.670,-0.011,0.064,-1.001
2026/06/04 08:44:53.690,-0.015,0.072,-0.996
2026/06/04 08:44:53.710,-0.017,0.072,-1.003
2026/06/04 08:44:53.730,-0.012,0.067,-1.009
2026/06/04 08:44:53.750,-0.013,0.067,-1.001
2026/06/04 08:44:53.770,-0.014,0.068,-1.004
2026/06/04 08:44:53.790,-0.02,0.069,-1.006
2026/06/04 08:44:53.810,-0.012,0.066,-1.009
2026/06/04 08:44:53.830,-0.01,0.074,-1.009
2026/06/04 08:44:53.850,-0.014,0.071,-1.012
2026/06/04 08:44:53.870,-0.013,0.065,-1.017
2026/06/04 08:44:53.890,-0.009,0.075,-1.02
2026/06/04 08:44:53.910,-0.014,0.074,-1.013
2026/06/04 08:44:53.930,-0.016,0.071,-1.01
2026/06/04 08:44:53.951,-0.019,0.069,-1.01
2026/06/04 08:44:53.971,-0.013,0.07,-1.002
2026/06/04 08:44:53.991,-0.016,0.065,-1.003
2026/06/04 08:44:54.011,-0.016,0.069,-1.0
2026/06/04 08:44:54.031,-0.013,0.067,-1.007
2026/06/04 08:44:54.051,-0.01,0.07,-1.008
2026/06/04 08:44:54.071,-0.019,0.07,-1.006
2026/06/04 08:44:54.091,-0.016,0.07,-1.011
2026/06/04 08:44:54.111,-0.018,0.071,-1.004
2026/06/04 08:44:54.131,-0.019,0.065,-1.0
2026/06/04 08:44:54.151,-0.013,0.066,-0.999
2026/06/04 08:44:54.171,-0.014,0.068,-0.999
2026/06/04 08:44:54.191,-0.012,0.065,-1.003
2026/06/04 08:44:54.211,-0.014,0.063,-1.002
2026/06/04 08:44:54.231,-0.011,0.061,-0.996
2026/06/04 08:44:54.251,-0.018,0.068,-0.994
2026/06/04 08:44:54.271,-0.014,0.065,-1.0
2026/06/04 08:44:54.291,-0.019,0.071,-1.005
2026/06/04 08:44:54.311,-0.016,0.071,-1.006
2026/06/04 08:44:54.331,-0.012,0.07,-1.007
2026/06/04 08:44:54.351,-0.019,0.07,-1.004
2026/06/04 08:44:54.371,-0.017,0.072,-1.004
2026/06/04 08:44:54.391,-0.013,0.067,-1.006
2026/06/04 08:44:54.411,-0.015,0.068,-1.006
2026/06/04 08:44:54.431,-0.014,0.069,-1.011
2026/06/04 08:44:54.452,-0.007,0.061,-1.014
2026/06/04 08:44:54.472,-0.011,0.071,-1.012
2026/06/04 08:44:54.492,-0.013,0.069,-1.01
2026/06/04 08:44:54.512,-0.013,0.072,-1.013
2026/06/04 08:44:54.532,-0.01,0.077,-1.009
2026/06/04 08:44:54.552,-0.014,0.07,-1.008
2026/06/04 08:44:54.572,-0.017,0.062,-1.002
2026/06/04 08:44:54.592,-0.015,0.068,-0.998
2026/06/04 08:44:54.612,-0.013,0.07,-0.998
2026/06/04 08:44:54.632,-0.013,0.067,-1.002
2026/06/04 08:44:54.652,-0.01,0.062,-0.993
2026/06/04 08:44:54.672,-0.008,0.061,-0.996
2026/06/04 08:44:54.692,-0.014,0.062,-0.987
2026/06/04 08:44:54.712,-0.017,0.063,-0.987
2026/06/04 08:44:54.732,-0.019,0.064,-0.993
2026/06/04 08:44:54.752,-0.016,0.06,-0.99
2026/06/04 08:44:54.772,-0.015,0.062,-0.992
2026/06/04 08:44:54.792,-0.016,0.066,-1.0
2026/06/04 08:44:54.812,-0.014,0.069,-1.001
2026/06/04 08:44:54.832,-0.014,0.066,-1.003
2026/06/04 08:44:54.852,-0.011,0.067,-1.004
2026/06/04 08:44:54.872,-0.013,0.066,-1.002
2026/06/04 08:44:54.892,-0.014,0.068,-1.007
2026/06/04 08:44:54.912,-0.014,0.071,-1.01
2026/06/04 08:44:54.932,-0.014,0.072,-1.01
2026/06/04 08:44:54.952,-0.013,0.073,-1.01
2026/06/04 08:44:54.973,-0.014,0.074,-1.007
2026/06/04 08:44:54.993,-0.013,0.067,-1.011
2026/06/04 08:44:55.013,-0.013,0.069,-1.01
2026/06/04 08:44:55.033,-0.016,0.066,-1.005
2026/06/04 08:44:55.053,-0.016,0.067,-1.01
2026/06/04 08:44:55.073,-0.011,0.066,-1.003
2026/06/04 08:44:55.093,-0.012,0.066,-0.998
2026/06/04 08:44:55.113,-0.016,0.061,-0.991
2026/06/04 08:44:55.133,-0.013,0.062,-0.995
2026/06/04 08:44:55.153,-0.016,0.066,-0.996
2026/06/04 08:44:55.173,-0.014,0.063,-1.0
2026/06/04 08:44:55.193,-0.012,0.062,-0.998
2026/06/04 08:44:55.213,-0.014,0.065,-0.997
2026/06/04 08:44:55.233,-0.018,0.069,-1.001
2026/06/04 08:44:55.253,-0.012,0.068,-1.007
2026/06/04 08:44:55.273,-0.013,0.066,-1.007
2026/06/04 08:44:55.293,-0.016,0.067,-1.002
2026/06/04 08:44:55.313,-0.014,0.068,-1.004
2026/06/04 08:44:55.333,-0.013,0.07,-1.006
2026/06/04 08:44:55.353,-0.012,0.07,-1.002
2026/06/04 08:44:55.373,-0.006,0.063,-1.013
2026/06/04 08:44:55.393,-0.009,0.066,-1.005
2026/06/04 08:44:55.413,-0.014,0.071,-1.006
2026/06/04 08:44:55.433,-0.009,0.068,-1.002
2026/06/04 08:44:55.453,-0.015,0.071,-1.0
2026/06/04 08:44:55.474,-0.016,0.067,-0.994
2026/06/04 08:44:55.494,-0.014,0.062,-0.995
2026/06/04 08:44:55.514,-0.017,0.069,-0.997
2026/06/04 08:44:55.534,-0.018,0.067,-1.007
2026/06/04 08:44:55.554,-0.007,0.072,-1.014
2026/06/04 08:44:55.574,-0.016,0.075,-1.019
2026/06/04 08:44:55.594,-0.012,0.073,-1.01
2026/06/04 08:44:55.614,-0.016,0.072,-1.002
2026/06/04 08:44:55.634,-0.013,0.069,-1.005
2026/06/04 08:44:55.654,-0.013,0.068,-1.002
2026/06/04 08:44:55.674,-0.013,0.063,-1.005
2026/06/04 08:44:55.694,-0.014,0.063,-1.001
2026/06/04 08:44:55.714,-0.012,0.062,-1.001
2026/06/04 08:44:55.734,-0.012,0.064,-1.002
2026/06/04 08:44:55.754,-0.017,0.066,-1.002
2026/06/04 08:44:55.774,-0.012,0.065,-1.002
2026/06/04 08:44:55.794,-0.018,0.068,-1.01
2026/06/04 08:44:55.814,-0.012,0.069,-1.007
2026/06/04 08:44:55.834,-0.008,0.069,-1.011
2026/06/04 08:44:55.854,-0.014,0.072,-1.011
2026/06/04 08:44:55.874,-0.015,0.069,-1.008
2026/06/04 08:44:55.894,-0.014,0.065,-1.003
2026/06/04 08:44:55.914,-0.016,0.068,-1.0
2026/06/04 08:44:55.934,-0.002,0.069,-1.008
2026/06/04 08:44:55.954,-0.013,0.068,-1.0
2026/06/04 08:44:55.975,-0.011,0.069,-0.988
2026/06/04 08:44:55.995,-0.01,0.065,-1.003
2026/06/04 08:44:56.015,-0.012,0.061,-1.002
2026/06/04 08:44:56.035,-0.012,0.066,-0.99
2026/06/04 08:44:56.055,-0.012,0.065,-0.991
2026/06/04 08:44:56.075,-0.012,0.061,-0.999
2026/06/04 08:44:56.095,-0.013,0.063,-1.002
2026/06/04 08:44:56.115,-0.007,0.065,-0.994
2026/06/04 08:44:56.135,-0.016,0.067,-0.995
2026/06/04 08:44:56.155,-0.014,0.072,-1.0
2026/06/04 08:44:56.175,-0.014,0.064,-1.0
2026/06/04 08:44:56.195,-0.011,0.063,-1.003
2026/06/04 08:44:56.215,-0.015,0.063,-1.005
2026/06/04 08:44:56.235,-0.009,0.066,-1.003
2026/06/04 08:44:56.255,-0.013,0.064,-1.008
2026/06/04 08:44:56.275,-0.016,0.065,-1.002
2026/06/04 08:44:56.295,-0.015,0.068,-1.002
2026/06/04 08:44:56.315,-0.014,0.069,-1.003
2026/06/04 08:44:56.335,-0.013,0.068,-1.006
2026/06/04 08:44:56.355,-0.014,0.065,-1.0
2026/06/04 08:44:56.375,-0.017,0.067,-0.999
2026/06/04 08:44:56.395,-0.017,0.071,-1.006
2026/06/04 08:44:56.415,-0.016,0.07,-1.002
2026/06/04 08:44:56.435,-0.015,0.067,-1.0
2026/06/04 08:44:56.455,-0.012,0.067,-0.997
2026/06/04 08:44:56.476,-0.019,0.071,-1.005
2026/06/04 08:44:56.496,-0.013,0.069,-1.002
2026/06/04 08:44:56.516,-0.012,0.066,-0.998
2026/06/04 08:44:56.536,-0.019,0.071,-1.004
2026/06/04 08:44:56.556,-0.014,0.068,-1.004
2026/06/04 08:44:56.576,-0.01,0.066,-1.001
2026/06/04 08:44:56.596,-0.017,0.065,-1.009
2026/06/04 08:44:56.616,-0.013,0.071,-1.001
2026/06/04 08:44:56.636,-0.017,0.07,-1.002
2026/06/04 08:44:56.656,-0.008,0.063,-1.002
2026/06/04 08:44:56.676,-0.018,0.066,-1.003
2026/06/04 08:44:56.696,-0.015,0.067,-0.999
2026/06/04 08:44:56.716,-0.011,0.057,-1.001
2026/06/04 08:44:56.736,-0.016,0.071,-0.999
2026/06/04 08:44:56.756,-0.016,0.069,-1.005
2026/06/04 08:44:56.776,-0.011,0.074,-1.003
2026/06/04 08:44:56.796,-0.01,0.068,-1.001
2026/06/04 08:44:56.816,-0.014,0.062,-0.998
2026/06/04 08:44:56.836,-0.018,0.073,-1.003
2026/06/04 08:44:56.856,-0.012,0.069,-1.003
2026/06/04 08:44:56.876,-0.012,0.068,-1.008
2026/06/04 08:44:56.896,-0.015,0.064,-1.003
2026/06/04 08:44:56.916,-0.013,0.067,-1.002
2026/06/04 08:44:56.936,-0.01,0.069,-1.004
2026/06/04 08:44:56.956,-0.019,0.069,-1.0
2026/06/04 08:44:56.977,-0.012,0.069,-1.001
2026/06/04 08:44:56.997,-0.011,0.065,-1.0
2026/06/04 08:44:57.017,-0.013,0.063,-1.006
2026/06/04 08:44:57.037,-0.01,0.07,-1.002
2026/06/04 08:44:57.057,-0.012,0.064,-1.009
2026/06/04 08:44:57.077,-0.01,0.065,-1.002
2026/06/04 08:44:57.097,-0.015,0.063,-1.004
2026/06/04 08:44:57.117,-0.015,0.068,-1.004
2026/06/04 08:44:57.137,-0.013,0.068,-1.002
2026/06/04 08:44:57.157,-0.013,0.063,-1.003
2026/06/04 08:44:57.177,-0.012,0.064,-1.002
2026/06/04 08:44:57.197,-0.013,0.065,-1.002
2026/06/04 08:44:57.217,-0.011,0.068,-1.008
2026/06/04 08:44:57.237,-0.01,0.062,-1.006
2026/06/04 08:44:57.257,-0.014,0.068,-1.003
2026/06/04 08:44:57.277,-0.01,0.066,-1.004
2026/06/04 08:44:57.297,-0.013,0.071,-1.001
2026/06/04 08:44:57.317,-0.015,0.068,-0.999
2026/06/04 08:44:57.337,-0.011,0.069,-0.992
2026/06/04 08:44:57.357,-0.012,0.064,-0.995
2026/06/04 08:44:57.377,-0.015,0.065,-0.995
2026/06/04 08:44:57.397,-0.012,0.064,-0.999
2026/06/04 08:44:57.417,-0.01,0.066,-1.0
2026/06/04 08:44:57.437,-0.01,0.061,-0.999
2026/06/04 08:44:57.457,-0.013,0.061,-1.0
2026/06/04 08:44:57.478,-0.017,0.065,-1.003
2026/06/04 08:44:57.498,-0.011,0.066,-1.003
2026/06/04 08:44:57.518,-0.013,0.066,-1.005
2026/06/04 08:44:57.538,-0.016,0.065,-1.002
2026/06/04 08:44:57.558,-0.01,0.066,-1.003
2026/06/04 08:44:57.578,-0.015,0.063,-1.003
2026/06/04 08:44:57.598,-0.014,0.065,-0.999
2026/06/04 08:44:57.618,-0.018,0.07,-0.994
2026/06/04 08:44:57.638,-0.013,0.062,-1.001
2026/06/04 08:44:57.658,-0.014,0.07,-1.007
2026/06/04 08:44:57.678,-0.015,0.068,-1.012
2026/06/04 08:44:57.698,-0.013,0.07,-1.007
2026/06/04 08:44:57.718,-0.007,0.073,-1.016
2026/06/04 08:44:57.738,-0.011,0.078,-1.016
2026/06/04 08:44:57.758,-0.011,0.073,-1.018
2026/06/04 08:44:57.778,-0.008,0.068,-1.012
2026/06/04 08:44:57.798,-0.02,0.07,-1.003
2026/06/04 08:44:57.818,-0.014,0.072,-1.007
2026/06/04 08:44:57.838,-0.009,0.068,-1.013
2026/06/04 08:44:57.858,-0.008,0.071,-1.005
2026/06/04 08:44:57.878,-0.013,0.067,-1.004
2026/06/04 08:44:57.898,-0.014,0.065,-1.004
2026/06/04 08:44:57.918,-0.008,0.067,-1.007
2026/06/04 08:44:57.938,-0.013,0.067,-1.0
2026/06/04 08:44:57.958,-0.017,0.069,-0.998
2026/06/04 08:44:57.978,-0.012,0.066,-1.0
2026/06/04 08:44:57.999,-0.012,0.065,-1.005
2026/06/04 08:44:58.019,-0.009,0.067,-0.999
2026/06/04 08:44:58.039,-0.012,0.067,-0.997
2026/06/04 08:44:58.059,-0.01,0.063,-1.0
2026/06/04 08:44:58.079,-0.007,0.065,-1.007
2026/06/04 08:44:58.099,-0.014,0.073,-1.013
2026/06/04 08:44:58.119,-0.009,0.07,-1.011
2026/06/04 08:44:58.139,-0.018,0.072,-1.011
2026/06/04 08:44:58.159,-0.008,0.069,-1.016
2026/06/04 08:44:58.179,-0.014,0.074,-1.008
2026/06/04 08:44:58.199,-0.011,0.066,-1.008
2026/06/04 08:44:58.219,-0.008,0.066,-1.013
2026/06/04 08:44:58.239,-0.01,0.064,-1.005
2026/06/04 08:44:58.259,-0.012,0.064,-1.0
2026/06/04 08:44:58.279,-0.015,0.07,-1.0
2026/06/04 08:44:58.299,-0.009,0.065,-1.003
2026/06/04 08:44:58.319,-0.008,0.067,-1.006
2026/06/04 08:44:58.339,-0.013,0.063,-1.007
2026/06/04 08:44:58.359,-0.013,0.065,-1.004
2026/06/04 08:44:58.379,-0.012,0.064,-0.999
2026/06/04 08:44:58.399,-0.013,0.07,-0.997
2026/06/04 08:44:58.419,-0.016,0.065,-0.999
2026/06/04 08:44:58.439,-0.015,0.067,-1.005
2026/06/04 08:44:58.459,-0.019,0.07,-1.002
2026/06/04 08:44:58.479,-0.017,0.067,-0.998
2026/06/04 08:44:58.500,-0.012,0.066,-1.001
2026/06/04 08:44:58.520,-0.011,0.065,-1.01
2026/06/04 08:44:58.540,-0.013,0.073,-1.007
2026/06/04 08:44:58.560,-0.012,0.072,-1.015
2026/06/04 08:44:58.580,-0.013,0.07,-1.016
2026/06/04 08:44:58.600,-0.013,0.071,-1.015
2026/06/04 08:44:58.620,-0.012,0.075,-1.011
2026/06/04 08:44:58.640,-0.015,0.073,-1.009
2026/06/04 08:44:58.660,-0.012,0.071,-1.008
2026/06/04 08:44:58.680,-0.015,0.07,-1.007
2026/06/04 08:44:58.700,-0.014,0.064,-1.006
2026/06/04 08:44:58.720,-0.013,0.068,-1.003
2026/06/04 08:44:58.740,-0.009,0.067,-1.005
2026/06/04 08:44:58.760,-0.013,0.067,-1.002
2026/06/04 08:44:58.780,-0.017,0.068,-0.992
2026/06/04 08:44:58.800,-0.013,0.069,-1.002
2026/06/04 08:44:58.820,-0.016,0.071,-1.001
2026/06/04 08:44:58.840,-0.015,0.066,-1.001
2026/06/04 08:44:58.860,-0.011,0.068,-1.003
2026/06/04 08:44:58.880,-0.014,0.064,-1.0
2026/06/04 08:44:58.900,-0.013,0.068,-1.005
2026/06/04 08:44:58.920,-0.013,0.065,-1.003
2026/06/04 08:44:58.940,-0.015,0.065,-1.003
2026/06/04 08:44:58.960,-0.017,0.067,-0.996
2026/06/04 08:44:58.980,-0.013,0.068,-1.014
2026/06/04 08:44:59.001,-0.011,0.074,-1.013
2026/06/04 08:44:59.021,-0.011,0.072,-1.015
2026/06/04 08:44:59.041,-0.016,0.072,-1.016
2026/06/04 08:44:59.061,-0.015,0.068,-1.019
2026/06/04 08:44:59.081,-0.012,0.074,-1.011
2026/06/04 08:44:59.101,-0.012,0.069,-1.003
2026/06/04 08:44:59.121,-0.015,0.065,-1.005
2026/06/04 08:44:59.141,-0.015,0.071,-1.005
2026/06/04 08:44:59.161,-0.013,0.07,-1.0
2026/06/04 08:44:59.181,-0.011,0.064,-1.001
2026/06/04 08:44:59.201,-0.014,0.069,-1.003
2026/06/04 08:44:59.221,-0.012,0.065,-1.004
2026/06/04 08:44:59.241,-0.015,0.065,-1.008
2026/06/04 08:44:59.261,-0.014,0.068,-1.005
2026/06/04 08:44:59.281,-0.013,0.067,-1.007
2026/06/04 08:44:59.301,-0.013,0.07,-1.001
2026/06/04 08:44:59.321,-0.012,0.067,-1.001
2026/06/04 08:44:59.341,-0.012,0.068,-1.001
2026/06/04 08:44:59.361,-0.013,0.067,-1.004
2026/06/04 08:44:59.381,-0.011,0.066,-0.999
2026/06/04 08:44:59.401,-0.012,0.066,-1.005
2026/06/04 08:44:59.421,-0.01,0.069,-1.013
2026/06/04 08:44:59.441,-0.019,0.071,-1.009
2026/06/04 08:44:59.461,-0.013,0.07,-1.013
2026/06/04 08:44:59.481,-0.014,0.069,-1.016
2026/06/04 08:44:59.502,-0.013,0.075,-1.014
2026/06/04 08:44:59.522,-0.01,0.067,-1.012
2026/06/04 08:44:59.542,-0.013,0.066,-0.996
2026/06/04 08:44:59.562,-0.022,0.064,-1.023
2026/06/04 08:44:59.582,-0.005,0.073,-1.007
2026/06/04 08:44:59.602,-0.013,0.061,-1.006
2026/06/04 08:44:59.622,-0.013,0.067,-1.01
2026/06/04 08:44:59.642,-0.007,0.069,-1.012
2026/06/04 08:44:59.662,-0.014,0.063,-1.006
2026/06/04 08:44:59.682,-0.014,0.063,-0.998
2026/06/04 08:44:59.702,-0.013,0.066,-1.003
2026/06/04 08:44:59.722,-0.013,0.066,-1.0
2026/06/04 08:44:59.742,-0.01,0.063,-1.012
2026/06/04 08:44:59.762,-0.013,0.069,-0.999
2026/06/04 08:44:59.782,-0.013,0.068,-1.005
2026/06/04 08:44:59.802,-0.012,0.066,-1.001
2026/06/04 08:44:59.822,-0.011,0.064,-1.006
2026/06/04 08:44:59.842,-0.013,0.07,-1.008
2026/06/04 08:44:59.862,-0.014,0.071,-1.007
2026/06/04 08:44:59.882,-0.017,0.07,-1.007
2026/06/04 08:44:59.902,-0.015,0.07,-1.009
2026/06/04 08:44:59.922,-0.012,0.072,-1.01
2026/06/04 08:44:59.942,-0.017,0.07,-1.005
2026/06/04 08:44:59.962,-0.017,0.07,-1.004
2026/06/04 08:44:59.982,-0.007,0.063,-1.006
2026/06/04 08:45:00.003,-0.016,0.07,-1.004
2026/06/04 08:45:00.023,-0.015,0.077,-1.007
2026/06/04 08:45:00.043,-0.014,0.071,-1.003
2026/06/04 08:45:00.063,-0.009,0.064,-1.008
2026/06/04 08:45:00.083,-0.012,0.065,-1.0
2026/06/04 08:45:00.103,-0.013,0.07,-1.0
2026/06/04 08:45:00.123,-0.02,0.066,-1.004
2026/06/04 08:45:00.143,-0.016,0.066,-1.002
2026/06/04 08:45:00.163,-0.013,0.068,-1.0
2026/06/04 08:45:00.183,-0.018,0.067,-1.001
2026/06/04 08:45:00.203,-0.015,0.067,-0.997
2026/06/04 08:45:00.223,-0.015,0.061,-0.999
2026/06/04 08:45:00.243,-0.013,0.062,-1.004
2026/06/04 08:45:00.263,-0.011,0.065,-0.998
2026/06/04 08:45:00.283,-0.018,0.067,-1.001
2026/06/04 08:45:00.303,-0.012,0.068,-1.004
2026/06/04 08:45:00.323,-0.019,0.066,-1.007
2026/06/04 08:45:00.343,-0.013,0.066,-1.014
2026/06/04 08:45:00.363,-0.017,0.07,-1.009
2026/06/04 08:45:00.383,-0.016,0.069,-1.002
2026/06/04 08:45:00.403,-0.013,0.066,-1.01
2026/06/04 08:45:00.423,-0.013,0.071,-0.998
2026/06/04 08:45:00.443,-0.01,0.065,-1.002
2026/06/04 08:45:00.463,-0.017,0.069,-1.001
2026/06/04 08:45:00.483,-0.012,0.063,-1.006
2026/06/04 08:45:00.504,-0.013,0.063,-1.005
2026/06/04 08:45:00.524,-0.01,0.067,-1.003
2026/06/04 08:45:00.544,-0.013,0.071,-1.008
2026/06/04 08:45:00.564,-0.015,0.069,-1.004
2026/06/04 08:45:00.584,-0.013,0.067,-1.004
2026/06/04 08:45:00.604,-0.018,0.072,-1.001
2026/06/04 08:45:00.624,-0.013,0.066,-1.005
2026/06/04 08:45:00.644,-0.013,0.07,-1.009
2026/06/04 08:45:00.664,-0.009,0.07,-1.004
2026/06/04 08:45:00.684,-0.012,0.068,-1.011
2026/06/04 08:45:00.704,-0.009,0.07,-1.007
2026/06/04 08:45:00.724,-0.013,0.069,-1.002
2026/06/04 08:45:00.744,-0.011,0.073,-1.003
2026/06/04 08:45:00.764,-0.013,0.068,-0.991
2026/06/04 08:45:00.784,-0.014,0.065,-0.997
2026/06/04 08:45:00.804,-0.013,0.064,-1.0
2026/06/04 08:45:00.824,-0.012,0.07,-1.007
2026/06/04 08:45:00.844,-0.014,0.072,-0.999
2026/06/04 08:45:00.864,-0.016,0.067,-1.0
2026/06/04 08:45:00.884,-0.011,0.07,-1.005
2026/06/04 08:45:00.904,-0.011,0.061,-1.002
2026/06/04 08:45:00.924,-0.016,0.061,-0.993
2026/06/04 08:45:00.944,-0.013,0.07,-0.992
2026/06/04 08:45:00.964,-0.014,0.063,-0.996
2026/06/04 08:45:00.984,-0.008,0.061,-0.997
2026/06/04 08:45:01.005,-0.012,0.062,-0.997
2026/06/04 08:45:01.025,-0.017,0.067,-1.001
2026/06/04 08:45:01.045,-0.013,0.068,-0.997
2026/06/04 08:45:01.065,-0.016,0.067,-1.002
2026/06/04 08:45:01.085,-0.011,0.071,-1.01
2026/06/04 08:45:01.105,-0.013,0.07,-1.01
2026/06/04 08:45:01.125,-0.014,0.073,-1.011
2026/06/04 08:45:01.145,-0.011,0.067,-1.01
2026/06/04 08:45:01.165,-0.008,0.069,-1.003
2026/06/04 08:45:01.185,-0.017,0.065,-1.003
2026/06/04 08:45:01.205,-0.011,0.069,-1.0
2026/06/04 08:45:01.225,-0.014,0.069,-0.999
2026/06/04 08:45:01.245,-0.013,0.068,-1.003
2026/06/04 08:45:01.265,-0.008,0.062,-1.008
2026/06/04 08:45:01.285,-0.016,0.067,-1.004
2026/06/04 08:45:01.305,-0.015,0.064,-0.999
2026/06/04 08:45:01.325,-0.014,0.063,-0.999
2026/06/04 08:45:01.345,-0.01,0.067,-1.004
2026/06/04 08:45:01.365,-0.014,0.067,-1.002
2026/06/04 08:45:01.385,-0.018,0.072,-0.996
2026/06/04 08:45:01.405,-0.019,0.066,-0.995
2026/06/04 08:45:01.425,-0.011,0.067,-0.999
2026/06/04 08:45:01.445,-0.009,0.061,-1.0
2026/06/04 08:45:01.465,-0.008,0.065,-0.997
2026/06/04 08:45:01.485,-0.009,0.061,-0.999
2026/06/04 08:45:01.506,-0.011,0.064,-1.009
2026/06/04 08:45:01.526,-0.009,0.07,-1.0
2026/06/04 08:45:01.546,-0.014,0.068,-1.005
2026/06/04 08:45:01.566,-0.018,0.07,-1.0
2026/06/04 08:45:01.586,-0.015,0.072,-1.002
2026/06/04 08:45:01.606,-0.012,0.069,-0.999
2026/06/04 08:45:01.626,-0.013,0.066,-0.994
2026/06/04 08:45:01.646,-0.014,0.065,-0.994
2026/06/04 08:45:01.666,-0.013,0.062,-0.992
2026/06/04 08:45:01.686,-0.012,0.062,-0.993
2026/06/04 08:45:01.706,-0.013,0.064,-0.995
2026/06/04 08:45:01.726,-0.012,0.069,-0.998
2026/06/04 08:45:01.746,-0.014,0.068,-1.001
2026/06/04 08:45:01.766,-0.013,0.065,-0.997
2026/06/04 08:45:01.786,-0.014,0.064,-0.994
2026/06/04 08:45:01.806,-0.008,0.062,-0.996
2026/06/04 08:45:01.826,-0.014,0.064,-0.998
2026/06/04 08:45:01.846,-0.016,0.064,-1.0
2026/06/04 08:45:01.866,-0.011,0.066,-1.0
2026/06/04 08:45:01.886,-0.012,0.066,-0.995
2026/06/04 08:45:01.906,-0.018,0.062,-1.003
2026/06/04 08:45:01.926,-0.01,0.075,-0.998
2026/06/04 08:45:01.946,-0.02,0.07,-1.008
2026/06/04 08:45:01.966,-0.013,0.065,-0.998
2026/06/04 08:45:01.986,-0.013,0.073,-0.995
2026/06/04 08:45:02.007,-0.019,0.062,-0.995
2026/06/04 08:45:02.027,-0.02,0.065,-0.993
2026/06/04 08:45:02.047,-0.013,0.068,-0.987
2026/06/04 08:45:02.067,-0.009,0.062,-0.997
2026/06/04 08:45:02.087,-0.015,0.068,-0.997
2026/06/04 08:45:02.107,-0.014,0.069,-1.001
2026/06/04 08:45:02.127,-0.009,0.073,-1.004
2026/06/04 08:45:02.147,-0.016,0.07,-0.999
2026/06/04 08:45:02.167,-0.014,0.072,-1.003
2026/06/04 08:45:02.187,-0.012,0.064,-1.004
2026/06/04 08:45:02.207,-0.015,0.068,-0.999
2026/06/04 08:45:02.227,-0.015,0.066,-0.998
2026/06/04 08:45:02.247,-0.013,0.066,-1.001
2026/06/04 08:45:02.267,-0.015,0.071,-1.001
2026/06/04 08:45:02.287,-0.015,0.065,-1.002
2026/06/04 08:45:02.307,-0.012,0.066,-1.005
2026/06/04 08:45:02.327,-0.016,0.069,-1.006
2026/06/04 08:45:02.347,-0.013,0.064,-1.01
2026/06/04 08:45:02.367,-0.016,0.073,-1.004
2026/06/04 08:45:02.387,-0.019,0.063,-0.99
2026/06/04 08:45:02.407,-0.013,0.062,-0.997
2026/06/04 08:45:02.427,-0.017,0.067,-1.003
2026/06/04 08:45:02.447,-0.015,0.07,-1.003
2026/06/04 08:45:02.467,-0.011,0.068,-1.015
2026/06/04 08:45:02.488,-0.017,0.07,-1.01
2026/06/04 08:45:02.508,-0.016,0.073,-1.002
2026/06/04 08:45:02.528,-0.015,0.07,-1.005
2026/06/04 08:45:02.548,-0.016,0.067,-1.005
2026/06/04 08:45:02.568,-0.01,0.067,-1.003
2026/06/04 08:45:02.588,-0.019,0.067,-0.996
2026/06/04 08:45:02.608,-0.012,0.067,-1.005
2026/06/04 08:45:02.628,-0.013,0.071,-1.008
2026/06/04 08:45:02.648,-0.013,0.066,-1.01
2026/06/04 08:45:02.668,-0.011,0.074,-1.008
2026/06/04 08:45:02.688,-0.012,0.072,-1.011
2026/06/04 08:45:02.708,-0.012,0.066,-1.017
2026/06/04 08:45:02.728,-0.013,0.067,-1.0
2026/06/04 08:45:02.748,-0.012,0.069,-1.004
2026/06/04 08:45:02.768,-0.015,0.073,-1.006
2026/06/04 08:45:02.788,-0.01,0.063,-1.006
2026/06/04 08:45:02.808,-0.012,0.071,-1.009
2026/06/04 08:45:02.828,-0.009,0.071,-1.007
2026/06/04 08:45:02.848,-0.016,0.071,-1.012
2026/06/04 08:45:02.868,-0.012,0.073,-1.008
2026/06/04 08:45:02.888,-0.015,0.067,-1.007
2026/06/04 08:45:02.908,-0.015,0.069,-1.003
2026/06/04 08:45:02.928,-0.013,0.068,-1.007
2026/06/04 08:45:02.948,-0.018,0.07,-1.004
2026/06/04 08:45:02.968,-0.01,0.062,-1.005
2026/06/04 08:45:02.989,-0.011,0.065,-1.003
2026/06/04 08:45:03.009,-0.02,0.067,-1.0
2026/06/04 08:45:03.029,-0.012,0.06,-1.001
2026/06/04 08:45:03.049,-0.01,0.064,-1.001
2026/06/04 08:45:03.069,-0.011,0.067,-0.999
2026/06/04 08:45:03.089,-0.014,0.064,-1.006
2026/06/04 08:45:03.109,-0.012,0.063,-0.999
2026/06/04 08:45:03.129,-0.018,0.069,-0.997
2026/06/04 08:45:03.149,-0.016,0.071,-0.998
2026/06/04 08:45:03.169,-0.013,0.066,-0.999
2026/06/04 08:45:03.189,-0.01,0.067,-1.001
2026/06/04 08:45:03.209,-0.008,0.065,-1.009
2026/06/04 08:45:03.229,-0.016,0.069,-1.004
2026/06/04 08:45:03.249,-0.006,0.069,-1.003
2026/06/04 08:45:03.269,-0.008,0.068,-1.001
2026/06/04 08:45:03.289,-0.011,0.067,-0.997
2026/06/04 08:45:03.309,-0.009,0.062,-0.999
2026/06/04 08:45:03.329,-0.009,0.066,-0.997
2026/06/04 08:45:03.349,-0.017,0.068,-0.996
2026/06/04 08:45:03.369,-0.013,0.065,-0.992
2026/06/04 08:45:03.389,-0.015,0.066,-1.0
2026/06/04 08:45:03.409,-0.01,0.067,-1.007
2026/06/04 08:45:03.429,-0.016,0.067,-1.003
2026/06/04 08:45:03.449,-0.011,0.066,-1.003
2026/06/04 08:45:03.469,-0.015,0.062,-0.992
2026/06/04 08:45:03.490,-0.012,0.065,-1.004
2026/06/04 08:45:03.510,-0.009,0.069,-1.007
2026/06/04 08:45:03.530,-0.016,0.063,-0.998
2026/06/04 08:45:03.550,-0.013,0.064,-0.998
2026/06/04 08:45:03.570,-0.014,0.073,-1.002
2026/06/04 08:45:03.590,-0.015,0.064,-0.993
2026/06/04 08:45:03.610,-0.014,0.064,-1.006
2026/06/04 08:45:03.630,-0.009,0.073,-1.002
2026/06/04 08:45:03.650,-0.013,0.067,-1.017
2026/06/04 08:45:03.670,-0.012,0.071,-1.013
2026/06/04 08:45:03.690,-0.015,0.069,-1.013
2026/06/04 08:45:03.710,-0.009,0.071,-1.006
2026/06/04 08:45:03.730,-0.015,0.071,-1.008
2026/06/04 08:45:03.750,-0.013,0.074,-1.001
2026/06/04 08:45:03.770,-0.008,0.064,-0.998
2026/06/04 08:45:03.790,-0.013,0.069,-0.998
2026/06/04 08:45:03.810,-0.015,0.072,-1.002
2026/06/04 08:45:03.830,-0.01,0.065,-1.001
2026/06/04 08:45:03.850,-0.011,0.066,-1.0
2026/06/04 08:45:03.870,-0.013,0.061,-1.003
2026/06/04 08:45:03.890,-0.012,0.065,-1.001
2026/06/04 08:45:03.910,-0.013,0.068,-1.0
2026/06/04 08:45:03.930,-0.011,0.066,-1.0
2026/06/04 08:45:03.950,-0.014,0.068,-1.007
2026/06/04 08:45:03.970,-0.015,0.069,-1.003
2026/06/04 08:45:03.991,-0.018,0.065,-1.008
2026/06/04 08:45:04.011,-0.01,0.069,-1.004
2026/06/04 08:45:04.031,-0.015,0.068,-1.002
2026/06/04 08:45:04.051,-0.017,0.064,-1.008
2026/06/04 08:45:04.071,-0.016,0.065,-1.007
2026/06/04 08:45:04.091,-0.013,0.069,-1.005
2026/06/04 08:45:04.111,-0.012,0.067,-1.006
2026/06/04 08:45:04.131,-0.014,0.071,-1.007
2026/06/04 08:45:04.151,-0.013,0.074,-1.006
2026/06/04 08:45:04.171,-0.011,0.067,-1.002
2026/06/04 08:45:04.191,-0.013,0.07,-0.998
2026/06/04 08:45:04.211,-0.01,0.065,-0.998
2026/06/04 08:45:04.231,-0.016,0.069,-0.99
2026/06/04 08:45:04.251,-0.011,0.064,-1.004
2026/06/04 08:45:04.271,-0.01,0.065,-1.001
2026/06/04 08:45:04.291,-0.018,0.065,-1.002
2026/06/04 08:45:04.311,-0.011,0.065,-1.005
2026/06/04 08:45:04.331,-0.014,0.064,-0.996
2026/06/04 08:45:04.351,-0.013,0.07,-1.002
2026/06/04 08:45:04.371,-0.011,0.064,-1.001
2026/06/04 08:45:04.391,-0.011,0.065,-1.004
2026/06/04 08:45:04.411,-0.016,0.068,-1.005
2026/06/04 08:45:04.431,-0.014,0.069,-0.999
2026/06/04 08:45:04.451,-0.016,0.071,-1.005
2026/06/04 08:45:04.471,-0.012,0.065,-1.004
2026/06/04 08:45:04.491,-0.016,0.066,-0.998
2026/06/04 08:45:04.512,-0.014,0.061,-1.001
2026/06/04 08:45:04.532,-0.013,0.078,-1.007
2026/06/04 08:45:04.552,-0.009,0.069,-1.014
2026/06/04 08:45:04.572,-0.012,0.068,-1.011
2026/06/04 08:45:04.592,-0.017,0.075,-1.009
2026/06/04 08:45:04.612,-0.019,0.069,-1.011
2026/06/04 08:45:04.632,-0.012,0.068,-1.002
2026/06/04 08:45:04.652,-0.011,0.068,-1.013
2026/06/04 08:45:04.672,-0.012,0.07,-0.998
2026/06/04 08:45:04.692,-0.013,0.067,-1.0
2026/06/04 08:45:04.712,-0.009,0.062,-1.003
2026/06/04 08:45:04.732,-0.015,0.073,-0.998
2026/06/04 08:45:04.752,-0.015,0.061,-1.002
2026/06/04 08:45:04.772,-0.013,0.069,-0.997
2026/06/04 08:45:04.792,-0.015,0.069,-1.001
2026/06/04 08:45:04.812,-0.018,0.067,-1.003
2026/06/04 08:45:04.832,-0.015,0.068,-1.0
2026/06/04 08:45:04.852,-0.008,0.067,-1.0
2026/06/04 08:45:04.872,-0.012,0.068,-0.993
2026/06/04 08:45:04.892,-0.016,0.07,-1.002
2026/06/04 08:45:04.912,-0.013,0.062,-1.002
2026/06/04 08:45:04.932,-0.009,0.059,-1.001
2026/06/04 08:45:04.952,-0.019,0.074,-1.003
2026/06/04 08:45:04.972,-0.017,0.068,-1.006
2026/06/04 08:45:04.992,-0.012,0.068,-1.008
2026/06/04 08:45:05.013,-0.011,0.068,-1.015
2026/06/04 08:45:05.033,-0.015,0.074,-1.014
2026/06/04 08:45:05.053,-0.01,0.068,-1.016
2026/06/04 08:45:05.073,-0.012,0.071,-1.008
2026/06/04 08:45:05.093,-0.012,0.069,-1.011
2026/06/04 08:45:05.113,-0.008,0.057,-1.008
2026/06/04 08:45:05.133,-0.012,0.07,-1.003
2026/06/04 08:45:05.153,-0.013,0.067,-0.999
2026/06/04 08:45:05.173,-0.015,0.068,-0.995
2026/06/04 08:45:05.193,-0.013,0.065,-0.998
2026/06/04 08:45:05.213,-0.015,0.067,-0.998
2026/06/04 08:45:05.233,-0.015,0.073,-1.003
2026/06/04 08:45:05.253,-0.012,0.062,-1.005
2026/06/04 08:45:05.273,-0.009,0.066,-1.005
2026/06/04 08:45:05.293,-0.017,0.068,-1.003
2026/06/04 08:45:05.313,-0.02,0.07,-1.001
2026/06/04 08:45:05.333,-0.007,0.066,-0.997
2026/06/04 08:45:05.353,-0.013,0.064,-1.005
2026/06/04 08:45:05.373,-0.014,0.069,-1.003
2026/06/04 08:45:05.393,-0.019,0.069,-1.01
2026/06/04 08:45:05.413,-0.011,0.069,-1.009
2026/06/04 08:45:05.433,-0.012,0.068,-1.018
2026/06/04 08:45:05.453,-0.012,0.073,-1.013
2026/06/04 08:45:05.473,-0.009,0.07,-1.014
2026/06/04 08:45:05.494,-0.018,0.071,-1.01
2026/06/04 08:45:05.514,-0.014,0.066,-1.011
2026/06/04 08:45:05.534,-0.012,0.067,-1.006
2026/06/04 08:45:05.554,-0.011,0.062,-1.003
2026/06/04 08:45:05.574,-0.013,0.07,-1.004
2026/06/04 08:45:05.594,-0.018,0.067,-0.996
2026/06/04 08:45:05.614,-0.013,0.061,-0.996
2026/06/04 08:45:05.634,-0.008,0.069,-1.006
2026/06/04 08:45:05.654,-0.015,0.066,-0.997
2026/06/04 08:45:05.674,-0.013,0.066,-1.004
2026/06/04 08:45:05.694,-0.013,0.066,-1.004
2026/06/04 08:45:05.714,-0.016,0.067,-0.998
2026/06/04 08:45:05.734,-0.015,0.068,-1.008
2026/06/04 08:45:05.754,-0.013,0.065,-0.999
2026/06/04 08:45:05.774,-0.015,0.069,-1.004
2026/06/04 08:45:05.794,-0.017,0.065,-1.009
2026/06/04 08:45:05.814,-0.017,0.072,-1.0
2026/06/04 08:45:05.834,-0.013,0.07,-1.006
2026/06/04 08:45:05.854,-0.013,0.066,-1.011
2026/06/04 08:45:05.874,-0.014,0.07,-1.013
2026/06/04 08:45:05.894,-0.014,0.072,-1.012
2026/06/04 08:45:05.914,-0.009,0.066,-1.013
2026/06/04 08:45:05.934,-0.019,0.076,-1.013
2026/06/04 08:45:05.954,-0.013,0.067,-1.011
2026/06/04 08:45:05.974,-0.012,0.063,-1.003
2026/06/04 08:45:05.995,-0.02,0.069,-1.002
2026/06/04 08:45:06.015,-0.015,0.07,-1.001
2026/06/04 08:45:06.035,-0.013,0.065,-0.999
2026/06/04 08:45:06.055,-0.009,0.066,-1.0
2026/06/04 08:45:06.075,-0.015,0.065,-1.004
2026/06/04 08:45:06.095,-0.015,0.065,-1.004
2026/06/04 08:45:06.115,-0.014,0.065,-0.999
2026/06/04 08:45:06.135,-0.015,0.069,-1.001
2026/06/04 08:45:06.155,-0.012,0.069,-1.003
2026/06/04 08:45:06.175,-0.013,0.07,-1.002
2026/06/04 08:45:06.195,-0.015,0.065,-1.0
2026/06/04 08:45:06.215,-0.02,0.07,-1.003
2026/06/04 08:45:06.235,-0.012,0.06,-1.002
2026/06/04 08:45:06.255,-0.012,0.068,-1.003
2026/06/04 08:45:06.275,-0.014,0.069,-1.004
2026/06/04 08:45:06.295,-0.014,0.067,-1.011
2026/06/04 08:45:06.315,-0.011,0.072,-1.01
2026/06/04 08:45:06.335,-0.017,0.072,-1.013
2026/06/04 08:45:06.355,-0.018,0.073,-1.013
2026/06/04 08:45:06.375,-0.015,0.071,-1.007
2026/06/04 08:45:06.395,-0.019,0.066,-1.005
2026/06/04 08:45:06.415,-0.016,0.069,-1.006
2026/06/04 08:45:06.435,-0.012,0.066,-1.003
2026/06/04 08:45:06.455,-0.012,0.071,-1.006
2026/06/04 08:45:06.475,-0.015,0.066,-0.998
2026/06/04 08:45:06.496,-0.013,0.065,-1.003
2026/06/04 08:45:06.516,-0.015,0.066,-1.003
2026/06/04 08:45:06.536,-0.016,0.065,-1.007
2026/06/04 08:45:06.556,-0.014,0.067,-1.002
2026/06/04 08:45:06.576,-0.012,0.067,-0.999
2026/06/04 08:45:06.596,-0.016,0.069,-1.007
2026/06/04 08:45:06.616,-0.013,0.068,-1.001
2026/06/04 08:45:06.636,-0.011,0.069,-1.0
2026/06/04 08:45:06.656,-0.017,0.066,-0.991
2026/06/04 08:45:06.676,-0.015,0.068,-1.001
2026/06/04 08:45:06.696,-0.015,0.068,-1.003
2026/06/04 08:45:06.716,-0.012,0.066,-1.008
2026/06/04 08:45:06.736,-0.016,0.068,-1.009
2026/06/04 08:45:06.756,-0.016,0.068,-1.009
2026/06/04 08:45:06.776,-0.015,0.069,-1.009
2026/06/04 08:45:06.796,-0.014,0.071,-1.009
2026/06/04 08:45:06.816,-0.016,0.071,-1.011
2026/06/04 08:45:06.836,-0.014,0.073,-1.006
2026/06/04 08:45:06.856,-0.011,0.07,-1.005
2026/06/04 08:45:06.876,-0.012,0.07,-1.001
2026/06/04 08:45:06.896,-0.015,0.071,-1.009
2026/06/04 08:45:06.916,-0.014,0.071,-1.004
2026/06/04 08:45:06.936,-0.013,0.07,-1.002
2026/06/04 08:45:06.956,-0.017,0.065,-1.003
2026/06/04 08:45:06.977,-0.015,0.066,-1.001
2026/06/04 08:45:06.997,-0.013,0.064,-1.007
2026/06/04 08:45:07.017,-0.013,0.066,-1.002
2026/06/04 08:45:07.037,-0.013,0.065,-0.999
2026/06/04 08:45:07.057,-0.012,0.072,-1.002
2026/06/04 08:45:07.077,-0.013,0.063,-0.999
2026/06/04 08:45:07.097,-0.012,0.065,-0.994
2026/06/04 08:45:07.117,-0.015,0.065,-0.99
2026/06/04 08:45:07.137,-0.015,0.062,-0.998
2026/06/04 08:45:07.157,-0.011,0.066,-0.998
2026/06/04 08:45:07.177,-0.019,0.063,-1.0
2026/06/04 08:45:07.197,-0.013,0.064,-1.005
2026/06/04 08:45:07.217,-0.016,0.069,-1.003
2026/06/04 08:45:07.237,-0.014,0.072,-1.004
2026/06/04 08:45:07.257,-0.017,0.069,-0.997
2026/06/04 08:45:07.277,-0.011,0.069,-1.007
2026/06/04 08:45:07.297,-0.012,0.072,-1.007
2026/06/04 08:45:07.317,-0.008,0.067,-1.003
2026/06/04 08:45:07.337,-0.015,0.07,-0.999
2026/06/04 08:45:07.357,-0.012,0.068,-1.005
2026/06/04 08:45:07.377,-0.012,0.064,-1.002
2026/06/04 08:45:07.397,-0.015,0.065,-1.001
2026/06/04 08:45:07.417,-0.012,0.071,-1.01
2026/06/04 08:45:07.437,-0.01,0.069,-1.013
2026/06/04 08:45:07.457,-0.013,0.072,-1.013
2026/06/04 08:45:07.478,-0.016,0.07,-1.004
2026/06/04 08:45:07.498,-0.017,0.068,-0.997
2026/06/04 08:45:07.518,-0.015,0.064,-0.995
2026/06/04 08:45:07.538,-0.012,0.062,-1.002
2026/06/04 08:45:07.558,-0.017,0.064,-1.004
2026/06/04 08:45:07.578,-0.016,0.072,-1.009
2026/06/04 08:45:07.598,-0.015,0.071,-1.006
2026/06/04 08:45:07.618,-0.014,0.071,-1.009
2026/06/04 08:45:07.638,-0.015,0.07,-1.011
2026/06/04 08:45:07.658,-0.014,0.071,-1.014
2026/06/04 08:45:07.678,-0.014,0.069,-1.009
2026/06/04 08:45:07.698,-0.012,0.065,-1.005
2026/06/04 08:45:07.718,-0.016,0.07,-1.004
2026/06/04 08:45:07.738,-0.014,0.071,-1.005
2026/06/04 08:45:07.758,-0.009,0.066,-1.011
2026/06/04 08:45:07.778,-0.017,0.071,-1.011
2026/06/04 08:45:07.798,-0.012,0.064,-1.015
2026/06/04 08:45:07.818,-0.013,0.071,-1.008
2026/06/04 08:45:07.838,-0.015,0.071,-1.004
2026/06/04 08:45:07.858,-0.009,0.065,-1.0
2026/06/04 08:45:07.878,-0.012,0.066,-1.002
2026/06/04 08:45:07.898,-0.009,0.064,-0.997
2026/06/04 08:45:07.918,-0.011,0.069,-1.001
2026/06/04 08:45:07.938,-0.011,0.067,-1.001
2026/06/04 08:45:07.958,-0.016,0.062,-1.0
2026/06/04 08:45:07.978,-0.015,0.068,-0.999
2026/06/04 08:45:07.999,-0.016,0.067,-1.002
2026/06/04 08:45:08.019,-0.015,0.066,-1.006
2026/06/04 08:45:08.039,-0.019,0.066,-1.005
2026/06/04 08:45:08.059,-0.017,0.072,-1.006
2026/06/04 08:45:08.079,-0.013,0.072,-1.01
2026/06/04 08:45:08.099,-0.012,0.07,-1.008
2026/06/04 08:45:08.119,-0.017,0.067,-1.008
2026/06/04 08:45:08.139,-0.014,0.067,-1.007
2026/06/04 08:45:08.159,-0.016,0.071,-1.006
2026/06/04 08:45:08.179,-0.014,0.067,-1.008
2026/06/04 08:45:08.199,-0.01,0.066,-1.003
2026/06/04 08:45:08.219,-0.016,0.067,-1.007
2026/06/04 08:45:08.239,-0.013,0.071,-1.002
2026/06/04 08:45:08.259,-0.015,0.068,-1.006
2026/06/04 08:45:08.279,-0.011,0.063,-1.004
2026/06/04 08:45:08.299,-0.014,0.067,-0.997
2026/06/04 08:45:08.319,-0.012,0.067,-1.001
2026/06/04 08:45:08.339,-0.011,0.064,-0.995
2026/06/04 08:45:08.359,-0.01,0.063,-1.004
2026/06/04 08:45:08.379,-0.01,0.07,-0.999
2026/06/04 08:45:08.399,-0.016,0.069,-1.008
2026/06/04 08:45:08.419,-0.012,0.071,-1.01
2026/06/04 08:45:08.439,-0.012,0.069,-1.003
2026/06/04 08:45:08.459,-0.012,0.068,-1.005
2026/06/04 08:45:08.479,-0.01,0.064,-1.0
2026/06/04 08:45:08.500,-0.007,0.063,-1.0
2026/06/04 08:45:08.520,-0.015,0.062,-0.993
2026/06/04 08:45:08.540,-0.014,0.06,-0.998
2026/06/04 08:45:08.560,-0.014,0.068,-0.992
2026/06/04 08:45:08.580,-0.017,0.066,-0.995
2026/06/04 08:45:08.600,-0.01,0.063,-0.999
2026/06/04 08:45:08.620,-0.015,0.064,-0.993
2026/06/04 08:45:08.640,-0.016,0.071,-1.0
2026/06/04 08:45:08.660,-0.014,0.074,-1.0
2026/06/04 08:45:08.680,-0.011,0.067,-0.996
2026/06/04 08:45:08.700,-0.018,0.062,-1.001
2026/06/04 08:45:08.720,-0.012,0.068,-0.996
2026/06/04 08:45:08.740,-0.013,0.073,-1.007
2026/06/04 08:45:08.760,-0.012,0.061,-0.996
2026/06/04 08:45:08.780,-0.014,0.07,-1.008
2026/06/04 08:45:08.800,-0.015,0.079,-0.998
2026/06/04 08:45:08.820,-0.008,0.063,-0.998
2026/06/04 08:45:08.840,-0.015,0.062,-0.996
2026/06/04 08:45:08.860,-0.014,0.07,-0.991
2026/06/04 08:45:08.880,-0.017,0.065,-0.997
2026/06/04 08:45:08.900,-0.011,0.051,-0.995
2026/06/04 08:45:08.920,-0.005,0.064,-0.995
2026/06/04 08:45:08.940,-0.014,0.066,-1.005
2026/06/04 08:45:08.960,-0.014,0.07,-0.999
2026/06/04 08:45:08.980,-0.013,0.068,-0.999
2026/06/04 08:45:09.001,-0.014,0.069,-1.007
2026/06/04 08:45:09.021,-0.012,0.07,-1.007
2026/06/04 08:45:09.041,-0.016,0.066,-1.006
2026/06/04 08:45:09.061,-0.019,0.069,-0.996
2026/06/04 08:45:09.081,-0.015,0.067,-1.002
2026/06/04 08:45:09.101,-0.012,0.067,-1.007
2026/06/04 08:45:09.121,-0.017,0.068,-0.997
2026/06/04 08:45:09.141,-0.016,0.07,-1.006
2026/06/04 08:45:09.161,-0.013,0.07,-1.009
2026/06/04 08:45:09.181,-0.013,0.068,-1.001
2026/06/04 08:45:09.201,-0.015,0.071,-1.005
2026/06/04 08:45:09.221,-0.012,0.069,-1.008
2026/06/04 08:45:09.241,-0.016,0.069,-1.008
2026/06/04 08:45:09.261,-0.013,0.069,-1.004
2026/06/04 08:45:09.281,-0.015,0.074,-1.003
2026/06/04 08:45:09.301,-0.017,0.068,-1.009
2026/06/04 08:45:09.321,-0.013,0.071,-1.01
2026/06/04 08:45:09.341,-0.012,0.073,-1.008
2026/06/04 08:45:09.361,-0.014,0.067,-1.002
2026/06/04 08:45:09.381,-0.011,0.066,-1.003
2026/06/04 08:45:09.401,-0.015,0.068,-0.995
2026/06/04 08:45:09.421,-0.018,0.064,-0.994
2026/06/04 08:45:09.441,-0.014,0.063,-0.993
2026/06/04 08:45:09.461,-0.009,0.066,-0.998
2026/06/04 08:45:09.481,-0.013,0.063,-0.999
2026/06/04 08:45:09.502,-0.011,0.07,-1.004
2026/06/04 08:45:09.522,-0.012,0.068,-1.004
2026/06/04 08:45:09.542,-0.017,0.071,-1.009
2026/06/04 08:45:09.562,-0.014,0.074,-1.012
2026/06/04 08:45:09.582,-0.013,0.073,-1.012
2026/06/04 08:45:09.602,-0.013,0.069,-1.011
2026/06/04 08:45:09.622,-0.015,0.072,-0.999
2026/06/04 08:45:09.642,-0.011,0.065,-1.002
2026/06/04 08:45:09.662,-0.013,0.067,-0.999
2026/06/04 08:45:09.682,-0.014,0.068,-1.004
2026/06/04 08:45:09.702,-0.013,0.064,-1.003
2026/06/04 08:45:09.722,-0.013,0.065,-0.999
2026/06/04 08:45:09.742,-0.015,0.069,-1.006
2026/06/04 08:45:09.762,-0.014,0.064,-1.001
2026/06/04 08:45:09.782,-0.015,0.063,-1.007
2026/06/04 08:45:09.802,-0.012,0.065,-1.0
2026/06/04 08:45:09.822,-0.012,0.067,-1.001
2026/06/04 08:45:09.842,-0.01,0.071,-1.001
2026/06/04 08:45:09.862,-0.014,0.069,-1.012
2026/06/04 08:45:09.882,-0.011,0.072,-1.005
2026/06/04 08:45:09.902,-0.017,0.06,-1.003
2026/06/04 08:45:09.922,-0.011,0.068,-0.996
2026/06/04 08:45:09.942,-0.011,0.066,-1.0
2026/06/04 08:45:09.962,-0.011,0.063,-0.999
2026/06/04 08:45:09.982,-0.013,0.067,-0.998
2026/06/04 08:45:10.003,-0.014,0.074,-1.005
2026/06/04 08:45:10.023,-0.013,0.067,-1.0
2026/06/04 08:45:10.043,-0.013,0.064,-0.999
2026/06/04 08:45:10.063,-0.018,0.066,-0.999
2026/06/04 08:45:10.083,-0.013,0.073,-0.999
2026/06/04 08:45:10.103,-0.011,0.059,-0.998
2026/06/04 08:45:10.123,-0.013,0.068,-1.0
2026/06/04 08:45:10.143,-0.017,0.069,-1.007
2026/06/04 08:45:10.163,-0.016,0.065,-1.001
2026/06/04 08:45:10.183,-0.014,0.064,-1.0
2026/06/04 08:45:10.203,-0.017,0.07,-1.004
2026/06/04 08:45:10.223,-0.015,0.073,-1.0
2026/06/04 08:45:10.243,-0.013,0.065,-1.006
2026/06/04 08:45:10.263,-0.004,0.063,-1.004
2026/06/04 08:45:10.283,-0.011,0.067,-1.003
2026/06/04 08:45:10.303,-0.016,0.071,-1.008
2026/06/04 08:45:10.323,-0.014,0.071,-0.998
2026/06/04 08:45:10.343,-0.012,0.07,-1.002
2026/06/04 08:45:10.363,-0.021,0.066,-0.995
2026/06/04 08:45:10.383,-0.013,0.066,-0.999
2026/06/04 08:45:10.403,-0.009,0.065,-1.002
2026/06/04 08:45:10.423,-0.015,0.065,-1.004
2026/06/04 08:45:10.443,-0.012,0.064,-1.003
2026/06/04 08:45:10.463,-0.018,0.071,-0.994
2026/06/04 08:45:10.483,-0.017,0.068,-0.998
2026/06/04 08:45:10.504,-0.017,0.069,-1.003
2026/06/04 08:45:10.524,-0.012,0.067,-1.005
2026/06/04 08:45:10.544,-0.013,0.07,-1.004
2026/06/04 08:45:10.564,-0.014,0.069,-1.003
2026/06/04 08:45:10.584,-0.012,0.069,-1.005
2026/06/04 08:45:10.604,-0.011,0.065,-1.0
2026/06/04 08:45:10.624,-0.013,0.064,-1.001
2026/06/04 08:45:10.644,-0.01,0.064,-1.003
2026/06/04 08:45:10.664,-0.014,0.07,-1.001
2026/06/04 08:45:10.684,-0.012,0.071,-1.006
2026/06/04 08:45:10.704,-0.015,0.072,-1.003
2026/06/04 08:45:10.724,-0.012,0.069,-0.997
2026/06/04 08:45:10.744,-0.013,0.064,-1.002
2026/06/04 08:45:10.764,-0.012,0.069,-1.007
2026/06/04 08:45:10.784,-0.013,0.065,-0.999
2026/06/04 08:45:10.804,-0.013,0.067,-1.004
2026/06/04 08:45:10.824,-0.012,0.069,-1.003
2026/06/04 08:45:10.844,-0.013,0.072,-1.0
2026/06/04 08:45:10.864,-0.015,0.063,-1.004
2026/06/04 08:45:10.884,-0.013,0.069,-1.002
2026/06/04 08:45:10.904,-0.012,0.063,-1.001
2026/06/04 08:45:10.924,-0.014,0.061,-1.003
2026/06/04 08:45:10.944,-0.012,0.069,-1.008
2026/06/04 08:45:10.964,-0.014,0.071,-1.007
2026/06/04 08:45:10.984,-0.015,0.066,-1.01
2026/06/04 08:45:11.005,-0.017,0.074,-1.012
2026/06/04 08:45:11.025,-0.013,0.071,-1.006
2026/06/04 08:45:11.045,-0.015,0.072,-1.0
2026/06/04 08:45:11.065,-0.012,0.066,-1.008
2026/06/04 08:45:11.085,-0.012,0.061,-1.0
2026/06/04 08:45:11.105,-0.013,0.064,-0.999
2026/06/04 08:45:11.125,-0.015,0.064,-1.0
2026/06/04 08:45:11.145,-0.009,0.063,-0.995
2026/06/04 08:45:11.165,-0.017,0.071,-1.0
2026/06/04 08:45:11.185,-0.013,0.069,-1.001
2026/06/04 08:45:11.205,-0.016,0.063,-0.997
2026/06/04 08:45:11.225,-0.015,0.071,-0.996
2026/06/04 08:45:11.245,-0.016,0.071,-1.0
2026/06/04 08:45:11.265,-0.016,0.068,-1.003
2026/06/04 08:45:11.285,-0.013,0.068,-1.007
2026/06/04 08:45:11.305,-0.011,0.068,-1.004
2026/06/04 08:45:11.325,-0.014,0.065,-1.007
2026/06/04 08:45:11.345,-0.013,0.066,-1.003
2026/06/04 08:45:11.365,-0.015,0.063,-0.995
2026/06/04 08:45:11.385,-0.017,0.069,-1.007
2026/06/04 08:45:11.405,-0.015,0.071,-1.01
2026/06/04 08:45:11.425,-0.008,0.068,-1.014
2026/06/04 08:45:11.445,-0.011,0.069,-1.013
2026/06/04 08:45:11.465,-0.012,0.065,-1.014
2026/06/04 08:45:11.486,-0.011,0.07,-1.005
2026/06/04 08:45:11.506,-0.011,0.067,-1.004
2026/06/04 08:45:11.526,-0.015,0.065,-0.996
2026/06/04 08:45:11.546,-0.01,0.063,-0.997
2026/06/04 08:45:11.566,-0.009,0.063,-1.001
2026/06/04 08:45:11.586,-0.011,0.063,-0.997
2026/06/04 08:45:11.606,-0.015,0.062,-1.001
2026/06/04 08:45:11.626,-0.014,0.063,-1.0
2026/06/04 08:45:11.646,-0.02,0.07,-1.002
2026/06/04 08:45:11.666,-0.018,0.068,-1.001
2026/06/04 08:45:11.686,-0.013,0.067,-0.999
2026/06/04 08:45:11.706,-0.011,0.064,-1.003
2026/06/04 08:45:11.726,-0.015,0.066,-1.001
2026/06/04 08:45:11.746,-0.014,0.07,-1.002
2026/06/04 08:45:11.766,-0.015,0.069,-1.002
2026/06/04 08:45:11.786,-0.017,0.067,-0.997
2026/06/04 08:45:11.806,-0.012,0.069,-1.0
2026/06/04 08:45:11.826,-0.016,0.066,-1.012
2026/06/04 08:45:11.846,-0.016,0.07,-1.008
2026/06/04 08:45:11.866,-0.009,0.072,-1.007
2026/06/04 08:45:11.886,-0.01,0.07,-1.017
2026/06/04 08:45:11.906,-0.013,0.071,-1.02
2026/06/04 08:45:11.926,-0.011,0.073,-1.019
2026/06/04 08:45:11.946,-0.015,0.073,-1.006
2026/06/04 08:45:11.966,-0.015,0.065,-0.996
2026/06/04 08:45:11.987,-0.012,0.065,-1.001
2026/06/04 08:45:12.007,-0.018,0.067,-0.998
2026/06/04 08:45:12.027,-0.008,0.067,-1.001
2026/06/04 08:45:12.047,-0.015,0.072,-0.999
2026/06/04 08:45:12.067,-0.012,0.065,-1.009
2026/06/04 08:45:12.087,-0.008,0.064,-1.007
2026/06/04 08:45:12.107,-0.017,0.074,-1.001
2026/06/04 08:45:12.127,-0.013,0.065,-1.004
2026/06/04 08:45:12.147,-0.012,0.069,-1.006
2026/06/04 08:45:12.167,-0.016,0.068,-1.007
2026/06/04 08:45:12.187,-0.017,0.068,-0.996
2026/06/04 08:45:12.207,-0.012,0.063,-1.002
2026/06/04 08:45:12.227,-0.013,0.066,-1.008
2026/06/04 08:45:12.247,-0.014,0.071,-1.007
2026/06/04 08:45:12.267,-0.011,0.069,-1.019
2026/06/04 08:45:12.287,-0.011,0.07,-1.018
2026/06/04 08:45:12.307,-0.009,0.076,-1.018
2026/06/04 08:45:12.327,-0.011,0.074,-1.013
2026/06/04 08:45:12.347,-0.014,0.071,-1.016
2026/06/04 08:45:12.367,-0.016,0.073,-1.009
2026/06/04 08:45:12.387,-0.014,0.067,-1.011
2026/06/04 08:45:12.407,-0.015,0.067,-1.008
2026/06/04 08:45:12.427,-0.011,0.068,-1.002
2026/06/04 08:45:12.447,-0.014,0.069,-1.006
2026/06/04 08:45:12.467,-0.013,0.07,-1.005
2026/06/04 08:45:12.488,-0.013,0.067,-1.005
2026/06/04 08:45:12.508,-0.014,0.065,-1.0
2026/06/04 08:45:12.528,-0.012,0.064,-1.003
2026/06/04 08:45:12.548,-0.019,0.07,-1.0
2026/06/04 08:45:12.568,-0.017,0.065,-1.001
2026/06/04 08:45:12.588,-0.013,0.069,-1.003
2026/06/04 08:45:12.608,-0.016,0.068,-0.999
2026/06/04 08:45:12.628,-0.009,0.065,-1.007
2026/06/04 08:45:12.648,-0.016,0.063,-0.996
2026/06/04 08:45:12.668,-0.014,0.065,-1.002
2026/06/04 08:45:12.688,-0.015,0.064,-1.002
2026/06/04 08:45:12.708,-0.015,0.067,-0.998
2026/06/04 08:45:12.728,-0.015,0.068,-1.01
2026/06/04 08:45:12.748,-0.015,0.071,-1.014
2026/06/04 08:45:12.768,-0.015,0.071,-1.012
2026/06/04 08:45:12.788,-0.015,0.068,-1.012
2026/06/04 08:45:12.808,-0.018,0.071,-1.017
2026/06/04 08:45:12.828,-0.015,0.071,-1.008
2026/06/04 08:45:12.848,-0.015,0.07,-1.002
2026/06/04 08:45:12.868,-0.011,0.068,-1.01
2026/06/04 08:45:12.888,-0.013,0.072,-1.007
2026/06/04 08:45:12.908,-0.01,0.062,-1.013
2026/06/04 08:45:12.928,-0.014,0.067,-0.999
2026/06/04 08:45:12.948,-0.009,0.069,-1.011
2026/06/04 08:45:12.968,-0.013,0.07,-0.999
2026/06/04 08:45:12.988,-0.016,0.066,-0.996
2026/06/04 08:45:13.009,-0.013,0.066,-1.003
2026/06/04 08:45:13.029,-0.013,0.069,-0.997
2026/06/04 08:45:13.049,-0.012,0.066,-1.003
2026/06/04 08:45:13.069,-0.012,0.067,-0.995
2026/06/04 08:45:13.089,-0.016,0.068,-0.998
2026/06/04 08:45:13.109,-0.013,0.062,-1.006
2026/06/04 08:45:13.129,-0.017,0.068,-0.999
2026/06/04 08:45:13.149,-0.018,0.068,-1.001
2026/06/04 08:45:13.169,-0.017,0.071,-1.004
2026/06/04 08:45:13.189,-0.015,0.067,-1.005
2026/06/04 08:45:13.209,-0.013,0.072,-1.004
2026/06/04 08:45:13.229,-0.018,0.073,-1.003
2026/06/04 08:45:13.249,-0.014,0.072,-1.008
2026/06/04 08:45:13.269,-0.016,0.073,-1.004
2026/06/04 08:45:13.289,-0.012,0.07,-1.005
2026/06/04 08:45:13.309,-0.017,0.069,-1.007
2026/06/04 08:45:13.329,-0.01,0.066,-1.004
2026/06/04 08:45:13.349,-0.009,0.068,-1.015
2026/06/04 08:45:13.369,-0.015,0.068,-1.002
2026/06/04 08:45:13.389,-0.008,0.066,-1.005
2026/06/04 08:45:13.409,-0.017,0.073,-1.0
2026/06/04 08:45:13.429,-0.014,0.062,-1.004
2026/06/04 08:45:13.449,-0.011,0.063,-1.003
2026/06/04 08:45:13.469,-0.011,0.067,-1.008
2026/06/04 08:45:13.489,-0.018,0.069,-0.991
2026/06/04 08:45:13.510,-0.016,0.065,-0.997
2026/06/04 08:45:13.530,-0.013,0.066,-0.997
2026/06/04 08:45:13.550,-0.017,0.066,-0.994
2026/06/04 08:45:13.570,-0.012,0.066,-1.003
2026/06/04 08:45:13.590,-0.014,0.065,-1.002
2026/06/04 08:45:13.610,-0.011,0.066,-1.007
2026/06/04 08:45:13.630,-0.014,0.08,-1.013
2026/06/04 08:45:13.650,-0.021,0.073,-1.005
2026/06/04 08:45:13.670,-0.015,0.069,-1.006
2026/06/04 08:45:13.690,-0.021,0.069,-1.009
2026/06/04 08:45:13.710,-0.012,0.072,-1.004
2026/06/04 08:45:13.730,-0.012,0.067,-1.0
2026/06/04 08:45:13.750,-0.012,0.064,-1.004
2026/06/04 08:45:13.770,-0.021,0.071,-1.003
2026/06/04 08:45:13.790,-0.01,0.067,-1.002
2026/06/04 08:45:13.810,-0.014,0.069,-1.004
2026/06/04 08:45:13.830,-0.018,0.071,-1.005
2026/06/04 08:45:13.850,-0.015,0.068,-0.995
2026/06/04 08:45:13.870,-0.009,0.06,-1.013
2026/06/04 08:45:13.890,-0.016,0.069,-1.0
2026/06/04 08:45:13.910,-0.013,0.068,-1.005
2026/06/04 08:45:13.930,-0.013,0.062,-1.001
2026/06/04 08:45:13.950,-0.008,0.06,-0.992
2026/06/04 08:45:13.970,-0.01,0.07,-1.005
2026/06/04 08:45:13.990,-0.023,0.066,-0.982
2026/06/04 08:45:14.011,-0.014,0.057,-1.004
2026/06/04 08:45:14.031,-0.016,0.068,-1.002
2026/06/04 08:45:14.051,-0.012,0.064,-0.99
2026/06/04 08:45:14.071,-0.013,0.066,-1.01
2026/06/04 08:45:14.091,-0.01,0.07,-1.001
2026/06/04 08:45:14.111,-0.014,0.067,-1.015
2026/06/04 08:45:14.131,-0.016,0.07,-1.007
2026/06/04 08:45:14.151,-0.014,0.064,-1.008
2026/06/04 08:45:14.171,-0.016,0.072,-1.013
2026/06/04 08:45:14.191,-0.017,0.069,-0.997
2026/06/04 08:45:14.211,-0.013,0.07,-1.004
2026/06/04 08:45:14.231,-0.012,0.071,-1.002
2026/06/04 08:45:14.251,-0.012,0.066,-0.997
2026/06/04 08:45:14.271,-0.01,0.065,-1.004
2026/06/04 08:45:14.291,-0.011,0.07,-1.007
2026/06/04 08:45:14.311,-0.015,0.067,-1.002
2026/06/04 08:45:14.331,-0.01,0.065,-1.002
2026/06/04 08:45:14.351,-0.012,0.068,-1.008
2026/06/04 08:45:14.371,-0.013,0.063,-1.009
2026/06/04 08:45:14.391,-0.014,0.065,-1.0
2026/06/04 08:45:14.411,-0.012,0.065,-1.003
2026/06/04 08:45:14.431,-0.016,0.065,-0.998
2026/06/04 08:45:14.451,-0.02,0.064,-0.994
2026/06/04 08:45:14.471,-0.01,0.059,-1.004
2026/06/04 08:45:14.491,-0.013,0.066,-0.999
2026/06/04 08:45:14.512,-0.017,0.072,-1.002
2026/06/04 08:45:14.532,-0.012,0.07,-0.998
2026/06/04 08:45:14.552,-0.02,0.07,-1.003
2026/06/04 08:45:14.572,-0.016,0.064,-1.004
2026/06/04 08:45:14.592,-0.011,0.071,-1.006
2026/06/04 08:45:14.612,-0.014,0.068,-1.005
2026/06/04 08:45:14.632,-0.015,0.066,-1.011
2026/06/04 08:45:14.652,-0.013,0.071,-1.014
2026/06/04 08:45:14.672,-0.012,0.067,-1.004
2026/06/04 08:45:14.692,-0.013,0.069,-1.007
2026/06/04 08:45:14.712,-0.015,0.072,-1.003
2026/06/04 08:45:14.732,-0.013,0.069,-1.003
2026/06/04 08:45:14.752,-0.009,0.061,-1.004
2026/06/04 08:45:14.772,-0.013,0.07,-1.001
2026/06/04 08:45:14.792,-0.013,0.067,-1.0
2026/06/04 08:45:14.812,-0.014,0.06,-1.0
2026/06/04 08:45:14.832,-0.012,0.063,-1.006
2026/06/04 08:45:14.852,-0.012,0.066,-0.999
2026/06/04 08:45:14.872,-0.015,0.065,-0.991
2026/06/04 08:45:14.892,-0.017,0.064,-0.998
2026/06/04 08:45:14.912,-0.015,0.064,-0.998
2026/06/04 08:45:14.932,-0.013,0.064,-0.991
2026/06/04 08:45:14.952,-0.016,0.069,-0.999
2026/06/04 08:45:14.972,-0.008,0.068,-1.01
2026/06/04 08:45:14.992,-0.01,0.067,-1.011
2026/06/04 08:45:15.013,-0.01,0.063,-1.012
2026/06/04 08:45:15.033,-0.006,0.063,-1.011
2026/06/04 08:45:15.053,-0.005,0.065,-1.002
2026/06/04 08:45:15.073,-0.013,0.064,-0.999
2026/06/04 08:45:15.093,-0.011,0.073,-1.003
2026/06/04 08:45:15.113,-0.018,0.071,-1.01
2026/06/04 08:45:15.133,-0.014,0.066,-1.007
2026/06/04 08:45:15.153,-0.009,0.07,-1.009
2026/06/04 08:45:15.173,-0.015,0.071,-1.0
2026/06/04 08:45:15.193,-0.012,0.069,-1.002
2026/06/04 08:45:15.213,-0.019,0.069,-0.996
2026/06/04 08:45:15.233,-0.015,0.068,-0.998
2026/06/04 08:45:15.253,-0.014,0.065,-1.0
2026/06/04 08:45:15.273,-0.01,0.064,-0.995
2026/06/04 08:45:15.293,-0.013,0.06,-0.993
2026/06/04 08:45:15.313,-0.017,0.068,-0.987
2026/06/04 08:45:15.333,-0.015,0.068,-0.998
2026/06/04 08:45:15.353,-0.018,0.067,-0.991
2026/06/04 08:45:15.373,-0.015,0.066,-1.0
2026/06/04 08:45:15.393,-0.01,0.068,-1.005
2026/06/04 08:45:15.413,-0.01,0.064,-1.005
2026/06/04 08:45:15.433,-0.009,0.059,-1.0
2026/06/04 08:45:15.453,-0.013,0.065,-0.996
2026/06/04 08:45:15.473,-0.016,0.062,-0.993
2026/06/04 08:45:15.493,-0.015,0.068,-0.997
2026/06/04 08:45:15.514,-0.014,0.067,-1.003
2026/06/04 08:45:15.534,-0.017,0.074,-0.995
2026/06/04 08:45:15.554,-0.014,0.065,-1.011
2026/06/04 08:45:15.574,-0.011,0.067,-1.013
2026/06/04 08:45:15.594,-0.008,0.065,-1.005
2026/06/04 08:45:15.614,-0.01,0.063,-1.011
2026/06/04 08:45:15.634,-0.015,0.068,-1.002
2026/06/04 08:45:15.654,-0.013,0.068,-1.004
2026/06/04 08:45:15.674,-0.013,0.065,-0.998
2026/06/04 08:45:15.694,-0.013,0.063,-0.992
2026/06/04 08:45:15.714,-0.015,0.063,-0.984
2026/06/04 08:45:15.734,-0.015,0.066,-0.988
2026/06/04 08:45:15.754,-0.012,0.066,-0.993
2026/06/04 08:45:15.774,-0.01,0.064,-0.996
2026/06/04 08:45:15.794,-0.011,0.057,-1.001
2026/06/04 08:45:15.814,-0.011,0.062,-0.994
2026/06/04 08:45:15.834,-0.014,0.067,-0.996
2026/06/04 08:45:15.854,-0.013,0.062,-0.991
2026/06/04 08:45:15.874,-0.018,0.066,-1.0
2026/06/04 08:45:15.894,-0.016,0.065,-1.003
2026/06/04 08:45:15.914,-0.016,0.066,-1.002
2026/06/04 08:45:15.934,-0.016,0.069,-1.003
2026/06/04 08:45:15.954,-0.01,0.066,-1.006
2026/06/04 08:45:15.974,-0.014,0.064,-1.006
2026/06/04 08:45:15.994,-0.014,0.071,-0.998
2026/06/04 08:45:16.014,-0.015,0.067,-1.003
2026/06/04 08:45:16.035,-0.013,0.068,-0.998
2026/06/04 08:45:16.055,-0.014,0.067,-1.007
2026/06/04 08:45:16.075,-0.014,0.07,-1.009
2026/06/04 08:45:16.095,-0.015,0.063,-1.008
2026/06/04 08:45:16.115,-0.014,0.069,-1.002
2026/06/04 08:45:16.135,-0.013,0.064,-0.999
2026/06/04 08:45:16.155,-0.016,0.065,-0.989
2026/06/04 08:45:16.175,-0.016,0.065,-0.99
2026/06/04 08:45:16.195,-0.015,0.059,-0.993
2026/06/04 08:45:16.215,-0.015,0.064,-0.993
2026/06/04 08:45:16.235,-0.013,0.065,-0.989
2026/06/04 08:45:16.255,-0.012,0.067,-0.991
2026/06/04 08:45:16.275,-0.014,0.065,-0.998
2026/06/04 08:45:16.295,-0.016,0.066,-0.997
2026/06/04 08:45:16.315,-0.014,0.064,-0.997
2026/06/04 08:45:16.335,-0.016,0.063,-0.999
2026/06/04 08:45:16.355,-0.016,0.07,-0.999
2026/06/04 08:45:16.375,-0.015,0.066,-1.003
2026/06/04 08:45:16.395,-0.015,0.065,-1.003
2026/06/04 08:45:16.415,-0.014,0.067,-1.007
2026/06/04 08:45:16.435,-0.016,0.071,-1.004
2026/06/04 08:45:16.455,-0.015,0.069,-1.002
2026/06/04 08:45:16.475,-0.016,0.068,-1.005
2026/06/04 08:45:16.495,-0.015,0.072,-1.01
2026/06/04 08:45:16.515,-0.012,0.072,-1.013
2026/06/04 08:45:16.536,-0.008,0.065,-1.007
2026/06/04 08:45:16.556,-0.012,0.066,-1.001
2026/06/04 08:45:16.576,-0.018,0.066,-0.999
2026/06/04 08:45:16.596,-0.01,0.064,-0.994
2026/06/04 08:45:16.616,-0.014,0.062,-0.995
2026/06/04 08:45:16.636,-0.007,0.056,-0.998
2026/06/04 08:45:16.656,-0.01,0.063,-0.984
2026/06/04 08:45:16.676,-0.012,0.067,-0.995
2026/06/04 08:45:16.696,-0.011,0.06,-0.994
2026/06/04 08:45:16.716,-0.009,0.06,-0.996
2026/06/04 08:45:16.736,-0.013,0.067,-0.995
2026/06/04 08:45:16.756,-0.018,0.068,-0.994
2026/06/04 08:45:16.776,-0.013,0.066,-1.003
2026/06/04 08:45:16.796,-0.015,0.067,-1.002
2026/06/04 08:45:16.816,-0.009,0.065,-1.007
2026/06/04 08:45:16.836,-0.018,0.063,-1.0
2026/06/04 08:45:16.856,-0.015,0.072,-1.003
2026/06/04 08:45:16.876,-0.011,0.066,-1.006
2026/06/04 08:45:16.896,-0.009,0.063,-0.995
2026/06/04 08:45:16.916,-0.013,0.063,-0.999
2026/06/04 08:45:16.936,-0.012,0.071,-1.006
2026/06/04 08:45:16.956,-0.015,0.076,-1.011
2026/06/04 08:45:16.976,-0.015,0.068,-1.009
2026/06/04 08:45:16.996,-0.009,0.066,-1.0
2026/06/04 08:45:17.016,-0.01,0.066,-0.999
2026/06/04 08:45:17.037,-0.013,0.068,-0.996
2026/06/04 08:45:17.057,-0.012,0.063,-1.002
2026/06/04 08:45:17.077,-0.014,0.065,-0.996
2026/06/04 08:45:17.097,-0.012,0.061,-0.993
2026/06/04 08:45:17.117,-0.012,0.062,-0.993
2026/06/04 08:45:17.137,-0.015,0.062,-0.993
2026/06/04 08:45:17.157,-0.011,0.068,-1.001
2026/06/04 08:45:17.177,-0.007,0.067,-1.004
2026/06/04 08:45:17.197,-0.013,0.067,-0.999
2026/06/04 08:45:17.217,-0.015,0.064,-1.002
2026/06/04 08:45:17.237,-0.014,0.069,-1.003
2026/06/04 08:45:17.257,-0.015,0.066,-0.994
2026/06/04 08:45:17.277,-0.008,0.063,-0.999
2026/06/04 08:45:17.297,-0.015,0.066,-0.999
2026/06/04 08:45:17.317,-0.013,0.067,-1.0
2026/06/04 08:45:17.337,-0.014,0.069,-0.998
2026/06/04 08:45:17.357,-0.014,0.065,-1.006
2026/06/04 08:45:17.377,-0.014,0.07,-1.012
2026/06/04 08:45:17.397,-0.013,0.07,-1.012
2026/06/04 08:45:17.417,-0.013,0.071,-1.011
2026/06/04 08:45:17.437,-0.011,0.069,-1.013
2026/06/04 08:45:17.457,-0.011,0.07,-1.006
2026/06/04 08:45:17.477,-0.012,0.068,-1.006
2026/06/04 08:45:17.497,-0.012,0.068,-1.001
2026/06/04 08:45:17.517,-0.014,0.066,-1.003
2026/06/04 08:45:17.538,-0.011,0.063,-0.999
2026/06/04 08:45:17.558,-0.015,0.065,-1.001
2026/06/04 08:45:17.578,-0.014,0.066,-0.998
2026/06/04 08:45:17.598,-0.011,0.067,-0.998
2026/06/04 08:45:17.618,-0.014,0.063,-0.998
2026/06/04 08:45:17.638,-0.015,0.068,-0.997
2026/06/04 08:45:17.658,-0.014,0.069,-1.0
2026/06/04 08:45:17.678,-0.013,0.07,-1.0
2026/06/04 08:45:17.698,-0.012,0.065,-1.006
2026/06/04 08:45:17.718,-0.016,0.066,-0.996
2026/06/04 08:45:17.738,-0.014,0.065,-1.003
2026/06/04 08:45:17.758,-0.013,0.064,-1.005
2026/06/04 08:45:17.778,-0.015,0.067,-1.004
2026/06/04 08:45:17.798,-0.011,0.066,-1.01
2026/06/04 08:45:17.818,-0.015,0.074,-1.01
2026/06/04 08:45:17.838,-0.013,0.073,-1.014
2026/06/04 08:45:17.858,-0.012,0.072,-1.015
2026/06/04 08:45:17.878,-0.012,0.072,-1.012
2026/06/04 08:45:17.898,-0.011,0.067,-1.014
2026/06/04 08:45:17.918,-0.011,0.062,-1.008
2026/06/04 08:45:17.938,-0.006,0.065,-1.007
2026/06/04 08:45:17.958,-0.013,0.065,-1.004
2026/06/04 08:45:17.978,-0.004,0.058,-1.009
2026/06/04 08:45:17.998,-0.011,0.065,-0.999
2026/06/04 08:45:18.018,-0.006,0.062,-0.997
2026/06/04 08:45:18.039,-0.018,0.068,-0.998
2026/06/04 08:45:18.059,-0.018,0.071,-0.996
2026/06/04 08:45:18.079,-0.014,0.064,-1.001
2026/06/04 08:45:18.099,-0.017,0.068,-1.0
2026/06/04 08:45:18.119,-0.017,0.067,-1.002
2026/06/04 08:45:18.139,-0.011,0.066,-0.999
2026/06/04 08:45:18.159,-0.012,0.066,-1.002
2026/06/04 08:45:18.179,-0.015,0.066,-0.999
2026/06/04 08:45:18.199,-0.016,0.072,-0.998
2026/06/04 08:45:18.219,-0.012,0.065,-0.999
2026/06/04 08:45:18.239,-0.013,0.07,-0.998
2026/06/04 08:45:18.259,-0.012,0.067,-1.004
2026/06/04 08:45:18.279,-0.013,0.07,-1.013
2026/06/04 08:45:18.299,-0.012,0.071,-1.012
2026/06/04 08:45:18.319,-0.016,0.068,-1.01
2026/06/04 08:45:18.339,-0.011,0.069,-1.009
2026/06/04 08:45:18.359,-0.015,0.063,-1.0
2026/06/04 08:45:18.379,-0.016,0.065,-0.998
2026/06/04 08:45:18.399,-0.016,0.066,-0.996
2026/06/04 08:45:18.419,-0.012,0.065,-1.002
2026/06/04 08:45:18.439,-0.013,0.066,-1.001
2026/06/04 08:45:18.459,-0.017,0.068,-1.0
2026/06/04 08:45:18.479,-0.018,0.065,-1.003
2026/06/04 08:45:18.499,-0.014,0.066,-1.002
2026/06/04 08:45:18.519,-0.018,0.068,-0.999
2026/06/04 08:45:18.540,-0.012,0.065,-1.003
2026/06/04 08:45:18.560,-0.012,0.066,-1.007
2026/06/04 08:45:18.580,-0.015,0.072,-1.0
2026/06/04 08:45:18.600,-0.017,0.068,-1.004
2026/06/04 08:45:18.620,-0.008,0.062,-0.999
2026/06/04 08:45:18.640,-0.013,0.07,-1.004
2026/06/04 08:45:18.660,-0.015,0.074,-1.004
2026/06/04 08:45:18.680,-0.017,0.07,-1.008
2026/06/04 08:45:18.700,-0.016,0.072,-1.017
2026/06/04 08:45:18.720,-0.012,0.07,-1.021
2026/06/04 08:45:18.740,-0.013,0.069,-1.019
